onset	duration	eventnumber	blocksequencenumber	isteststim	object	objectnumber	presentationnumber	sequencenumber	stim	stimnumber	teststimnumber	withinsequencenumber	istarget	stimname	response	rt	correct	time_stimon	time_stimoff	stimdur
127367	50	0	0	0	parsley	1122	0	0	stimuli\parsley\parsley_08s.jpg	7	-1	0	0	parsley_08s.jpg	0	0	0	103.542810784187	103.592775675585	0.0499648913973942
127467	50	1	0	0	bobsled	155	1	0	stimuli\bobsled\bobsled_10s.jpg	9	-1	0	0	bobsled_10s.jpg	0	0	0	103.642811759433	103.692777382268	0.0499656228348613
127567	50	2	0	0	grater	708	2	0	stimuli\grater\grater_01b.jpg	0	-1	0	0	grater_01b.jpg	0	0	0	103.742795911792	103.792806883226	0.0500109714339487
127667	50	3	0	0	popsicle	1225	3	0	stimuli\popsicle\popsicle_06s.jpg	5	-1	0	0	popsicle_06s.jpg	0	0	0	103.842824681371	103.892780795635	0.0499561142642051
127767	50	4	0	0	turban	1730	4	0	stimuli\turban\turban_01b.jpg	0	-1	0	0	turban_01b.jpg	0	0	0	103.942803957558	103.992781770823	0.0499778132652864
127867	50	5	0	0	printer	1240	5	0	stimuli\printer\printer_04s.jpg	3	-1	0	0	printer_04s.jpg	0	0	0	104.042806151847	104.093329611176	0.0505234593292698
127967	50	6	0	0	fire_alarm	591	6	0	stimuli\fire_alarm\fire_alarm_07s.jpg	6	-1	0	0	fire_alarm_07s.jpg	0	0	0	104.142793473729	104.192803957558	0.0500104838283733
128067	50	7	0	0	bowl	177	7	0	stimuli\bowl\bowl_01b.jpg	0	-1	0	0	bowl_01b.jpg	0	0	0	104.24282785086	104.292804932746	0.049977081886027
128167	50	8	0	0	nacho	1045	8	0	stimuli\nacho\nacho_12s.jpg	11	-1	0	0	nacho_12s.jpg	0	0	0	104.342830532813	104.392807614699	0.049977081886027
128267	50	9	0	0	grapevine	704	9	0	stimuli\grapevine\grapevine_09s.jpg	8	-1	0	0	grapevine_09s.jpg	0	0	0	104.442832727043	104.492811271804	0.0499785447609611
128367	50	10	0	0	hot_tub	804	10	0	stimuli\hot_tub\hot_tub_08s.jpg	7	-1	0	0	hot_tub_08s.jpg	0	0	0	104.542833702289	104.592813709925	0.0499800076358952
128467	50	11	0	0	jewelry	850	11	0	stimuli\jewelry\jewelry_03s.jpg	2	-1	0	0	jewelry_03s.jpg	0	0	0	104.642835652805	104.692817367089	0.0499817142845131
128567	50	12	0	0	arrow	38	12	0	stimuli\arrow\arrow_07s.jpg	6	-1	0	0	arrow_07s.jpg	0	0	0	104.742838578532	104.792820292758	0.0499817142263055
128667	50	13	0	0	bandage	66	13	0	stimuli\bandage\bandage_07s.jpg	6	-1	0	0	bandage_07s.jpg	0	0	0	104.842840772762	104.89282370609	0.0499829333275557
128767	50	14	0	0	bug	212	14	0	stimuli\bug\bug_05s.jpg	4	-1	0	0	bug_05s.jpg	0	0	0	104.942843942321	104.992830776609	0.0499868342885748
128867	50	15	0	0	turntable	1735	15	0	stimuli\turntable\turntable_07s.jpg	6	-1	0	0	turntable_07s.jpg	0	0	0	105.042845649004	105.092827850895	0.0499822018900886
128967	50	16	0	0	leek	910	16	0	stimuli\leek\leek_10s.jpg	9	-1	0	0	leek_10s.jpg	0	0	0	105.142846868024	105.192831751832	0.0499848838080652
129067	50	17	0	0	roulette_wheel	1335	17	0	stimuli\roulette_wheel\roulette_wheel_05s.jpg	4	-1	0	0	roulette_wheel_05s.jpg	0	0	0	105.242858570884	105.292833458516	0.0499748876318336
129167	50	18	0	0	cup	460	18	0	stimuli\cup\cup_11s.jpg	10	-1	0	0	cup_11s.jpg	0	0	0	105.342857839481	105.392839066102	0.04998122662073
129267	50	19	0	0	terrarium	1644	19	0	stimuli\terrarium\terrarium_12s.jpg	11	-1	0	1	terrarium_12s.jpg	0	0	0	105.442858814728	105.492837115657	0.0499783009290695
129367	50	20	0	0	grille	715	20	0	stimuli\grille\grille_07s.jpg	6	-1	0	0	grille_07s.jpg	0	0	0	105.542861984228	105.592841016594	0.0499790323665366
129467	50	21	0	0	bow2	175	21	0	stimuli\bow2\bow2_02s.jpg	1	-1	0	0	bow2_02s.jpg	0	0	0	105.642861740431	105.692843698489	0.0499819580581971
129567	50	22	0	0	mop	1019	22	0	stimuli\mop\mop_07s.jpg	6	-1	0	0	mop_07s.jpg	0	0	0	105.742864909931	105.792850281345	0.0499853714136407
129667	50	23	0	0	gingerbread_man	674	23	0	stimuli\gingerbread_man\gingerbread_man_03s.jpg	2	-1	0	0	gingerbread_man_03s.jpg	1	0.392252216232009	1	105.842867348052	105.892849549942	0.0499822018900886
129767	50	24	0	0	prune	1244	24	0	stimuli\prune\prune_08s.jpg	7	-1	0	0	prune_08s.jpg	0	0	0	105.94287417474	105.992854426149	0.0499802514095791
129867	50	25	0	0	pantyhose	1110	25	0	stimuli\pantyhose\pantyhose_05s.jpg	4	-1	0	0	pantyhose_05s.jpg	0	0	0	106.042873930885	106.09285759565	0.0499836647650227
129967	50	26	0	0	jumpsuit	859	26	0	stimuli\jumpsuit\jumpsuit_08s.jpg	7	-1	0	0	jumpsuit_08s.jpg	0	0	0	106.142874906131	106.192882951873	0.0500080457422882
130067	50	27	0	0	trident	1712	27	0	stimuli\trident\trident_05s.jpg	4	-1	0	0	trident_05s.jpg	0	0	0	106.242878807127	106.292861984228	0.0499831771012396
130167	50	28	0	0	sombrero	1495	28	0	stimuli\sombrero\sombrero_08s.jpg	7	-1	0	0	sombrero_08s.jpg	0	0	0	106.342888559506	106.392864909954	0.04997635044856
130267	50	29	0	0	cordon_bleu	408	29	0	stimuli\cordon_bleu\cordon_bleu_09s.jpg	8	-1	0	0	cordon_bleu_09s.jpg	0	0	0	106.442889047088	106.492869054724	0.0499800076358952
130367	50	30	0	0	lemonade	915	30	0	stimuli\lemonade\lemonade_09s.jpg	8	-1	0	0	lemonade_09s.jpg	0	0	0	106.54289050994	106.592869542306	0.0499790323665366
130467	50	31	0	0	clam	349	31	0	stimuli\clam\clam_04s.jpg	3	-1	0	0	clam_04s.jpg	0	0	0	106.642890753748	106.692874906119	0.0499841523705982
130567	50	32	0	0	crucifix	449	32	0	stimuli\crucifix\crucifix_06s.jpg	5	-1	0	0	crucifix_06s.jpg	0	0	0	106.742891485221	106.792873930885	0.0499824456637725
130667	50	33	0	0	ladybug	888	33	0	stimuli\ladybug\ladybug_12s.jpg	11	-1	0	0	ladybug_12s.jpg	0	0	0	106.842897092807	106.892874662357	0.0499775695498101
130767	50	34	0	0	syrup	1605	34	0	stimuli\syrup\syrup_03s.jpg	2	-1	0	0	syrup_03s.jpg	0	0	0	106.942900018534	106.992880757549	0.0499807390151545
130867	50	35	0	0	jack	835	35	0	stimuli\jack\jack_07s.jpg	6	-1	0	0	jack_07s.jpg	0	0	0	107.042905382346	107.092881976627	0.0499765942804515
130967	50	36	0	0	scone	1380	36	0	stimuli\scone\scone_03s.jpg	2	-1	0	0	scone_03s.jpg	0	0	0	107.142903431901	107.192884414748	0.0499809828470461
131067	50	37	0	0	tape_measure	1623	37	0	stimuli\tape_measure\tape_measure_12s.jpg	11	-1	0	0	tape_measure_12s.jpg	0	0	0	107.242887828033	107.292885877599	0.0499980495660566
131167	50	38	0	0	seaweed	1400	38	0	stimuli\seaweed\seaweed_05s.jpg	4	-1	0	0	seaweed_05s.jpg	0	0	0	107.34292488714	107.392894410936	0.0499695237958804
131267	50	39	0	0	peppermint	1152	39	0	stimuli\peppermint\peppermint_07s.jpg	6	-1	0	0	peppermint_07s.jpg	0	0	0	107.442910258542	107.492894410912	0.0499841523705982
131367	50	40	0	0	oil	1072	40	0	stimuli\oil\oil_11s.jpg	10	-1	0	0	oil_11s.jpg	0	0	0	107.542914890917	107.592898799514	0.0499839085969143
131467	50	41	0	0	cookie_sheet	402	41	0	stimuli\cookie_sheet\cookie_sheet_07s.jpg	6	-1	0	0	cookie_sheet_07s.jpg	0	0	0	107.642916353769	107.692899043323	0.0499826895538718
131567	50	42	0	0	paper_bag	1113	42	0	stimuli\paper_bag\paper_bag_07s.jpg	6	-1	0	0	paper_bag_07s.jpg	0	0	0	107.742923911894	107.792901725217	0.049977813323494
131667	50	43	0	0	wind_chimes	1817	43	0	stimuli\wind_chimes\wind_chimes_04s.jpg	3	-1	0	0	wind_chimes_04s.jpg	0	0	0	107.842926106183	107.892903675674	0.0499775694916025
131767	50	44	0	0	kebab	865	44	0	stimuli\kebab\kebab_03n.jpg	2	-1	0	0	kebab_03n.jpg	0	0	0	107.942925374722	107.992917085241	0.0499917105189525
131867	50	45	0	0	flashlight	611	45	0	stimuli\flashlight\flashlight_09n.jpg	8	-1	0	0	flashlight_09n.jpg	0	0	0	108.042931226199	108.092910746171	0.049979519972112
131967	50	46	0	0	face	569	46	0	stimuli\face\face_11s.jpg	10	-1	0	0	face_11s.jpg	0	0	0	108.142931226175	108.192910989979	0.0499797638040036
132067	50	47	0	0	nail_file	1048	47	0	stimuli\nail_file\nail_file_06s.jpg	5	-1	0	0	nail_file_06s.jpg	0	0	0	108.242934151902	108.29291415948	0.0499800075776875
132167	50	48	0	0	stamp2	1536	48	0	stimuli\stamp2\stamp2_01b.jpg	0	-1	0	0	stamp2_01b.jpg	0	0	0	108.342937809066	108.392915622389	0.049977813323494
132267	50	49	0	0	cruise_ship	450	49	0	stimuli\cruise_ship\cruise_ship_06s.jpg	5	-1	0	0	cruise_ship_06s.jpg	0	0	0	108.442940003355	108.492920010933	0.0499800075776875
132367	50	50	0	0	tool	1676	50	0	stimuli\tool\tool_12s.jpg	11	-1	0	0	tool_12s.jpg	0	0	0	108.542937321414	108.592917572823	0.0499802514095791
132467	50	51	0	0	javelin	841	51	0	stimuli\javelin\javelin_07s.jpg	6	-1	0	0	javelin_07s.jpg	0	0	0	108.64293073857	108.692911721417	0.0499809828470461
132567	50	52	0	0	tablecloth	1609	52	0	stimuli\tablecloth\tablecloth_11s.jpg	10	-1	0	0	tablecloth_11s.jpg	0	0	0	108.742930738546	108.792915378523	0.0499846399761736
132667	50	53	0	0	manhole	967	53	0	stimuli\manhole\manhole_05n.jpg	4	-1	0	0	manhole_05n.jpg	0	0	0	108.842936833797	108.892915866163	0.0499790323665366
132767	50	54	0	0	nest	1056	54	0	stimuli\nest\nest_03s.jpg	2	-1	0	0	nest_03s.jpg	0	0	0	108.942938784254	108.99292074237	0.0499819581164047
132867	50	55	0	0	cement_mixer	294	55	0	stimuli\cement_mixer\cement_mixer_04s.jpg	3	-1	0	0	cement_mixer_04s.jpg	0	0	0	109.042941953812	109.092921473784	0.049979519972112
132967	50	56	0	0	star_fruit	1540	56	0	stimuli\star_fruit\star_fruit_03s.jpg	2	-1	0	0	star_fruit_03s.jpg	0	0	0	109.142941953789	109.192925862386	0.0499839085969143
133067	50	57	0	0	foot	628	57	0	stimuli\foot\foot_10s.jpg	9	-1	0	0	foot_10s.jpg	0	0	0	109.242947805265	109.292928300449	0.049980495183263
133167	50	58	0	0	stereo	1549	58	0	stimuli\stereo\stereo_02s.jpg	1	-1	0	0	stereo_02s.jpg	0	0	0	109.342979012872	109.392931713781	0.0499527009087615
133267	50	59	0	0	flask	612	59	0	stimuli\flask\flask_04s.jpg	3	-1	0	0	flask_04s.jpg	0	0	0	109.44295365666	109.492931469984	0.049977813323494
133367	50	60	0	0	plug	1202	60	0	stimuli\plug\plug_11s.jpg	10	-1	0	0	plug_11s.jpg	0	0	0	109.54295585095	109.592942197633	0.0499863466829993
133467	50	61	0	0	skateboard	1449	61	0	stimuli\skateboard\skateboard_11s.jpg	10	-1	0	0	skateboard_11s.jpg	0	0	0	109.64295633859	109.692938784254	0.0499824456637725
133567	50	62	0	0	rocking_chair	1321	62	0	stimuli\rocking_chair\rocking_chair_01b.jpg	0	-1	0	0	rocking_chair_01b.jpg	0	0	0	109.742959995696	109.79294170998	0.0499817142845131
133667	50	63	0	0	mandolin	965	63	0	stimuli\mandolin\mandolin_09s.jpg	8	-1	0	0	mandolin_09s.jpg	0	0	0	109.842970235739	109.892943904269	0.0499736685305834
133767	50	64	0	0	humvee	813	64	0	stimuli\humvee\humvee_08s.jpg	7	-1	0	0	humvee_08s.jpg	0	0	0	109.942972673802	109.99295195	0.0499792761984281
133867	50	65	0	0	toothpick	1681	65	0	stimuli\toothpick\toothpick_01b.jpg	0	-1	0	0	toothpick_01b.jpg	0	0	0	110.042970235751	110.092956582375	0.0499863466247916
133967	50	66	0	0	rabbit	1265	66	0	stimuli\rabbit\rabbit_05s.jpg	4	-1	0	0	rabbit_05s.jpg	0	0	0	110.142972186208	110.192940978566	0.0499687923584133
134067	50	67	0	0	turtleneck	1737	67	0	stimuli\turtleneck\turtleneck_05s.jpg	4	-1	0	0	turtleneck_05s.jpg	0	0	0	110.242973892891	110.292954144301	0.0499802514095791
134167	50	68	0	0	swan	1591	68	0	stimuli\swan\swan_02s.jpg	1	-1	0	0	swan_02s.jpg	0	0	0	110.342966822383	110.392958532844	0.0499917104607448
134267	50	69	0	0	broom	203	69	0	stimuli\broom\broom_05s.jpg	4	-1	0	1	broom_05s.jpg	0	0	0	110.443000468134	110.492959995696	0.0499595275614411
134367	50	70	0	0	sorbet	1497	70	0	stimuli\sorbet\sorbet_10s.jpg	9	-1	0	0	sorbet_10s.jpg	0	0	0	110.542989252892	110.592980475747	0.0499912228551693
134467	50	71	0	0	hard_disk	752	71	0	stimuli\hard_disk\hard_disk_03s.jpg	2	-1	0	0	hard_disk_03s.jpg	0	0	0	110.643002418627	110.692983401474	0.0499809828470461
134567	50	72	0	0	velcro	1756	72	0	stimuli\velcro\velcro_10s.jpg	9	-1	0	0	velcro_10s.jpg	0	0	0	110.742987302423	110.792990471935	0.0500031695119105
134667	50	73	0	0	cat	284	73	0	stimuli\cat\cat_08s.jpg	7	-1	0	0	cat_08s.jpg	1	0.40374394133687	1	110.843009489065	110.892986327177	0.0499768381123431
134767	50	74	0	0	earring	540	74	0	stimuli\earring\earring_06n.jpg	5	-1	0	0	earring_06n.jpg	0	0	0	110.943013146229	110.992976087146	0.0499629409168847
134867	50	75	0	0	charcoal	307	75	0	stimuli\charcoal\charcoal_04s.jpg	3	-1	0	0	charcoal_04s.jpg	0	0	0	111.043022654834	111.092980963353	0.0499583085183986
134967	50	76	0	0	shaving_cream	1410	76	0	stimuli\shaving_cream\shaving_cream_06s.jpg	5	-1	0	0	shaving_cream_06s.jpg	0	0	0	111.1430026624	111.193009732873	0.0500070704729296
135067	50	77	0	0	graffiti	697	77	0	stimuli\graffiti\graffiti_03s.jpg	2	-1	0	0	graffiti_03s.jpg	0	0	0	111.243002662435	111.292986327142	0.049983664706815
135167	50	78	0	0	tennis_ball	1642	78	0	stimuli\tennis_ball\tennis_ball_09s.jpg	8	-1	0	0	tennis_ball_09s.jpg	0	0	0	111.343011927209	111.392989252869	0.0499773256597109
135267	50	79	0	0	blinder	141	79	0	stimuli\blinder\blinder_04s.jpg	3	-1	0	0	blinder_04s.jpg	0	0	0	111.443012414791	111.492997054767	0.0499846399761736
135367	50	80	0	0	peacock	1130	80	0	stimuli\peacock\peacock_05s.jpg	4	-1	0	0	peacock_05s.jpg	0	0	0	111.543012414826	111.592991203361	0.049978788534645
135467	50	81	0	0	hydrant	814	81	0	stimuli\hydrant\hydrant_07s.jpg	6	-1	0	0	hydrant_07s.jpg	0	0	0	111.643015584326	111.69299339765	0.049977813323494
135567	50	82	0	0	chipmunk	334	82	0	stimuli\chipmunk\chipmunk_06s.jpg	5	-1	0	0	chipmunk_06s.jpg	0	0	0	111.743017778615	111.793016071955	0.0499982933397405
135667	50	83	0	0	wrist	1842	83	0	stimuli\wrist\wrist_02s.jpg	1	-1	0	0	wrist_02s.jpg	0	0	0	111.84302143578	111.893001199584	0.0499797638040036
135767	50	84	0	0	raisin	1280	84	0	stimuli\raisin\raisin_09s.jpg	8	-1	0	0	raisin_09s.jpg	0	0	0	111.943039477686	111.993000711955	0.0499612342682667
135867	50	85	0	0	rust	1342	85	0	stimuli\rust\rust_10s.jpg	9	-1	0	0	rust_10s.jpg	0	0	0	112.043021679565	112.093011927209	0.0499902476440184
135967	50	86	0	0	kilt	872	86	0	stimuli\kilt\kilt_07s.jpg	6	-1	0	0	kilt_07s.jpg	0	0	0	112.143046548183	112.19302655576	0.0499800075776875
136067	50	87	0	0	maggot	955	87	0	stimuli\maggot\maggot_06s.jpg	5	-1	0	0	maggot_06s.jpg	0	0	0	112.243049961515	112.293028018612	0.049978057097178
136167	50	88	0	0	fencepost	576	88	0	stimuli\fencepost\fencepost_03s.jpg	2	-1	0	0	fencepost_03s.jpg	0	0	0	112.343052399578	112.393027287209	0.0499748876318336
136267	50	89	0	0	quilt	1264	89	0	stimuli\quilt\quilt_06s.jpg	5	-1	0	0	quilt_06s.jpg	0	0	0	112.443033626245	112.493030944315	0.0499973180703819
136367	50	90	0	0	saltshaker	1350	90	0	stimuli\saltshaker\saltshaker_02s.jpg	1	-1	0	0	saltshaker_02s.jpg	0	0	0	112.543051668152	112.593024361471	0.0499726933194324
136467	50	91	0	0	chessboard	318	91	0	stimuli\chessboard\chessboard_08s.jpg	7	-1	0	0	chessboard_08s.jpg	0	0	0	112.643047523394	112.693028506241	0.0499809828470461
136567	50	92	0	0	gargoyle	657	92	0	stimuli\gargoyle\gargoyle_10s.jpg	9	-1	0	0	gargoyle_10s.jpg	0	0	0	112.743049961515	112.793027774838	0.049977813323494
136667	50	93	0	0	squash	1526	93	0	stimuli\squash\squash_01b.jpg	0	-1	0	0	squash_01b.jpg	0	0	0	112.843054837664	112.893035332905	0.0499804952414706
136767	50	94	0	0	tupperware	1729	94	0	stimuli\tupperware\tupperware_06s.jpg	5	-1	0	0	tupperware_06s.jpg	0	0	0	112.943057275785	112.993033870065	0.0499765942804515
136867	50	95	0	0	shoulder	1431	95	0	stimuli\shoulder\shoulder_09s.jpg	8	-1	0	0	shoulder_09s.jpg	0	0	0	113.043059713906	113.093039965315	0.0499802514095791
136967	50	96	0	0	refrigerator	1300	96	0	stimuli\refrigerator\refrigerator_11s.jpg	10	-1	0	0	refrigerator_11s.jpg	0	0	0	113.143061908137	113.193039965292	0.0499780571553856
137067	50	97	0	0	spaghetti	1503	97	0	stimuli\spaghetti\spaghetti_12s.jpg	11	-1	0	0	spaghetti_12s.jpg	0	0	0	113.243067028176	113.293045085273	0.049978057097178
137167	50	98	0	0	sonogram	1496	98	0	stimuli\sonogram\sonogram_10s.jpg	9	-1	0	0	sonogram_10s.jpg	0	0	0	113.343069466238	113.393051180523	0.0499817142845131
137267	50	99	0	0	scoop	1381	99	0	stimuli\scoop\scoop_08s.jpg	7	-1	0	0	scoop_08s.jpg	0	0	0	113.443070929148	113.49305044912	0.049979519972112
137367	50	100	0	0	cot	420	100	0	stimuli\cot\cot_02s.jpg	1	-1	0	0	cot_02s.jpg	0	0	0	113.543071660562	113.593053618621	0.0499819580581971
137467	50	101	0	0	scanner	1375	101	0	stimuli\scanner\scanner_07s.jpg	6	-1	0	0	scanner_07s.jpg	0	0	0	113.6430755615	113.693056300515	0.0499807390151545
137567	50	102	0	0	face_mask	570	102	0	stimuli\face_mask\face_mask_05s.jpg	4	-1	0	0	face_mask_05s.jpg	0	0	0	113.743076536746	113.793056788156	0.0499802514095791
137667	50	103	0	0	apple_tree	31	103	0	stimuli\apple_tree\apple_tree_08s.jpg	7	-1	0	0	apple_tree_08s.jpg	0	0	0	113.843079706246	113.893062639574	0.0499829333275557
137767	50	104	0	0	steering_wheel	1546	104	0	stimuli\steering_wheel\steering_wheel_01b.jpg	0	-1	0	0	steering_wheel_01b.jpg	0	0	0	113.943080681493	113.993063371046	0.0499826895538718
137867	50	105	0	0	awning	44	105	0	stimuli\awning\awning_05s.jpg	4	-1	0	0	awning_05s.jpg	0	0	0	114.043084582489	114.093067515758	0.049982933269348
137967	50	106	0	0	ice	816	106	0	stimuli\ice\ice_07s.jpg	6	-1	0	0	ice_07s.jpg	0	0	0	114.143066296761	114.193068491004	0.0500021942425519
138067	50	107	0	0	jetski	848	107	0	stimuli\jetski\jetski_08s.jpg	7	-1	0	0	jetski_08s.jpg	0	0	0	114.24309019011	114.293073611043	0.0499834209331311
138167	50	108	0	0	pasta	1123	108	0	stimuli\pasta\pasta_12s.jpg	11	-1	0	0	pasta_12s.jpg	0	0	0	114.34310189297	114.3930755615	0.0499736685305834
138267	50	109	0	0	cart	278	109	0	stimuli\cart\cart_10s.jpg	9	-1	0	0	cart_10s.jpg	0	0	0	114.443096772942	114.493077268184	0.0499804952414706
138367	50	110	0	0	lampshade	893	110	0	stimuli\lampshade\lampshade_08s.jpg	7	-1	0	0	lampshade_08s.jpg	0	0	0	114.543097016751	114.593079462473	0.0499824457219802
138467	50	111	0	0	charger	308	111	0	stimuli\charger\charger_01b.jpg	0	-1	0	0	charger_01b.jpg	0	0	0	114.64309921104	114.693079706281	0.0499804952414706
138567	50	112	0	0	firecracker	594	112	0	stimuli\firecracker\firecracker_01b.jpg	0	-1	0	0	firecracker_01b.jpg	0	0	0	114.743104818685	114.793083607219	0.049978788534645
138667	50	113	0	0	ambulance	19	113	0	stimuli\ambulance\ambulance_02s.jpg	1	-1	0	0	ambulance_02s.jpg	0	0	0	114.843107500579	114.893087020551	0.049979519972112
138767	50	114	0	0	bazooka	98	114	0	stimuli\bazooka\bazooka_04s.jpg	3	-1	0	0	bazooka_04s.jpg	0	0	0	114.943109451036	114.993090433883	0.0499809828470461
138867	50	115	0	0	snowmobile	1483	115	0	stimuli\snowmobile\snowmobile_05s.jpg	4	-1	0	0	snowmobile_05s.jpg	0	0	0	115.043112620595	115.09309140913	0.049978788534645
138967	50	116	0	0	baseball_glove	80	116	0	stimuli\baseball_glove\baseball_glove_05s.jpg	4	-1	0	0	baseball_glove_05s.jpg	0	0	0	115.143114814884	115.193094334856	0.049979519972112
139067	50	117	0	0	stingray	1556	117	0	stimuli\stingray\stingray_10s.jpg	9	-1	0	0	stingray_10s.jpg	0	0	0	115.243121885345	115.293098235794	0.04997635044856
139167	50	118	0	0	roll	1323	118	0	stimuli\roll\roll_05s.jpg	4	-1	0	1	roll_05s.jpg	0	0	0	115.34311895963	115.393100917689	0.0499819580581971
139267	50	119	0	0	football_helmet	630	119	0	stimuli\football_helmet\football_helmet_01b.jpg	0	-1	0	0	football_helmet_01b.jpg	0	0	0	115.443121397751	115.493102624372	0.04998122662073
139367	50	120	0	0	camera1	246	120	0	stimuli\camera1\camera1_06s.jpg	5	-1	0	0	camera1_06s.jpg	0	0	0	115.543128955818	115.593114814837	0.0499858590192162
139467	50	121	0	0	alpaca	15	121	0	stimuli\alpaca\alpaca_04s.jpg	3	-1	0	0	alpaca_04s.jpg	0	0	0	115.643128712021	115.693107500556	0.049978788534645
139567	50	122	0	0	rat	1285	122	0	stimuli\rat\rat_11s.jpg	10	-1	0	0	rat_11s.jpg	0	0	0	115.743132125353	115.793113595806	0.0499814704526216
139667	50	123	0	0	noodle	1061	123	0	stimuli\noodle\noodle_06s.jpg	5	-1	0	0	noodle_06s.jpg	0	0	0	115.843133832037	115.893114814884	0.0499809828470461
139767	50	124	0	0	belt_buckle	119	124	0	stimuli\belt_buckle\belt_buckle_03s.jpg	2	-1	0	0	belt_buckle_03s.jpg	0	0	0	115.943137732975	115.993119691033	0.0499819580581971
139867	50	125	0	0	baseball	78	125	0	stimuli\baseball\baseball_01b.jpg	0	-1	0	0	baseball_01b.jpg	0	0	0	116.043138464389	116.093121641548	0.0499831771594472
139967	50	126	0	0	necklace	1054	126	0	stimuli\necklace\necklace_02s.jpg	1	-1	0	0	necklace_02s.jpg	0	0	0	116.143142609159	116.193125786318	0.0499831771594472
140067	50	127	0	0	strainer	1566	127	0	stimuli\strainer\strainer_09s.jpg	8	-1	0	0	strainer_09s.jpg	0	0	0	116.243146266323	116.29312432342	0.049978057097178
140167	50	128	0	0	aluminum_foil	17	128	0	stimuli\aluminum_foil\aluminum_foil_04s.jpg	3	-1	0	0	aluminum_foil_04s.jpg	0	0	0	116.343148704385	116.393131637713	0.0499829333275557
140267	50	129	0	0	chariot	309	129	0	stimuli\chariot\chariot_12s.jpg	11	-1	0	0	chariot_12s.jpg	0	0	0	116.443155531073	116.493131881522	0.04997635044856
140367	50	130	0	0	clipper2	357	130	0	stimuli\clipper2\clipper2_10s.jpg	9	-1	0	0	clipper2_10s.jpg	0	0	0	116.543152605358	116.593138464377	0.0499858590192162
140467	50	131	0	0	slime	1465	131	0	stimuli\slime\slime_10s.jpg	9	-1	0	0	slime_10s.jpg	0	0	0	116.643154312042	116.693136026326	0.0499817142845131
140567	50	132	0	0	letter_opener	919	132	0	stimuli\letter_opener\letter_opener_09s.jpg	8	-1	0	0	letter_opener_09s.jpg	0	0	0	116.743137001526	116.79314236535	0.0500053638243116
140667	50	133	0	0	hash	756	133	0	stimuli\hash\hash_09s.jpg	8	-1	0	0	hash_09s.jpg	0	0	0	116.843166990147	116.893145534908	0.0499785447609611
140767	50	134	0	0	dandelion	472	134	0	stimuli\dandelion\dandelion_01s.jpg	0	-1	0	0	dandelion_01s.jpg	0	0	0	116.943165039644	116.993143340573	0.0499783009290695
140867	50	135	0	0	bison	134	135	0	stimuli\bison\bison_08s.jpg	7	-1	0	0	bison_08s.jpg	0	0	0	117.043165771058	117.093146022526	0.0499802514677867
140967	50	136	0	0	bagpipe	56	136	0	stimuli\bagpipe\bagpipe_04s.jpg	3	-1	0	0	bagpipe_04s.jpg	0	0	0	117.143167233968	117.193151386338	0.0499841523705982
141067	50	137	0	0	veil	1755	137	0	stimuli\veil\veil_07s.jpg	6	-1	0	0	veil_07s.jpg	0	0	0	117.243170159636	117.293151873921	0.0499817142845131
141167	50	138	0	0	computer	394	138	0	stimuli\computer\computer_04s.jpg	3	-1	0	0	computer_04s.jpg	0	0	0	117.343172841589	117.393153824436	0.0499809828470461
141267	50	139	0	0	duckling	526	139	0	stimuli\duckling\duckling_09s.jpg	8	-1	0	0	duckling_09s.jpg	0	0	0	117.443180643488	117.493156262499	0.0499756190110929
141367	50	140	0	0	moth	1023	140	0	stimuli\moth\moth_05n.jpg	4	-1	0	0	moth_05n.jpg	0	0	0	117.543180155859	117.59315870062	0.0499785447609611
141467	50	141	0	0	axe	45	141	0	stimuli\axe\axe_03n.jpg	2	-1	0	0	axe_03n.jpg	0	0	0	117.643186251109	117.693162357726	0.0499761066166684
141567	50	142	0	0	canister	259	142	0	stimuli\canister\canister_12s.jpg	11	-1	0	0	canister_12s.jpg	0	0	0	117.743188933004	117.793165771058	0.0499768380541354
141667	50	143	0	0	cooker	399	143	0	stimuli\cooker\cooker_03s.jpg	2	-1	0	0	cooker_03s.jpg	0	0	0	117.84319185873	117.893169672054	0.049977813323494
141767	50	144	0	0	button1	230	144	0	stimuli\button1\button1_03s.jpg	2	-1	0	0	button1_03s.jpg	0	0	0	117.943188933015	117.99317259778	0.0499836647650227
141867	50	145	0	0	spoon	1519	145	0	stimuli\spoon\spoon_12s.jpg	11	-1	0	0	spoon_12s.jpg	0	0	0	118.043198685395	118.093176498718	0.049977813323494
141967	50	146	0	0	chocolate	338	146	0	stimuli\chocolate\chocolate_09s.jpg	8	-1	0	0	chocolate_09s.jpg	0	0	0	118.143198685371	118.19318747014	0.0499887847690843
142067	50	147	0	0	banjo	68	147	0	stimuli\banjo\banjo_09s.jpg	8	-1	0	0	banjo_09s.jpg	0	0	0	118.243198441574	118.293177961546	0.049979519972112
142167	50	148	0	0	rollerblade	1326	148	0	stimuli\rollerblade\rollerblade_01b.jpg	0	-1	0	0	rollerblade_01b.jpg	0	0	0	118.343202098738	118.393183325359	0.04998122662073
142267	50	149	0	0	syringe	1604	149	0	stimuli\syringe\syringe_04s.jpg	3	-1	0	0	syringe_04s.jpg	0	0	0	118.443218433997	118.493189420609	0.0499709866126068
142367	50	150	0	0	hedgehog	774	150	0	stimuli\hedgehog\hedgehog_06s.jpg	5	-1	0	0	hedgehog_06s.jpg	0	0	0	118.543210875883	118.59318990825	0.0499790323665366
142467	50	151	0	0	cucumber	457	151	0	stimuli\cucumber\cucumber_01b.jpg	0	-1	0	0	cucumber_01b.jpg	0	0	0	118.64321282634	118.69318844541	0.0499756190693006
142567	50	152	0	0	cornbread	413	152	0	stimuli\cornbread\cornbread_03s.jpg	2	-1	0	0	cornbread_03s.jpg	0	0	0	118.7432113635	118.793192833953	0.0499814704526216
142667	50	153	0	0	cornucopia	416	153	0	stimuli\cornucopia\cornucopia_10s.jpg	9	-1	0	0	cornucopia_10s.jpg	0	0	0	118.843216483481	118.893199416809	0.0499829333275557
142767	50	154	0	0	red_carpet	1298	154	0	stimuli\red_carpet\red_carpet_07s.jpg	6	-1	0	0	red_carpet_07s.jpg	0	0	0	118.943218921602	118.993199173012	0.0499802514095791
142867	50	155	0	0	overalls	1090	155	0	stimuli\overalls\overalls_09s.jpg	8	-1	0	0	overalls_09s.jpg	0	0	0	119.043218433973	119.093201854907	0.0499834209331311
142967	50	156	0	0	doily	498	156	0	stimuli\doily\doily_03s.jpg	2	-1	0	0	doily_03s.jpg	0	0	0	119.143221847306	119.193202586321	0.0499807390151545
143067	50	157	0	0	go-kart	682	157	0	stimuli\go-kart\go-kart_03s.jpg	2	-1	0	0	go-kart_03s.jpg	0	0	0	119.243226723513	119.293206487317	0.0499797638040036
143167	50	158	0	0	curry	464	158	0	stimuli\curry\curry_01b.jpg	0	-1	0	0	curry_01b.jpg	0	0	0	119.343224773009	119.393208925379	0.0499841523705982
143267	50	159	0	0	tostada	1688	159	0	stimuli\tostada\tostada_08s.jpg	7	-1	0	0	tostada_08s.jpg	0	0	0	119.443229893048	119.4932113635	0.0499814704526216
143367	50	160	0	0	stomach	1560	160	0	stimuli\stomach\stomach_01b.jpg	0	-1	0	0	stomach_01b.jpg	0	0	0	119.543233062548	119.593216971145	0.0499839085969143
143467	50	161	0	0	accordion	2	161	0	stimuli\accordion\accordion_10s.jpg	9	-1	0	0	accordion_10s.jpg	0	0	0	119.643238913966	119.69321672729	0.049977813323494
143567	50	162	0	0	radiator	1272	162	0	stimuli\radiator\radiator_07s.jpg	6	-1	0	0	radiator_07s.jpg	0	0	0	119.743240864482	119.793224285415	0.0499834209331311
143667	50	163	0	0	cage	236	163	0	stimuli\cage\cage_04s.jpg	3	-1	0	0	cage_04s.jpg	0	0	0	119.843243790208	119.893225260661	0.0499814704526216
143767	50	164	0	0	tapestry	1625	164	0	stimuli\tapestry\tapestry_01b.jpg	0	-1	0	0	tapestry_01b.jpg	0	0	0	119.943242571142	119.993223553989	0.0499809828470461
143867	50	165	0	0	sifter	1443	165	0	stimuli\sifter\sifter_01b.jpg	0	-1	0	0	sifter_01b.jpg	0	0	0	120.043248666392	120.093227211095	0.0499785447027534
143967	50	166	0	0	piglet	1173	166	0	stimuli\piglet\piglet_07s.jpg	6	-1	0	0	piglet_07s.jpg	0	0	0	120.143253542541	120.193231599696	0.0499780571553856
144067	50	167	0	0	drawer	516	167	0	stimuli\drawer\drawer_04s.jpg	3	-1	0	0	drawer_04s.jpg	0	0	0	120.243255493056	120.293232574943	0.049977081886027
144167	50	168	0	0	frog	644	168	0	stimuli\frog\frog_10s.jpg	9	-1	0	0	frog_10s.jpg	0	0	0	120.343256224471	120.393236963486	0.0499807390151545
144267	50	169	0	0	dart	473	169	0	stimuli\dart\dart_03s.jpg	2	-1	0	0	dart_03s.jpg	0	0	0	120.443257931154	120.493238670169	0.0499807390151545
144367	50	170	0	0	seismograph	1403	170	0	stimuli\seismograph\seismograph_03s.jpg	2	-1	0	0	seismograph_03s.jpg	0	0	0	120.543264757784	120.593244277814	0.0499795200303197
144467	50	171	0	0	jewel	849	171	0	stimuli\jewel\jewel_07s.jpg	6	-1	0	0	jewel_07s.jpg	0	0	0	120.643264026381	120.693244034017	0.0499800076358952
144568	50	172	0	0	windowsill	1819	172	0	stimuli\windowsill\windowsill_08s.jpg	7	-1	0	0	windowsill_08s.jpg	0	0	0	120.743275729241	120.793249153998	0.0499734247568995
144667	50	173	0	0	beer	113	173	0	stimuli\beer\beer_02s.jpg	1	-1	0	0	beer_02s.jpg	0	0	0	120.843235500623	120.893227698747	0.0499921981245279
144767	50	174	0	0	garter	659	174	0	stimuli\garter\garter_04s.jpg	3	-1	0	0	garter_04s.jpg	0	0	0	120.943269633979	120.993251348264	0.0499817142845131
144867	50	175	0	0	jeep	843	175	0	stimuli\jeep\jeep_11s.jpg	10	-1	0	0	jeep_11s.jpg	0	0	0	121.043290845468	121.093253786385	0.0499629409168847
144968	50	176	0	0	fishhook	602	176	0	stimuli\fishhook\fishhook_12s.jpg	11	-1	0	0	fishhook_12s.jpg	0	0	0	121.143278898788	121.193258906365	0.0499800075776875
145067	50	177	0	0	pinball	1178	177	0	stimuli\pinball\pinball_04s.jpg	3	-1	0	0	pinball_04s.jpg	0	0	0	121.243277679721	121.293266220659	0.0499885409371927
145168	50	178	0	0	waffle_iron	1771	178	0	stimuli\waffle_iron\waffle_iron_02s.jpg	1	-1	0	0	waffle_iron_02s.jpg	0	0	0	121.343287432101	121.393261100689	0.049973668588791
145268	50	179	0	0	fire	590	179	0	stimuli\fire\fire_11s.jpg	10	-1	0	0	fire_11s.jpg	0	0	0	121.443285969261	121.493264026358	0.049978057097178
145368	50	180	0	0	ivy	834	180	0	stimuli\ivy\ivy_12s.jpg	11	-1	0	0	ivy_12s.jpg	0	0	0	121.543286944507	121.593268414959	0.0499814704526216
145468	50	181	0	0	scissors	1379	181	0	stimuli\scissors\scissors_06s.jpg	5	-1	0	0	scissors_06s.jpg	0	0	0	121.64329133305	121.693274753983	0.0499834209331311
145568	50	182	0	0	cake	237	182	0	stimuli\cake\cake_05s.jpg	4	-1	0	0	cake_05s.jpg	0	0	0	121.743293527339	121.793272803538	0.0499792761984281
145668	50	183	0	0	lamb_chop	890	183	0	stimuli\lamb_chop\lamb_chop_02s.jpg	1	-1	0	0	lamb_chop_02s.jpg	0	0	0	121.843296209234	121.893281580706	0.0499853714718483
145767	50	184	0	0	beaver	107	184	0	stimuli\beaver\beaver_08s.jpg	7	-1	0	0	beaver_08s.jpg	0	0	0	121.943275973084	121.993284018768	0.0500080456840806
145868	50	185	0	0	trapdoor	1703	185	0	stimuli\trapdoor\trapdoor_01b.jpg	0	-1	0	0	trapdoor_01b.jpg	0	0	0	122.043298891163	122.093280361616	0.0499814704526216
145968	50	186	0	0	weed	1802	186	0	stimuli\weed\weed_10s.jpg	9	-1	0	0	weed_10s.jpg	0	0	0	122.143303035933	122.193283774948	0.0499807390151545
146068	50	187	0	0	trigger	1713	187	0	stimuli\trigger\trigger_07s.jpg	6	-1	0	0	trigger_07s.jpg	0	0	0	122.243306936871	122.293286944507	0.0499800076358952
146168	50	188	0	0	tack	1611	188	0	stimuli\tack\tack_06s.jpg	5	-1	0	0	tack_06s.jpg	0	0	0	122.343313519727	122.393290845444	0.0499773257179186
146268	50	189	0	0	bagel	55	189	0	stimuli\bagel\bagel_08s.jpg	7	-1	0	0	bagel_08s.jpg	0	0	0	122.443311813055	122.493293039734	0.0499812266789377
146368	50	190	0	0	sailboat	1347	190	0	stimuli\sailboat\sailboat_09s.jpg	8	-1	0	0	sailboat_09s.jpg	0	0	0	122.543315226387	122.593295721628	0.0499804952414706
146468	50	191	0	0	gavel	665	191	0	stimuli\gavel\gavel_01b.jpg	0	-1	0	0	gavel_01b.jpg	0	0	0	122.64331693307	122.693298159749	0.0499812266789377
146568	50	192	0	0	horn	797	192	0	stimuli\horn\horn_10s.jpg	9	-1	0	0	horn_10s.jpg	0	0	0	122.743318883586	122.793304742605	0.0499858590192162
146668	50	193	0	0	cash_register	280	193	0	stimuli\cash_register\cash_register_09s.jpg	8	-1	0	0	cash_register_09s.jpg	0	0	0	122.843326441653	122.893306205457	0.0499797638040036
146768	50	194	0	0	ukulele	1742	194	0	stimuli\ukulele\ukulele_10s.jpg	9	-1	0	0	ukulele_10s.jpg	0	0	0	122.943327660731	122.993304742617	0.049977081886027
146868	50	195	0	0	cinnamon	348	195	0	stimuli\cinnamon\cinnamon_09s.jpg	8	-1	0	0	cinnamon_09s.jpg	0	0	0	123.04332692927	123.093308643554	0.0499817142845131
146968	50	196	0	0	grass	705	196	0	stimuli\grass\grass_03s.jpg	2	-1	0	0	grass_03s.jpg	0	0	0	123.143333512126	123.193318883539	0.0499853714136407
147068	50	197	0	0	radar	1271	197	0	stimuli\radar\radar_11s.jpg	10	-1	0	0	radar_11s.jpg	0	0	0	123.24333716929	123.293317176867	0.0499800075776875
147168	50	198	0	0	manatee	964	198	0	stimuli\manatee\manatee_08n.jpg	7	-1	0	0	manatee_08n.jpg	0	0	0	123.343340095016	123.393320346426	0.0499802514095791
147268	50	199	0	0	incense	826	199	0	stimuli\incense\incense_08s.jpg	7	-1	0	0	incense_08s.jpg	0	0	0	123.443342045473	123.49332668545	0.0499846399761736
147368	50	200	0	0	wrapping_paper	1838	200	0	stimuli\wrapping_paper\wrapping_paper_02s.jpg	1	-1	0	0	wrapping_paper_02s.jpg	0	0	0	123.543346677849	123.593329855008	0.0499831771594472
147468	50	201	0	0	napkin_ring	1051	201	0	stimuli\napkin_ring\napkin_ring_06s.jpg	5	-1	0	0	napkin_ring_06s.jpg	0	0	0	123.643351310224	123.693332780735	0.0499814705108292
147568	50	202	0	0	bow3	176	202	0	stimuli\bow3\bow3_04s.jpg	3	-1	0	1	bow3_04s.jpg	0	0	0	123.743353504513	123.793330586399	0.049977081886027
147668	50	203	0	0	tinsel	1662	203	0	stimuli\tinsel\tinsel_08s.jpg	7	-1	0	0	tinsel_08s.jpg	0	0	0	123.843352285505	123.893337900692	0.0499856151873246
147768	50	204	0	0	coral	406	204	0	stimuli\coral\coral_12s.jpg	11	-1	0	0	coral_12s.jpg	0	0	0	123.943355942611	123.993335706415	0.0499797638040036
147868	50	205	0	0	marble	972	205	0	stimuli\marble\marble_06s.jpg	5	-1	0	0	marble_06s.jpg	0	0	0	124.043363744568	124.093340826454	0.049977081886027
147968	50	206	0	0	bathtub	91	206	0	stimuli\bathtub\bathtub_12s.jpg	11	-1	0	0	bathtub_12s.jpg	0	0	0	124.143364963587	124.193343508348	0.0499785447609611
148068	50	207	0	0	leash	907	207	0	stimuli\leash\leash_09s.jpg	8	-1	0	0	leash_09s.jpg	0	0	0	124.243366914045	124.293348872161	0.0499819581164047
148168	50	208	0	0	crystal2	454	208	0	stimuli\crystal2\crystal2_09s.jpg	8	-1	0	0	crystal2_09s.jpg	0	0	0	124.343369352166	124.393353260704	0.0499839085387066
148268	50	209	0	0	pocket	1205	209	0	stimuli\pocket\pocket_07s.jpg	6	-1	0	0	pocket_07s.jpg	0	0	0	124.443370571185	124.493362281704	0.0499917105189525
148368	50	210	0	0	deodorant	479	210	0	stimuli\deodorant\deodorant_05s.jpg	4	-1	0	0	deodorant_05s.jpg	0	0	0	124.54332692927	124.593352529278	0.0500256000086665
148468	50	211	0	0	leggings	912	211	0	stimuli\leggings\leggings_05s.jpg	4	-1	0	0	leggings_05s.jpg	0	0	0	124.64338227408	124.69335691788	0.049974643799942
148568	50	212	0	0	clipboard	355	212	0	stimuli\clipboard\clipboard_04s.jpg	3	-1	0	0	clipboard_04s.jpg	0	0	0	124.743377641717	124.793359843607	0.0499822018900886
148668	50	213	0	0	rollerskate	1327	213	0	stimuli\rollerskate\rollerskate_11s.jpg	10	-1	0	0	rollerskate_11s.jpg	0	0	0	124.843385199783	124.893362525501	0.0499773257179186
148768	50	214	0	0	nail_polish	1049	214	0	stimuli\nail_polish\nail_polish_12s.jpg	11	-1	0	0	nail_polish_12s.jpg	0	0	0	124.943383980717	124.993363744521	0.0499797638040036
148868	50	215	0	0	router	1336	215	0	stimuli\router\router_10s.jpg	9	-1	0	0	router_10s.jpg	0	0	0	125.04338934453	125.09336593881	0.0499765942804515
148968	50	216	0	0	gorilla	695	216	0	stimuli\gorilla\gorilla_03s.jpg	2	-1	0	0	gorilla_03s.jpg	0	0	0	125.14339836553	125.193372277892	0.0499739123624749
149068	50	217	0	0	chute	342	217	0	stimuli\chute\chute_08s.jpg	7	-1	0	0	chute_08s.jpg	0	0	0	125.243392757897	125.293372034095	0.0499792761984281
149168	50	218	0	0	closet	360	218	0	stimuli\closet\closet_08s.jpg	7	-1	0	0	closet_08s.jpg	0	0	0	125.343394708354	125.39337471599	0.0499800076358952
149268	50	219	0	0	banana_peel	64	219	0	stimuli\banana_peel\banana_peel_09s.jpg	8	-1	0	0	banana_peel_09s.jpg	0	0	0	125.443394708389	125.493377641717	0.0499829333275557
149368	50	220	0	0	rhubarb	1307	220	0	stimuli\rhubarb\rhubarb_10n.jpg	9	-1	0	0	rhubarb_10n.jpg	0	0	0	125.543398365495	125.593380323611	0.0499819581164047
149468	50	221	0	0	lion	933	221	0	stimuli\lion\lion_07s.jpg	6	-1	0	0	lion_07s.jpg	0	0	0	125.643400803616	125.693385443592	0.0499846399761736
149568	50	222	0	0	bed	108	222	0	stimuli\bed\bed_03s.jpg	2	-1	0	0	bed_03s.jpg	0	0	0	125.743404948385	125.79338861315	0.0499836647650227
149668	50	223	0	0	razor_blade	1291	223	0	stimuli\razor_blade\razor_blade_08s.jpg	7	-1	0	0	razor_blade_08s.jpg	0	0	0	125.843412506452	125.893388369295	0.0499758628429845
149768	50	224	0	0	underwear	1745	224	0	stimuli\underwear\underwear_02s.jpg	1	-1	0	0	underwear_02s.jpg	0	0	0	125.943409824569	125.993391051248	0.0499812266789377
149868	50	225	0	0	soap	1487	225	0	stimuli\soap\soap_01b.jpg	0	-1	0	0	soap_01b.jpg	0	0	0	126.043413725507	126.093393976917	0.0499802514095791
149968	50	226	0	0	lumber	949	226	0	stimuli\lumber\lumber_06s.jpg	5	-1	0	0	lumber_06s.jpg	0	0	0	126.143410799792	126.193393245514	0.0499824457219802
150068	50	227	0	0	shelf	1416	227	0	stimuli\shelf\shelf_05s.jpg	4	-1	0	0	shelf_05s.jpg	0	0	0	126.243398121675	126.293410068378	0.0500119467033073
150168	50	228	0	0	frame	639	228	0	stimuli\frame\frame_04s.jpg	3	-1	0	0	frame_04s.jpg	0	0	0	126.343432986469	126.393409580749	0.0499765942804515
150268	50	229	0	0	bee	111	229	0	stimuli\bee\bee_06s.jpg	5	-1	0	0	bee_06s.jpg	0	0	0	126.443435180758	126.493397634069	0.0499624533113092
150368	50	230	0	0	bulletin_board	217	230	0	stimuli\bulletin_board\bulletin_board_07s.jpg	6	-1	0	0	bulletin_board_07s.jpg	0	0	0	126.54344054457	126.593421771249	0.0499812266789377
150468	50	231	0	0	flour	618	231	0	stimuli\flour\flour_09s.jpg	8	-1	0	0	flour_09s.jpg	0	0	0	126.643439569336	126.69342494075	0.0499853714136407
150568	50	232	0	0	dashboard	475	232	0	stimuli\dashboard\dashboard_06s.jpg	5	-1	0	0	dashboard_06s.jpg	0	0	0	126.743441763625	126.793407874065	0.0499661104404368
150668	50	233	0	0	garbage	655	233	0	stimuli\garbage\garbage_11s.jpg	10	-1	0	0	garbage_11s.jpg	0	0	0	126.843438106473	126.893414944585	0.0499768381123431
150768	50	234	0	0	crown	448	234	0	stimuli\crown\crown_11s.jpg	10	-1	0	0	crown_11s.jpg	0	0	0	126.943436643633	126.99341762648	0.0499809828470461
150868	50	235	0	0	calamari	239	235	0	stimuli\calamari\calamari_02s.jpg	1	-1	0	0	calamari_02s.jpg	0	0	0	127.043446883617	127.093422502687	0.0499756190693006
150968	50	236	0	0	combination_lock	390	236	0	stimuli\combination_lock\combination_lock_09s.jpg	8	-1	0	0	combination_lock_09s.jpg	0	0	0	127.1434210398	127.193428110273	0.0500070704729296
151068	50	237	0	0	shrimp	1438	237	0	stimuli\shrimp\shrimp_09n.jpg	8	-1	0	0	shrimp_09n.jpg	0	0	0	127.243447858898	127.293425184558	0.0499773256597109
151168	50	238	0	0	pothole	1233	238	0	stimuli\pothole\pothole_10n.jpg	9	-1	0	0	pothole_10n.jpg	0	0	0	127.343449077918	127.393432011246	0.0499829333275557
151268	50	239	0	0	chive	337	239	0	stimuli\chive\chive_02s.jpg	1	-1	0	0	chive_02s.jpg	0	0	0	127.443451028375	127.493433474097	0.0499824457219802
151368	50	240	0	0	slot_machine	1470	240	0	stimuli\slot_machine\slot_machine_09s.jpg	8	-1	0	0	slot_machine_09s.jpg	0	0	0	127.543454685539	127.593432986469	0.0499783009290695
151468	50	241	0	0	trampoline	1701	241	0	stimuli\trampoline\trampoline_05s.jpg	4	-1	0	0	trampoline_05s.jpg	0	0	0	127.643457855098	127.693436643633	0.049978788534645
151568	50	242	0	0	bumper	219	242	0	stimuli\bumper\bumper_05s.jpg	4	-1	0	0	bumper_05s.jpg	0	0	0	127.743461756036	127.793440056965	0.0499783009290695
151668	50	243	0	0	doorstop	512	243	0	stimuli\doorstop\doorstop_05s.jpg	4	-1	0	0	doorstop_05s.jpg	0	0	0	127.843464681762	127.893441519816	0.0499768380541354
151768	50	244	0	0	furnace	651	244	0	stimuli\furnace\furnace_11s.jpg	10	-1	0	0	furnace_11s.jpg	0	0	0	127.943464681739	127.993445908418	0.0499812266789377
151868	50	245	0	0	ham	739	245	0	stimuli\ham\ham_10s.jpg	9	-1	0	0	ham_10s.jpg	0	0	0	128.043466876028	128.093459561758	0.0499926857301034
151968	50	246	0	0	amber	18	246	0	stimuli\amber\amber_06s.jpg	5	-1	0	1	amber_06s.jpg	0	0	0	128.143475653196	128.193453710293	0.049978057097178
152068	50	247	0	0	chaps	306	247	0	stimuli\chaps\chaps_11s.jpg	10	-1	0	0	chaps_11s.jpg	0	0	0	128.243471264606	128.293458342669	0.0499870780622587
152168	50	248	0	0	hat	757	248	0	stimuli\hat\hat_01b.jpg	0	-1	0	0	hat_01b.jpg	0	0	0	128.343477847462	128.393458586477	0.0499807390151545
152268	50	249	0	0	coleslaw	386	249	0	stimuli\coleslaw\coleslaw_10s.jpg	9	-1	0	0	coleslaw_10s.jpg	0	0	0	128.443491744634	128.49345834268	0.0499665980460122
152368	50	250	0	0	cymbal	468	250	0	stimuli\cymbal\cymbal_10s.jpg	9	-1	0	0	cymbal_10s.jpg	1	0.392256604798604	1	128.543479554122	128.593459805532	0.0499802514095791
152468	50	251	0	0	ladder	886	251	0	stimuli\ladder\ladder_04s.jpg	3	-1	0	0	ladder_04s.jpg	0	0	0	128.643490281771	128.693437131238	0.0499468494672328
152568	50	252	0	0	whale	1804	252	0	stimuli\whale\whale_01b.jpg	0	-1	0	0	whale_01b.jpg	0	0	0	128.743488331267	128.793470533157	0.0499822018900886
152668	50	253	0	0	revolving_door	1305	253	0	stimuli\revolving_door\revolving_door_09s.jpg	8	-1	0	0	revolving_door_09s.jpg	0	0	0	128.843491988431	128.89347028936	0.0499783009290695
152768	50	254	0	0	tablet	1610	254	0	stimuli\tablet\tablet_10s.jpg	9	-1	0	0	tablet_10s.jpg	0	0	0	128.943490281759	128.99347638461	0.0499861028511077
152868	50	255	0	0	drain	515	255	0	stimuli\drain\drain_03s.jpg	2	-1	0	0	drain_03s.jpg	0	0	0	129.04350027797	129.093465169368	0.0499648913973942
152968	50	256	0	0	pantsuit	1109	256	0	stimuli\pantsuit\pantsuit_04s.jpg	3	-1	0	0	pantsuit_04s.jpg	0	0	0	129.143497596029	129.193485405587	0.0499878095579334
153068	50	257	0	0	goldfish	688	257	0	stimuli\goldfish\goldfish_09s.jpg	8	-1	0	0	goldfish_09s.jpg	0	0	0	129.243497596064	129.293481992208	0.0499843961442821
153168	50	258	0	0	game	654	258	0	stimuli\game\game_09s.jpg	8	-1	0	0	game_09s.jpg	0	0	0	129.343514662702	129.39348345506	0.0499687923584133
153268	50	259	0	0	hot-water_bottle	802	259	0	stimuli\hot-water_bottle\hot-water_bottle_03s.jpg	2	-1	0	0	hot-water_bottle_03s.jpg	0	0	0	129.443503691291	129.493484186532	0.0499804952414706
153368	50	260	0	0	lollipop	945	260	0	stimuli\lollipop\lollipop_02s.jpg	1	-1	0	0	lollipop_02s.jpg	0	0	0	129.543508079892	129.593488818908	0.0499807390151545
153468	50	261	0	0	wheelchair	1808	261	0	stimuli\wheelchair\wheelchair_06s.jpg	5	-1	0	0	wheelchair_06s.jpg	0	0	0	129.643510761787	129.693493695115	0.0499829333275557
153568	50	262	0	0	cracker	429	262	0	stimuli\cracker\cracker_12s.jpg	11	-1	0	0	cracker_12s.jpg	0	0	0	129.743520514166	129.79349540174	0.0499748875736259
153668	50	263	0	0	salami	1349	263	0	stimuli\salami\salami_09s.jpg	8	-1	0	0	salami_09s.jpg	0	0	0	129.843515150365	129.89350149699	0.0499863466247916
153768	50	264	0	0	cabinet	233	264	0	stimuli\cabinet\cabinet_12s.jpg	11	-1	0	0	cabinet_12s.jpg	0	0	0	129.943522952264	129.993501740799	0.049978788534645
153868	50	265	0	0	spam	1504	265	0	stimuli\spam\spam_01b.jpg	0	-1	0	0	spam_01b.jpg	0	0	0	130.043523439846	130.093505641795	0.0499822019482963
153968	50	266	0	0	chinchilla	332	266	0	stimuli\chinchilla\chinchilla_01b.jpg	0	-1	0	0	chinchilla_01b.jpg	0	0	0	130.14352807228	130.193505154166	0.049977081886027
154068	50	267	0	0	stirrup	1558	267	0	stimuli\stirrup\stirrup_03s.jpg	2	-1	0	0	stirrup_03s.jpg	0	0	0	130.243527828425	130.293507836061	0.0499800076358952
154168	50	268	0	0	playpen	1200	268	0	stimuli\playpen\playpen_10s.jpg	9	-1	0	0	playpen_10s.jpg	0	0	0	130.343528072233	130.39351198083	0.0499839085969143
154268	50	269	0	0	whoopee_cushion	1814	269	0	stimuli\whoopee_cushion\whoopee_cushion_05s.jpg	4	-1	0	0	whoopee_cushion_05s.jpg	0	0	0	130.44353392371	130.493513931287	0.0499800075776875
154368	50	270	0	0	blueberry	149	270	0	stimuli\blueberry\blueberry_11n.jpg	10	-1	0	0	blueberry_11n.jpg	0	0	0	130.543532948475	130.59351368749	0.0499807390151545
154468	50	271	0	0	saddle	1343	271	0	stimuli\saddle\saddle_02s.jpg	1	-1	0	0	saddle_02s.jpg	0	0	0	130.643537580851	130.693519538909	0.0499819580581971
154568	50	272	0	0	duck	525	272	0	stimuli\duck\duck_05s.jpg	4	-1	0	0	duck_05s.jpg	0	0	0	130.743540750351	130.793527340807	0.0499865904566832
154668	50	273	0	0	sundial	1583	273	0	stimuli\sundial\sundial_12s.jpg	11	-1	0	1	sundial_12s.jpg	0	0	0	130.84354294464	130.893525634136	0.0499826894956641
154768	50	274	0	0	buffet	211	274	0	stimuli\buffet\buffet_05s.jpg	4	-1	0	0	buffet_05s.jpg	0	0	0	130.943554403726	130.993529778905	0.0499753751792014
154868	50	275	0	0	stir_fry	1557	275	0	stimuli\stir_fry\stir_fry_06s.jpg	5	-1	0	0	stir_fry_06s.jpg	0	0	0	131.043551234179	131.093533923675	0.0499826894956641
154968	50	276	0	0	crystal_ball	455	276	0	stimuli\crystal_ball\crystal_ball_06s.jpg	5	-1	0	0	crystal_ball_06s.jpg	0	0	0	131.143550502777	131.19353294844	0.0499824456637725
155068	50	277	0	0	corset	418	277	0	stimuli\corset\corset_08s.jpg	7	-1	0	0	corset_08s.jpg	0	0	0	131.243553916109	131.293537580816	0.049983664706815
155168	50	278	0	0	canoe	262	278	0	stimuli\canoe\canoe_12s.jpg	11	-1	0	0	canoe_12s.jpg	0	0	0	131.343555622734	131.393540262769	0.0499846400343813
155268	50	279	0	0	basketball	83	279	0	stimuli\basketball\basketball_04s.jpg	3	-1	0	0	basketball_04s.jpg	1	0.592215157172177	1	131.443563180859	131.493541237956	0.049978057097178
155368	50	280	0	0	extinguisher	563	280	0	stimuli\extinguisher\extinguisher_02s.jpg	1	-1	0	0	extinguisher_02s.jpg	0	0	0	131.543562205625	131.59354294464	0.0499807390151545
155468	50	281	0	0	staple	1537	281	0	stimuli\staple\staple_05s.jpg	4	-1	0	0	staple_05s.jpg	0	0	0	131.643565131351	131.693544895097	0.0499797637457959
155568	50	282	0	0	hanger	751	282	0	stimuli\hanger\hanger_04s.jpg	3	-1	0	0	hanger_04s.jpg	0	0	0	131.743566594203	131.793548796093	0.0499822018900886
155668	50	283	0	0	salad	1348	283	0	stimuli\salad\salad_06s.jpg	5	-1	0	0	salad_06s.jpg	0	0	0	131.843571958016	131.893556841824	0.0499848838080652
155768	50	284	0	0	fuse	652	284	0	stimuli\fuse\fuse_03s.jpg	2	-1	0	0	fuse_03s.jpg	0	0	0	131.943588293274	131.99355489132	0.0499665980460122
155868	50	285	0	0	spareribs	1505	285	0	stimuli\spareribs\spareribs_09s.jpg	8	-1	0	0	spareribs_09s.jpg	0	0	0	132.04357585893	132.09355806082	0.0499822018900886
155968	50	286	0	0	blender	138	286	0	stimuli\blender\blender_03s.jpg	2	-1	0	0	blender_03s.jpg	0	0	0	132.143590731372	132.193558304629	0.0499675732571632
156068	50	287	0	0	film	586	287	0	stimuli\film\film_06s.jpg	5	-1	0	0	film_06s.jpg	0	0	0	132.243580735172	132.293563912273	0.0499831771012396
156168	50	288	0	0	recorder	1297	288	0	stimuli\recorder\recorder_09s.jpg	8	-1	0	0	recorder_09s.jpg	0	0	0	132.343587074196	132.393563668476	0.0499765942804515
156268	50	289	0	0	wig	1816	289	0	stimuli\wig\wig_11s.jpg	10	-1	0	0	wig_11s.jpg	0	0	0	132.443589512317	132.493567081809	0.0499775694916025
156368	50	290	0	0	ribbon	1308	290	0	stimuli\ribbon\ribbon_12s.jpg	11	-1	0	0	ribbon_12s.jpg	0	0	0	132.543592925649	132.593572933227	0.0499800075776875
156468	50	291	0	0	watering_can	1792	291	0	stimuli\watering_can\watering_can_08s.jpg	7	-1	0	0	watering_can_08s.jpg	0	0	0	132.643593413231	132.693572201824	0.0499787885928527
156568	50	292	0	0	goose	693	292	0	stimuli\goose\goose_04s.jpg	3	-1	0	0	goose_04s.jpg	0	0	0	132.743597070395	132.793574396113	0.0499773257179186
156668	50	293	0	0	sushi	1588	293	0	stimuli\sushi\sushi_07s.jpg	6	-1	0	0	sushi_07s.jpg	0	0	0	132.843597558036	132.893596582755	0.0499990247189999
156768	50	294	0	0	spring_roll	1521	294	0	stimuli\spring_roll\spring_roll_12s.jpg	11	-1	0	0	spring_roll_12s.jpg	0	0	0	132.943605603708	132.993582441821	0.0499768381123431
156868	50	295	0	0	kayak	863	295	0	stimuli\kayak\kayak_11s.jpg	10	-1	0	0	kayak_11s.jpg	0	0	0	133.043606091349	133.093584879884	0.049978788534645
156968	50	296	0	0	handle	748	296	0	stimuli\handle\handle_03s.jpg	2	-1	0	0	handle_03s.jpg	0	0	0	133.143603409466	133.193586586567	0.0499831771012396
157068	50	297	0	0	candelabra	252	297	0	stimuli\candelabra\candelabra_08s.jpg	7	-1	0	0	candelabra_08s.jpg	0	0	0	133.243606091361	133.293587805645	0.0499817142845131
157168	50	298	0	0	rug	1340	298	0	stimuli\rug\rug_11s.jpg	10	-1	0	0	rug_11s.jpg	0	0	0	133.343611942779	133.393588049454	0.0499761066748761
157268	50	299	0	0	seesaw	1402	299	0	stimuli\seesaw\seesaw_02s.jpg	1	-1	0	0	seesaw_02s.jpg	0	0	0	133.443613893236	133.493593413266	0.0499795200303197
157368	50	300	0	0	streetlight	1571	300	0	stimuli\streetlight\streetlight_08s.jpg	7	-1	0	0	streetlight_08s.jpg	0	0	0	133.543616087525	133.593596338993	0.0499802514677867
157468	50	301	0	0	tongs	1674	301	0	stimuli\tongs\tongs_09s.jpg	8	-1	0	0	tongs_09s.jpg	0	0	0	133.643619988521	133.693618525635	0.0499985371134244
157568	50	302	0	0	candle	253	302	0	stimuli\candle\candle_08n.jpg	7	-1	0	0	candle_08n.jpg	0	0	0	133.743619500892	133.793610723747	0.0499912228551693
157668	50	303	0	0	racehorse	1267	303	0	stimuli\racehorse\racehorse_09s.jpg	8	-1	0	0	racehorse_09s.jpg	0	0	0	133.843621695181	133.893602190423	0.0499804952414706
157768	50	304	0	0	shoelace	1426	304	0	stimuli\shoelace\shoelace_06s.jpg	5	-1	0	0	shoelace_06s.jpg	0	0	0	133.943624864682	133.993605847529	0.0499809828470461
157868	50	305	0	0	palette	1100	305	0	stimuli\palette\palette_07s.jpg	6	-1	0	0	palette_07s.jpg	0	0	0	134.043632178975	134.093609748525	0.0499775695498101
157968	50	306	0	0	gravel	709	306	0	stimuli\gravel\gravel_06s.jpg	5	-1	0	0	gravel_06s.jpg	0	0	0	134.143639493268	134.1936143809	0.0499748876318336
158068	50	307	0	0	caramel	270	307	0	stimuli\caramel\caramel_11s.jpg	10	-1	0	0	caramel_11s.jpg	0	0	0	134.243634860904	134.293614137045	0.0499792761402205
158168	50	308	0	0	orangutan	1080	308	0	stimuli\orangutan\orangutan_04s.jpg	3	-1	0	0	orangutan_04s.jpg	0	0	0	134.343636567588	134.393619988521	0.0499834209331311
162818	50	309	0	0	shuffleboard	1439	0	1	stimuli\shuffleboard\shuffleboard_09s.jpg	8	-1	1	0	shuffleboard_09s.jpg	0	0	0	138.993767249573	139.043750182842	0.049982933269348
162918	50	310	0	0	cloak	358	1	1	stimuli\cloak\cloak_04s.jpg	3	-1	1	0	cloak_04s.jpg	0	0	0	139.093743843841	139.143738723826	0.0499948799842969
163018	50	311	0	0	mustache	1043	2	1	stimuli\mustache\mustache_08s.jpg	7	-1	1	0	mustache_08s.jpg	0	0	0	139.193769931444	139.243749451416	0.049979519972112
163118	50	312	0	0	applesauce	32	3	1	stimuli\applesauce\applesauce_01b.jpg	0	-1	1	0	applesauce_01b.jpg	0	0	0	139.293771394296	139.343757984752	0.0499865904566832
163218	50	313	0	0	lavender	904	4	1	stimuli\lavender\lavender_12s.jpg	11	-1	1	0	lavender_12s.jpg	0	0	0	139.393776270503	139.443762129522	0.0499858590192162
163318	50	314	0	0	denture	478	5	1	stimuli\denture\denture_07s.jpg	6	-1	1	0	denture_07s.jpg	0	0	0	139.493787241925	139.543721900962	0.0499346590368077
163418	50	315	0	0	fungus	648	6	1	stimuli\fungus\fungus_05s.jpg	4	-1	1	0	fungus_05s.jpg	0	0	0	139.593777001952	139.643760666659	0.049983664706815
163518	50	316	0	0	crayfish	434	7	1	stimuli\crayfish\crayfish_09s.jpg	8	-1	1	0	crayfish_09s.jpg	0	0	0	139.69378285337	139.743762860948	0.0499800075776875
163618	50	317	0	0	umbrella	1743	8	1	stimuli\umbrella\umbrella_02s.jpg	1	-1	1	0	umbrella_02s.jpg	0	0	0	139.793784560054	139.843769443862	0.0499848838080652
163718	50	318	0	0	silverware	1445	9	1	stimuli\silverware\silverware_03s.jpg	2	-1	1	0	silverware_03s.jpg	0	0	0	139.893767980975	139.943776758097	0.0500087771215476
163818	50	319	0	0	crab	428	10	1	stimuli\crab\crab_07s.jpg	6	-1	1	0	crab_07s.jpg	0	0	0	139.993791630492	140.043777733343	0.0499861028511077
163918	50	320	0	0	stretcher	1572	11	1	stimuli\stretcher\stretcher_08s.jpg	7	-1	1	0	stretcher_08s.jpg	0	0	0	140.093797725742	140.143774320022	0.0499765942804515
164018	50	321	0	0	ice_pack	820	12	1	stimuli\ice_pack\ice_pack_09s.jpg	8	-1	1	0	ice_pack_09s.jpg	0	0	0	140.193794312421	140.243789680011	0.0499953675898723
164118	50	322	0	0	leg	911	13	1	stimuli\leg\leg_03s.jpg	2	-1	1	0	leg_03s.jpg	0	0	0	140.29375481524	140.343778952432	0.0500241371919401
164218	50	323	0	0	heater	772	14	1	stimuli\heater\heater_07s.jpg	6	-1	1	0	heater_07s.jpg	0	0	0	140.393801870523	140.443782365764	0.0499804952414706
164318	50	324	0	0	train	1698	15	1	stimuli\train\train_07s.jpg	6	-1	1	0	train_07s.jpg	0	0	0	140.493806015293	140.543784803827	0.049978788534645
164418	50	325	0	0	throne	1652	16	1	stimuli\throne\throne_02s.jpg	1	-1	1	0	throne_02s.jpg	0	0	0	140.593782121956	140.643760666659	0.0499785447027534
164518	50	326	0	0	quiche	1262	17	1	stimuli\quiche\quiche_07s.jpg	6	-1	1	0	quiche_07s.jpg	0	0	0	140.693808209558	140.7437887048	0.0499804952414706
164618	50	327	0	0	bib	122	18	1	stimuli\bib\bib_11s.jpg	10	-1	1	0	bib_11s.jpg	0	0	0	140.793826982903	140.843791142921	0.0499641600181349
164718	50	328	0	0	corn	412	19	1	stimuli\corn\corn_06s.jpg	5	-1	1	0	corn_06s.jpg	0	0	0	140.893816499098	140.943773832405	0.0499573333072476
164818	50	329	0	0	dolly	501	20	1	stimuli\dolly\dolly_06s.jpg	5	-1	1	0	dolly_06s.jpg	0	0	0	140.993792605761	141.043759447639	0.0499668418779038
164918	50	330	0	0	lightning_bug	929	21	1	stimuli\lightning_bug\lightning_bug_02s.jpg	1	-1	1	0	lightning_bug_02s.jpg	0	0	0	141.093820643844	141.143801870523	0.0499812266789377
165018	50	331	0	0	sleeping_bag	1462	22	1	stimuli\sleeping_bag\sleeping_bag_12s.jpg	11	-1	1	0	sleeping_bag_12s.jpg	0	0	0	141.193822838133	141.243803577207	0.0499807390733622
165118	50	332	0	0	gyro	730	23	1	stimuli\gyro\gyro_11s.jpg	10	-1	1	0	gyro_11s.jpg	0	0	0	141.293825520086	141.343759935233	0.0499344151467085
165218	50	333	0	0	funnel	649	24	1	stimuli\funnel\funnel_08s.jpg	7	-1	1	0	funnel_08s.jpg	0	0	0	141.393799188605	141.443811379082	0.0500121904769912
165318	50	334	0	0	mullet	1039	25	1	stimuli\mullet\mullet_12s.jpg	11	-1	1	0	mullet_12s.jpg	0	0	0	141.493831615313	141.543822838168	0.0499912228551693
165418	50	335	0	0	flamethrower	607	26	1	stimuli\flamethrower\flamethrower_08s.jpg	7	-1	1	0	flamethrower_08s.jpg	0	0	0	141.593833809602	141.643827958149	0.0499941485468298
165518	50	336	0	0	outfit	1087	27	1	stimuli\outfit\outfit_11s.jpg	10	-1	1	0	outfit_11s.jpg	0	0	0	141.693825276277	141.743791874324	0.0499665980460122
165618	50	337	0	0	peg	1139	28	1	stimuli\peg\peg_01b.jpg	0	-1	1	0	peg_01b.jpg	0	0	0	141.793841611478	141.84381844959	0.0499768381123431
165718	50	338	0	0	crossbow	444	29	1	stimuli\crossbow\crossbow_02s.jpg	1	-1	1	1	crossbow_02s.jpg	0	0	0	141.893841367681	141.943825520051	0.0499841523705982
165818	50	339	0	0	drill	520	30	1	stimuli\drill\drill_12s.jpg	11	-1	1	0	drill_12s.jpg	0	0	0	141.99384356197	142.043801626714	0.0499580647447146
165918	50	340	0	0	mouth	1031	31	1	stimuli\mouth\mouth_09s.jpg	8	-1	1	0	mouth_09s.jpg	0	0	0	142.09382040007	142.143818449578	0.0499980495078489
166018	50	341	0	0	tank2	1621	32	1	stimuli\tank2\tank2_07s.jpg	6	-1	1	0	tank2_07s.jpg	0	0	0	142.19384819438	142.243831127707	0.0499829333275557
166118	50	342	0	0	dagger	469	33	1	stimuli\dagger\dagger_03s.jpg	2	-1	1	0	dagger_03s.jpg	0	0	0	142.293850144837	142.343836735294	0.0499865904566832
166218	50	343	0	0	sloth	1471	34	1	stimuli\sloth\sloth_08s.jpg	7	-1	1	0	sloth_08s.jpg	1	0.505943104566541	1	142.393858190568	142.443831127661	0.0499729370931163
166318	50	344	0	0	wasp	1785	35	1	stimuli\wasp\wasp_05s.jpg	4	-1	1	0	wasp_05s.jpg	0	0	0	142.493830883875	142.543857946759	0.0500270628836006
166418	50	345	0	0	doghouse	497	36	1	stimuli\doghouse\doghouse_07s.jpg	6	-1	1	0	doghouse_07s.jpg	0	0	0	142.593854533392	142.643839904806	0.0499853714136407
166518	50	346	0	0	door	506	37	1	stimuli\door\door_06s.jpg	5	-1	1	0	door_06s.jpg	0	0	0	142.69385282672	142.743832590524	0.0499797638040036
166618	50	347	0	0	raspberry	1284	38	1	stimuli\raspberry\raspberry_08s.jpg	7	-1	1	0	raspberry_08s.jpg	0	0	0	142.793889885827	142.843864041963	0.0499741561361589
166718	50	348	0	0	vase	1753	39	1	stimuli\vase\vase_02s.jpg	1	-1	1	0	vase_02s.jpg	0	0	0	142.893880864838	142.943852582946	0.0499717181082815
166818	50	349	0	0	mantle	969	40	1	stimuli\mantle\mantle_02s.jpg	1	-1	1	0	mantle_02s.jpg	0	0	0	142.993864529592	143.043853801966	0.0499892723746598
166918	50	350	0	0	rock	1319	41	1	stimuli\rock\rock_06s.jpg	5	-1	1	0	rock_06s.jpg	0	0	0	143.093860384834	143.143857946736	0.0499975619022734
167018	50	351	0	0	flyswatter	623	42	1	stimuli\flyswatter\flyswatter_07n.jpg	6	-1	1	0	flyswatter_07n.jpg	0	0	0	143.19390305155	143.243853801978	0.0499507504282519
167118	50	352	0	0	bassoon	86	43	1	stimuli\bassoon\bassoon_01b.jpg	0	-1	1	0	bassoon_01b.jpg	0	0	0	143.293873550545	143.343860628665	0.0499870781204663
167218	50	353	0	0	scooter	1382	44	1	stimuli\scooter\scooter_08s.jpg	7	-1	1	0	scooter_08s.jpg	0	0	0	143.393880133401	143.443859897205	0.0499797638040036
167318	50	354	0	0	bulletproof_vest	218	45	1	stimuli\bulletproof_vest\bulletproof_vest_11s.jpg	10	-1	1	0	bulletproof_vest_11s.jpg	0	0	0	143.493885741045	143.543842342915	0.0499566018697806
167418	50	355	0	0	key	869	46	1	stimuli\key\key_02s.jpg	1	-1	1	0	key_02s.jpg	0	0	0	143.593869649631	143.643823569582	0.049953919951804
167518	50	356	0	0	weather_vane	1798	47	1	stimuli\weather_vane\weather_vane_07s.jpg	6	-1	1	0	weather_vane_07s.jpg	0	0	0	143.693883546744	143.743864041986	0.0499804952414706
167618	50	357	0	0	anchor	21	48	1	stimuli\anchor\anchor_11n.jpg	10	-1	1	0	anchor_11n.jpg	0	0	0	143.793886960077	143.843866236275	0.0499792761984281
167718	50	358	0	0	emerald	555	49	1	stimuli\emerald\emerald_09s.jpg	8	-1	1	0	emerald_09s.jpg	0	0	0	143.893895737245	143.943825520051	0.04992978280643
167818	50	359	0	0	pinwheel	1185	50	1	stimuli\pinwheel\pinwheel_01b.jpg	0	-1	1	0	pinwheel_01b.jpg	0	0	0	143.99387769535	144.04388549726	0.0500078019103967
167918	50	360	0	0	tag	1616	51	1	stimuli\tag\tag_06s.jpg	5	-1	1	0	tag_06s.jpg	0	0	0	144.093895737256	144.143879645795	0.0499839085387066
168018	50	361	0	0	pretzel	1239	52	1	stimuli\pretzel\pretzel_10s.jpg	9	-1	1	0	pretzel_10s.jpg	0	0	0	144.193903295323	144.243887691526	0.0499843962024897
168118	50	362	0	0	roadsweeper	1316	53	1	stimuli\roadsweeper\roadsweeper_10s.jpg	9	-1	1	0	roadsweeper_10s.jpg	0	0	0	144.293888666783	144.343861603877	0.0499729370931163
168218	50	363	0	0	gopher	694	54	1	stimuli\gopher\gopher_12s.jpg	11	-1	1	0	gopher_12s.jpg	0	0	0	144.393905733421	144.443885253451	0.0499795200303197
168318	50	364	0	0	hummus	812	55	1	stimuli\hummus\hummus_11s.jpg	10	-1	1	0	hummus_11s.jpg	0	0	0	144.493905489624	144.54388744774	0.0499819581164047
168418	50	365	0	0	powder	1236	56	1	stimuli\powder\powder_09s.jpg	8	-1	1	0	powder_09s.jpg	0	0	0	144.593908902956	144.643888910592	0.0499800076358952
168518	50	366	0	0	ping-pong_table	1184	57	1	stimuli\ping-pong_table\ping-pong_table_11s.jpg	10	-1	1	0	ping-pong_table_11s.jpg	0	0	0	144.693900369632	144.743879889604	0.049979519972112
168618	50	367	0	0	footbath	631	58	1	stimuli\footbath\footbath_01s.jpg	0	-1	1	0	footbath_01s.jpg	0	0	0	144.793912803929	144.843896468694	0.0499836647650227
168718	50	368	0	0	blind	140	59	1	stimuli\blind\blind_03s.jpg	2	-1	1	0	blind_03s.jpg	0	0	0	144.893921093433	144.943896468671	0.049975375237409
168818	50	369	0	0	doorknob	509	60	1	stimuli\doorknob\doorknob_05s.jpg	4	-1	1	0	doorknob_05s.jpg	0	0	0	144.99391646107	145.043881352467	0.0499648913973942
168918	50	370	0	0	bra	185	61	1	stimuli\bra\bra_12s.jpg	11	-1	1	0	bra_12s.jpg	0	0	0	145.093904758221	145.143903539167	0.049998780945316
169018	50	371	0	0	scrambled_egg	1386	62	1	stimuli\scrambled_egg\scrambled_egg_01b.jpg	0	-1	1	0	scrambled_egg_01b.jpg	0	0	0	145.193927188695	145.243905733456	0.0499785447609611
169118	50	372	0	0	basil	81	63	1	stimuli\basil\basil_09s.jpg	8	-1	1	0	basil_09s.jpg	0	0	0	145.293930358195	145.343913047749	0.0499826895538718
169218	50	373	0	0	bush	227	64	1	stimuli\bush\bush_05s.jpg	4	-1	1	0	bush_05s.jpg	0	0	0	145.393916948698	145.443904026761	0.0499870780622587
169318	50	374	0	0	raft	1275	65	1	stimuli\raft\raft_10s.jpg	9	-1	1	0	raft_10s.jpg	0	0	0	145.493911584897	145.543914754409	0.0500031695119105
169418	50	375	0	0	waterwheel	1794	66	1	stimuli\waterwheel\waterwheel_04s.jpg	3	-1	1	0	waterwheel_04s.jpg	0	0	0	145.593938891543	145.643920849659	0.0499819581164047
169518	50	376	0	0	cloud	364	67	1	stimuli\cloud\cloud_04s.jpg	3	-1	1	0	cloud_04s.jpg	0	0	0	145.693940842059	145.743925238203	0.0499843961442821
169618	50	377	0	0	clasp	351	68	1	stimuli\clasp\clasp_02s.jpg	1	-1	1	0	clasp_02s.jpg	0	0	0	145.793956933485	145.843914266792	0.0499573333072476
169718	50	378	0	0	hip	780	69	1	stimuli\hip\hip_06s.jpg	5	-1	1	0	hip_06s.jpg	0	0	0	145.893948156328	145.943923775339	0.0499756190110929
169818	50	379	0	0	scrabble	1385	70	1	stimuli\scrabble\scrabble_05s.jpg	4	-1	1	0	scrabble_05s.jpg	0	0	0	145.993946693488	146.043928163941	0.0499814704526216
169918	50	380	0	0	staple_gun	1538	71	1	stimuli\staple_gun\staple_gun_10s.jpg	9	-1	1	0	staple_gun_10s.jpg	0	0	0	146.093954007782	146.143909634382	0.049955626600422
170018	50	381	0	0	checkbook	310	72	1	stimuli\checkbook\checkbook_03s.jpg	2	-1	1	0	checkbook_03s.jpg	0	0	0	146.193943523918	146.243934503	0.0499909790814854
170118	50	382	0	0	wire	1828	73	1	stimuli\wire\wire_04s.jpg	3	-1	1	0	wire_04s.jpg	0	0	0	146.293956445879	146.34393572202	0.0499792761402205
170218	50	383	0	0	loincloth	944	74	1	stimuli\loincloth\loincloth_11s.jpg	10	-1	1	0	loincloth_11s.jpg	0	0	0	146.393957421067	146.443938891578	0.0499814705108292
170318	50	384	0	0	chin	330	75	1	stimuli\chin\chin_11s.jpg	10	-1	1	0	chin_11s.jpg	0	0	0	146.493953763973	146.543942548684	0.0499887847108766
170418	50	385	0	0	tree_trunk	1709	76	1	stimuli\tree_trunk\tree_trunk_03s.jpg	2	-1	1	0	tree_trunk_03s.jpg	0	0	0	146.593924994406	146.643942304887	0.0500173104810528
170518	50	386	0	0	sticker	1553	77	1	stimuli\sticker\sticker_12s.jpg	11	-1	1	0	sticker_12s.jpg	0	0	0	146.693964491598	146.743948887743	0.0499843961442821
170618	50	387	0	0	cherry	316	78	1	stimuli\cherry\cherry_04n.jpg	3	-1	1	0	cherry_04n.jpg	0	0	0	146.79396863631	146.843949619157	0.0499809828470461
170718	50	388	0	0	backgammon	48	79	1	stimuli\backgammon\backgammon_09s.jpg	8	-1	1	0	backgammon_09s.jpg	0	0	0	146.893989847798	146.943930845824	0.0499409980257042
170818	50	389	0	0	space_shuttle	1501	80	1	stimuli\space_shuttle\space_shuttle_08s.jpg	7	-1	1	0	space_shuttle_08s.jpg	0	0	0	146.993978388724	147.043954251567	0.0499758628429845
170918	50	390	0	0	mussel	1042	81	1	stimuli\mussel\mussel_03s.jpg	2	-1	1	0	mussel_03s.jpg	0	0	0	147.093978632533	147.143956202024	0.0499775694916025
171018	50	391	0	0	thumbtack	1654	82	1	stimuli\thumbtack\thumbtack_04s.jpg	3	-1	1	0	thumbtack_04s.jpg	0	0	0	147.193981802033	147.24393352773	0.0499517256976105
171118	50	392	0	0	chip	333	83	1	stimuli\chip\chip_03s.jpg	2	-1	1	0	chip_03s.jpg	0	0	0	147.293964735407	147.343927432492	0.0499626970849931
171218	50	393	0	0	tooth	1678	84	1	stimuli\tooth\tooth_10s.jpg	9	-1	1	0	tooth_10s.jpg	0	0	0	147.39399082301	147.443965710641	0.0499748876318336
171318	50	394	0	0	air_conditioner	4	85	1	stimuli\air_conditioner\air_conditioner_10s.jpg	9	-1	1	0	air_conditioner_10s.jpg	0	0	0	147.493987653463	147.54396595445	0.0499783009872772
171418	50	395	0	0	boxer_shorts	182	86	1	stimuli\boxer_shorts\boxer_shorts_07s.jpg	6	-1	1	0	boxer_shorts_07s.jpg	0	0	0	147.593992042064	147.643932552484	0.0499405104201287
171518	50	396	0	0	yak	1845	87	1	stimuli\yak\yak_02s.jpg	1	-1	1	0	yak_02s.jpg	0	0	0	147.69395888393	147.743975463032	0.0500165791017935
171618	50	397	0	0	scuba	1392	88	1	stimuli\scuba\scuba_05s.jpg	4	-1	1	0	scuba_05s.jpg	0	0	0	147.793994723994	147.843979607744	0.0499848837498575
171718	50	398	0	0	water_filter	1789	89	1	stimuli\water_filter\water_filter_08s.jpg	7	-1	1	0	water_filter_08s.jpg	0	0	0	147.893998624932	147.943979851552	0.04998122662073
171818	50	399	0	0	stamp1	1535	90	1	stimuli\stamp1\stamp1_10s.jpg	9	-1	1	0	stamp1_10s.jpg	0	0	0	147.994002282096	148.043959615403	0.0499573333072476
171918	50	400	0	0	kimono	873	91	1	stimuli\kimono\kimono_06s.jpg	5	-1	1	0	kimono_06s.jpg	0	0	0	148.094006426807	148.143986434443	0.0499800076358952
172018	50	401	0	0	coil	384	92	1	stimuli\coil\coil_06s.jpg	5	-1	1	0	coil_06s.jpg	0	0	0	148.194004963967	148.243988628732	0.0499836647650227
172118	50	402	0	0	record_player	1296	93	1	stimuli\record_player\record_player_04s.jpg	3	-1	1	0	record_player_04s.jpg	0	0	0	148.294011546823	148.343994723982	0.0499831771594472
172218	50	403	0	0	puddle	1247	94	1	stimuli\puddle\puddle_11s.jpg	10	-1	1	0	puddle_11s.jpg	0	0	0	148.394016910635	148.444008377322	0.0499914666870609
172318	50	404	0	0	pot	1230	95	1	stimuli\pot\pot_07s.jpg	6	-1	1	0	pot_07s.jpg	0	0	0	148.494015691627	148.543993261119	0.0499775694916025
172418	50	405	0	0	sardine	1359	96	1	stimuli\sardine\sardine_08s.jpg	7	-1	1	0	sardine_08s.jpg	0	0	0	148.594017398253	148.643997893494	0.0499804952414706
172518	50	406	0	0	fruitcake	646	97	1	stimuli\fruitcake\fruitcake_03s.jpg	2	-1	1	0	fruitcake_03s.jpg	0	0	0	148.694017642061	148.744014472526	0.0499968304648064
172618	50	407	0	0	cooler	403	98	1	stimuli\cooler\cooler_12s.jpg	11	-1	1	0	cooler_12s.jpg	0	0	0	148.793997405854	148.844001306861	0.0500039010075852
172718	50	408	0	0	sugar_cube	1579	99	1	stimuli\sugar_cube\sugar_cube_07s.jpg	6	-1	1	0	sugar_cube_07s.jpg	0	0	0	148.894024956389	148.944005207799	0.0499802514095791
172818	50	409	0	0	swing_set	1599	100	1	stimuli\swing_set\swing_set_12s.jpg	11	-1	1	0	swing_set_12s.jpg	0	0	0	148.994029101159	149.044009108737	0.0499800075776875
172918	50	410	0	0	exerciser	561	101	1	stimuli\exerciser\exerciser_02s.jpg	1	-1	1	0	exerciser_02s.jpg	0	0	0	149.094035684015	149.144015691592	0.0499800075776875
173018	50	411	0	0	apron	33	102	1	stimuli\apron\apron_12s.jpg	11	-1	1	0	apron_12s.jpg	0	0	0	149.19401179062	149.244011546834	0.0499997562146746
173118	50	412	0	0	roller	1324	103	1	stimuli\roller\roller_03s.jpg	2	-1	1	0	roller_03s.jpg	0	0	0	149.294036415406	149.344017642085	0.0499812266789377
173218	50	413	0	0	perfume	1154	104	1	stimuli\perfume\perfume_04s.jpg	3	-1	1	0	perfume_04s.jpg	0	0	0	149.394038365921	149.444035683991	0.0499973180703819
173318	50	414	0	0	boulder	172	105	1	stimuli\boulder\boulder_02s.jpg	1	-1	1	0	boulder_02s.jpg	0	0	0	149.494041535421	149.543997893517	0.0499563580960967
173418	50	415	0	0	gondola	691	106	1	stimuli\gondola\gondola_11s.jpg	10	-1	1	0	gondola_11s.jpg	0	0	0	149.59404665546	149.644023493514	0.0499768380541354
173518	50	416	0	0	sickle	1441	107	1	stimuli\sickle\sickle_04s.jpg	3	-1	1	0	sickle_04s.jpg	0	0	0	149.69404787448	149.744029344933	0.0499814704526216
173618	50	417	0	0	faucet	573	108	1	stimuli\faucet\faucet_12s.jpg	11	-1	1	0	faucet_12s.jpg	0	0	0	149.794047630683	149.844037634495	0.0499900038121268
173718	50	418	0	0	woman	1832	109	1	stimuli\woman\woman_03s.jpg	2	-1	1	0	woman_03s.jpg	0	0	0	149.89405713923	149.943993261084	0.0499361218535341
173818	50	419	0	0	wallpaper	1777	110	1	stimuli\wallpaper\wallpaper_02s.jpg	1	-1	1	0	wallpaper_02s.jpg	0	0	0	149.994061040226	150.044036415406	0.0499753751792014
173918	50	420	0	0	tab	1607	111	1	stimuli\tab\tab_10s.jpg	9	-1	1	0	tab_10s.jpg	0	0	0	150.094057626848	150.144038365921	0.0499807390733622
174018	50	421	0	0	photograph	1164	112	1	stimuli\photograph\photograph_08s.jpg	7	-1	1	0	photograph_08s.jpg	0	0	0	150.194063722098	150.244021543011	0.0499578209128231
174118	50	422	0	0	earwig	541	113	1	stimuli\earwig\earwig_08n.jpg	7	-1	1	1	earwig_08n.jpg	0	0	0	150.29402739444	150.344046167796	0.0500187733559869
174218	50	423	0	0	pepper1	1149	114	1	stimuli\pepper1\pepper1_08s.jpg	7	-1	1	0	pepper1_08s.jpg	0	0	0	150.394079813559	150.444057626883	0.049977813323494
174318	50	424	0	0	oyster	1092	115	1	stimuli\oyster\oyster_05s.jpg	4	-1	1	0	oyster_05s.jpg	0	0	0	150.49406981736	150.544050800207	0.0499809828470461
174418	50	425	0	0	paper	1112	116	1	stimuli\paper\paper_02s.jpg	1	-1	1	0	paper_02s.jpg	0	0	0	150.59407591261	150.644058358273	0.0499824456637725
174518	50	426	0	0	sail	1346	117	1	stimuli\sail\sail_08s.jpg	7	-1	1	0	sail_08s.jpg	0	0	0	150.694079813547	150.744058358308	0.0499785447609611
174618	50	427	0	0	car	267	118	1	stimuli\car\car_04s.jpg	3	-1	1	0	car_04s.jpg	0	0	0	150.794082983048	150.844103706884	0.0500207238364965
174718	50	428	0	0	life_jacket	924	119	1	stimuli\life_jacket\life_jacket_01b.jpg	0	-1	1	0	life_jacket_01b.jpg	0	0	0	150.894096392614	150.94409419829	0.0499978056759574
174818	50	429	0	0	saxophone	1368	120	1	stimuli\saxophone\saxophone_12s.jpg	11	-1	1	0	saxophone_12s.jpg	0	0	0	150.994115409732	151.044065916387	0.049950506654568
174918	50	430	0	0	coverall	425	121	1	stimuli\coverall\coverall_06s.jpg	5	-1	1	0	coverall_06s.jpg	0	0	0	151.094093466876	151.144082983083	0.0499895162065513
175018	50	431	0	0	goggles	686	122	1	stimuli\goggles\goggles_02s.jpg	1	-1	1	0	goggles_02s.jpg	0	0	0	151.194095417392	151.244077619282	0.0499822018900886
175118	50	432	0	0	hairpin	737	123	1	stimuli\hairpin\hairpin_06s.jpg	5	-1	1	0	hairpin_06s.jpg	0	0	0	151.294103706896	151.344024956343	0.0499212494469248
175218	50	433	0	0	wick	1815	124	1	stimuli\wick\wick_08s.jpg	7	-1	1	0	wick_08s.jpg	0	0	0	151.394097611657	151.444091028767	0.0499934171093628
175318	50	434	0	0	diamond	484	125	1	stimuli\diamond\diamond_08s.jpg	7	-1	1	0	diamond_08s.jpg	0	0	0	151.494099562115	151.544089322095	0.0499897599802352
175418	50	435	0	0	coyote	427	126	1	stimuli\coyote\coyote_02s.jpg	1	-1	1	0	coyote_02s.jpg	0	0	0	151.594100537361	151.644089078298	0.0499885409371927
175518	50	436	0	0	gas_mask	660	127	1	stimuli\gas_mask\gas_mask_08s.jpg	7	-1	1	0	gas_mask_08s.jpg	0	0	0	151.694092004036	151.74408980977	0.049997805734165
175618	50	437	0	0	cougar	423	128	1	stimuli\cougar\cougar_01b.jpg	0	-1	1	0	cougar_01b.jpg	0	0	0	151.7941088269	151.844088346872	0.049979519972112
175718	50	438	0	0	fence	575	129	1	stimuli\fence\fence_02s.jpg	1	-1	1	0	fence_02s.jpg	0	0	0	151.89411297167	151.944107851654	0.0499948799842969
175818	50	439	0	0	pug	1249	130	1	stimuli\pug\pug_04s.jpg	3	-1	1	0	pug_04s.jpg	0	0	0	151.994113946916	152.04407469352	0.0499607466044836
175918	50	440	0	0	dog	495	131	1	stimuli\dog\dog_07s.jpg	6	-1	1	0	dog_07s.jpg	0	0	0	152.094118823123	152.144104925916	0.0499861027929001
176018	50	441	0	0	crib	441	132	1	stimuli\crib\crib_06s.jpg	5	-1	1	0	crib_06s.jpg	0	0	0	152.194122236455	152.244105901162	0.049983664706815
176118	50	442	0	0	air_pump	6	133	1	stimuli\air_pump\air_pump_07s.jpg	6	-1	1	0	air_pump_07s.jpg	0	0	0	152.294123211643	152.344103706884	0.0499804952414706
176218	50	443	0	0	holster	786	134	1	stimuli\holster\holster_02s.jpg	1	-1	1	0	holster_02s.jpg	0	0	0	152.394126381201	152.444127112627	0.0500007314258255
176318	50	444	0	0	clover	366	135	1	stimuli\clover\clover_04s.jpg	3	-1	1	0	clover_04s.jpg	0	0	0	152.494149543112	152.544109314505	0.0499597713933326
176418	50	445	0	0	hammer	741	136	1	stimuli\hammer\hammer_09s.jpg	8	-1	1	0	hammer_09s.jpg	0	0	0	152.594127600256	152.644112484064	0.0499848838080652
176518	50	446	0	0	duffel_bag	529	137	1	stimuli\duffel_bag\duffel_bag_09s.jpg	8	-1	1	0	duffel_bag_09s.jpg	0	0	0	152.694139059284	152.744114434521	0.049975375237409
176618	50	447	0	0	mouthpiece	1032	138	1	stimuli\mouthpiece\mouthpiece_01s.jpg	0	-1	1	0	mouthpiece_01s.jpg	0	0	0	152.794142472616	152.84411662881	0.0499741561943665
176718	50	448	0	0	camcorder	244	139	1	stimuli\camcorder\camcorder_07s.jpg	6	-1	1	0	camcorder_07s.jpg	0	0	0	152.894084445958	152.944121505017	0.0500370590598322
176818	50	449	0	0	dryer	524	140	1	stimuli\dryer\dryer_04s.jpg	3	-1	1	0	dryer_04s.jpg	0	0	0	152.994142960233	153.044122724037	0.0499797638040036
176918	50	450	0	0	pitcher	1190	141	1	stimuli\pitcher\pitcher_08s.jpg	7	-1	1	0	pitcher_08s.jpg	0	0	0	153.094142716436	153.144123943115	0.0499812266789377
177018	50	451	0	0	backdrop	47	142	1	stimuli\backdrop\backdrop_12s.jpg	11	-1	1	0	backdrop_12s.jpg	0	0	0	153.194148567854	153.244127356447	0.0499787885928527
177118	50	452	0	0	shell3	1419	143	1	stimuli\shell3\shell3_09s.jpg	8	-1	1	0	shell3_09s.jpg	0	0	0	153.294150030706	153.344131988822	0.0499819581164047
177218	50	453	0	0	wine	1823	144	1	stimuli\wine\wine_03s.jpg	2	-1	1	0	wine_03s.jpg	0	0	0	153.394158807874	153.444132964069	0.0499741561943665
177318	50	454	0	0	meerkat	992	145	1	stimuli\meerkat\meerkat_04s.jpg	3	-1	1	0	meerkat_04s.jpg	0	0	0	153.494155150722	153.544120773557	0.0499656228348613
177418	50	455	0	0	stopwatch	1562	146	1	stimuli\stopwatch\stopwatch_01b.jpg	0	-1	1	0	stopwatch_01b.jpg	0	0	0	153.594155882136	153.644137352647	0.0499814705108292
177518	50	456	0	0	wire_cutters	1829	147	1	stimuli\wire_cutters\wire_cutters_02s.jpg	1	-1	1	0	wire_cutters_02s.jpg	0	0	0	153.694160758343	153.744141009753	0.0499802514095791
177618	50	457	0	0	coaster	368	148	1	stimuli\coaster\coaster_05s.jpg	4	-1	1	0	coaster_05s.jpg	0	0	0	153.794163440238	153.844146373565	0.0499829333275557
177718	50	458	0	0	butter	228	149	1	stimuli\butter\butter_07s.jpg	6	-1	1	0	butter_07s.jpg	0	0	0	153.89415173739	153.944150030729	0.0499982933397405
177818	50	459	0	0	scallop	1373	150	1	stimuli\scallop\scallop_01b.jpg	0	-1	1	0	scallop_01b.jpg	0	0	0	153.994170754566	154.04415051837	0.0499797638040036
177918	50	460	0	0	grinder	716	151	1	stimuli\grinder\grinder_06s.jpg	5	-1	1	0	grinder_06s.jpg	0	0	0	154.094169779331	154.144151249784	0.0499814704526216
178018	50	461	0	0	workbench	1835	152	1	stimuli\workbench\workbench_06s.jpg	5	-1	1	0	workbench_06s.jpg	0	0	0	154.194176118355	154.244154663116	0.0499785447609611
178118	50	462	0	0	calf2	242	153	1	stimuli\calf2\calf2_06s.jpg	5	-1	1	0	calf2_06s.jpg	0	0	0	154.294177093601	154.344160758366	0.0499836647650227
178218	50	463	0	0	thimble	1649	154	1	stimuli\thimble\thimble_04n.jpg	3	-1	1	0	thimble_04n.jpg	0	0	0	154.39417928789	154.444160758343	0.0499814704526216
178318	50	464	0	0	wetsuit	1803	155	1	stimuli\wetsuit\wetsuit_01b.jpg	0	-1	1	0	wetsuit_01b.jpg	0	0	0	154.494180019305	154.544161733589	0.0499817142845131
178418	50	465	0	0	mouse2	1027	156	1	stimuli\mouse2\mouse2_10s.jpg	9	-1	1	0	mouse2_10s.jpg	0	0	0	154.594186845992	154.64416124596	0.0499743999680504
178518	50	466	0	0	pomegranate	1219	157	1	stimuli\pomegranate\pomegranate_08s.jpg	7	-1	1	0	pomegranate_08s.jpg	0	0	0	154.694186845969	154.744171486003	0.0499846400343813
178618	50	467	0	0	fig	581	158	1	stimuli\fig\fig_09n.jpg	8	-1	1	0	fig_09n.jpg	0	0	0	154.794190746965	154.844172705023	0.0499819580581971
178718	50	468	0	0	wineglass	1826	159	1	stimuli\wineglass\wineglass_06s.jpg	5	-1	1	0	wineglass_06s.jpg	0	0	0	154.89419342886	154.944175386918	0.0499819580581971
178818	50	469	0	0	fox	638	160	1	stimuli\fox\fox_11s.jpg	10	-1	1	0	fox_11s.jpg	0	0	0	154.994195135543	155.044130769791	0.0499356342479587
178918	50	470	0	0	tomato_sauce	1673	161	1	stimuli\tomato_sauce\tomato_sauce_06s.jpg	5	-1	1	0	tomato_sauce_06s.jpg	0	0	0	155.094198061212	155.144180750765	0.0499826895538718
179018	50	471	0	0	webcam	1799	162	1	stimuli\webcam\webcam_02s.jpg	1	-1	1	0	webcam_02s.jpg	0	0	0	155.194205131731	155.244182701223	0.0499775694916025
179118	50	472	0	0	swimsuit	1597	163	1	stimuli\swimsuit\swimsuit_07s.jpg	6	-1	1	0	swimsuit_07s.jpg	0	0	0	155.294203181227	155.344182701258	0.0499795200303197
179218	50	473	0	0	pants	1108	164	1	stimuli\pants\pants_07s.jpg	6	-1	1	0	pants_07s.jpg	0	0	0	155.394189040293	155.444188796449	0.0499997561564669
179318	50	474	0	0	motorcycle	1025	165	1	stimuli\motorcycle\motorcycle_03s.jpg	2	-1	1	0	motorcycle_03s.jpg	0	0	0	155.494212446036	155.544189527922	0.049977081886027
179418	50	475	0	0	barbell	72	166	1	stimuli\barbell\barbell_07s.jpg	6	-1	1	0	barbell_07s.jpg	0	0	0	155.594212202181	155.644197329821	0.0499851276399568
179518	50	476	0	0	souffle	1498	167	1	stimuli\souffle\souffle_07s.jpg	6	-1	1	0	souffle_07s.jpg	0	0	0	155.694215127907	155.744190015539	0.0499748876318336
179618	50	477	0	0	bracelet2	188	168	1	stimuli\bracelet2\bracelet2_04s.jpg	3	-1	1	0	bracelet2_04s.jpg	0	0	0	155.794218785071	155.844197817438	0.0499790323665366
179718	50	478	0	0	submarine	1577	169	1	stimuli\submarine\submarine_10n.jpg	9	-1	1	0	submarine_10n.jpg	0	0	0	155.894219272654	155.944202693645	0.0499834209913388
179818	50	479	0	0	gallows	653	170	1	stimuli\gallows\gallows_05s.jpg	4	-1	1	0	gallows_05s.jpg	0	0	0	155.99422512413	156.044202693622	0.0499775694916025
179918	50	480	0	0	cellphone	293	171	1	stimuli\cellphone\cellphone_10s.jpg	9	-1	1	0	cellphone_10s.jpg	0	0	0	156.094224880275	156.14421415265	0.0499892723746598
180018	50	481	0	0	car_seat	269	172	1	stimuli\car_seat\car_seat_10s.jpg	9	-1	1	0	car_seat_10s.jpg	0	0	0	156.194230244088	156.244208545075	0.0499783009872772
180118	50	482	0	0	balloon	60	173	1	stimuli\balloon\balloon_10s.jpg	9	-1	1	0	balloon_10s.jpg	0	0	0	156.294231950771	156.344217078411	0.0499851276399568
180218	50	483	0	0	gumball	725	174	1	stimuli\gumball\gumball_12s.jpg	11	-1	1	0	gumball_12s.jpg	0	0	0	156.394234876498	156.44421634695	0.0499814704526216
180318	50	484	0	0	laptop	897	175	1	stimuli\laptop\laptop_11s.jpg	10	-1	1	0	laptop_11s.jpg	0	0	0	156.494241946959	156.544216103153	0.0499741561943665
180418	50	485	0	0	doormat	511	176	1	stimuli\doormat\doormat_06s.jpg	5	-1	1	0	doormat_06s.jpg	0	0	0	156.594239996513	156.644220247923	0.0499802514095791
180518	50	486	0	0	rack2	1269	177	1	stimuli\rack2\rack2_08s.jpg	7	-1	1	0	rack2_08s.jpg	0	0	0	156.694243166014	156.744225855567	0.0499826895538718
180618	50	487	0	0	skunk	1459	178	1	stimuli\skunk\skunk_12s.jpg	11	-1	1	0	skunk_12s.jpg	0	0	0	156.794245360303	156.844224392669	0.0499790323665366
180718	50	488	0	0	watch	1786	179	1	stimuli\watch\watch_05s.jpg	4	-1	1	0	watch_05s.jpg	0	0	0	156.894247310818	156.944227562228	0.0499802514095791
180818	50	489	0	0	projector	1242	180	1	stimuli\projector\projector_04s.jpg	3	-1	1	0	projector_04s.jpg	0	0	0	156.99425072415	157.044230000291	0.0499792761402205
180918	50	490	0	0	creme_brulee	439	181	1	stimuli\creme_brulee\creme_brulee_10s.jpg	9	-1	1	1	creme_brulee_10s.jpg	0	0	0	157.094250724127	157.144233169849	0.0499824457219802
181018	50	491	0	0	parachute	1118	182	1	stimuli\parachute\parachute_04s.jpg	3	-1	1	0	parachute_04s.jpg	0	0	0	157.194254625065	157.24422512413	0.049970499065239
181118	50	492	0	0	duct_tape	528	183	1	stimuli\duct_tape\duct_tape_04s.jpg	3	-1	1	0	duct_tape_04s.jpg	0	0	0	157.294255356537	157.344240727951	0.0499853714136407
181218	50	493	0	0	soy_sauce	1500	184	1	stimuli\soy_sauce\soy_sauce_02s.jpg	1	-1	1	0	soy_sauce_02s.jpg	1	0.351512351422571	1	157.394259988912	157.444241946971	0.0499819580581971
181318	50	494	0	0	chalk	302	185	1	stimuli\chalk\chalk_10s.jpg	9	-1	1	0	chalk_10s.jpg	0	0	0	157.494264133682	157.544240484131	0.04997635044856
181418	50	495	0	0	windshield_wiper	1821	186	1	stimuli\windshield_wiper\windshield_wiper_09s.jpg	8	-1	1	0	windshield_wiper_09s.jpg	0	0	0	157.594266815577	157.64425023651	0.0499834209331311
181518	50	496	0	0	bird	128	187	1	stimuli\bird\bird_12s.jpg	11	-1	1	0	bird_12s.jpg	0	0	0	157.694268034596	157.744248286006	0.0499802514095791
181618	50	497	0	0	revolver	1304	188	1	stimuli\revolver\revolver_08s.jpg	7	-1	1	0	revolver_08s.jpg	0	0	0	157.794270960323	157.844253893651	0.0499829333275557
181718	50	498	0	0	whipped_cream	1810	189	1	stimuli\whipped_cream\whipped_cream_02s.jpg	1	-1	1	0	whipped_cream_02s.jpg	0	0	0	157.89427388605	157.944255112729	0.0499812266789377
181818	50	499	0	0	camera_lens	248	190	1	stimuli\camera_lens\camera_lens_01b.jpg	0	-1	1	0	camera_lens_01b.jpg	0	0	0	157.994274617464	158.044263402233	0.0499887847690843
181918	50	500	0	0	dumbbell	530	191	1	stimuli\dumbbell\dumbbell_09s.jpg	8	-1	1	0	dumbbell_09s.jpg	0	0	0	158.094280712714	158.144262183167	0.0499814704526216
182018	50	501	0	0	fountain_pen	637	192	1	stimuli\fountain_pen\fountain_pen_08s.jpg	7	-1	1	0	fountain_pen_08s.jpg	0	0	0	158.19428729557	158.244265108893	0.049977813323494
182118	50	502	0	0	doorbell	507	193	1	stimuli\doorbell\doorbell_11s.jpg	10	-1	1	0	doorbell_11s.jpg	0	0	0	158.294284369855	158.344266815577	0.0499824457219802
182218	50	503	0	0	aquarium	34	194	1	stimuli\aquarium\aquarium_02s.jpg	1	-1	1	0	aquarium_02s.jpg	0	0	0	158.39429095271	158.444269985077	0.0499790323665366
182318	50	504	0	0	thread	1651	195	1	stimuli\thread\thread_08s.jpg	7	-1	1	0	thread_08s.jpg	0	0	0	158.494292171788	158.544273154635	0.0499809828470461
182418	50	505	0	0	grape	702	196	1	stimuli\grape\grape_01b.jpg	0	-1	1	0	grape_01b.jpg	0	0	0	158.594295828894	158.644273642218	0.049977813323494
182518	50	506	0	0	pogo_stick	1208	197	1	stimuli\pogo_stick\pogo_stick_09s.jpg	8	-1	1	0	pogo_stick_09s.jpg	0	0	0	158.694267790823	158.744282906991	0.0500151161686517
182618	50	507	0	0	thorn	1650	198	1	stimuli\thorn\thorn_08s.jpg	7	-1	1	0	thorn_08s.jpg	0	0	0	158.794298510824	158.844279006065	0.0499804952414706
182718	50	508	0	0	corkboard	410	199	1	stimuli\corkboard\corkboard_02s.jpg	1	-1	1	0	corkboard_02s.jpg	0	0	0	158.89430143655	158.94428168796	0.0499802514095791
182818	50	509	0	0	glue	681	200	1	stimuli\glue\glue_04s.jpg	3	-1	1	0	glue_04s.jpg	0	0	0	158.994307287969	159.044286564167	0.0499792761984281
182918	50	510	0	0	boat	154	201	1	stimuli\boat\boat_04s.jpg	3	-1	1	0	boat_04s.jpg	0	0	0	159.094307044172	159.144288758456	0.0499817142845131
183018	50	511	0	0	gravestone	710	202	1	stimuli\gravestone\gravestone_08s.jpg	7	-1	1	0	gravestone_08s.jpg	0	0	0	159.194310213672	159.244292415562	0.0499822018900886
183118	50	512	0	0	diskette	493	203	1	stimuli\diskette\diskette_10s.jpg	9	-1	1	0	diskette_10s.jpg	0	0	0	159.294310945144	159.344291927933	0.0499809827888384
183218	50	513	0	0	roof_rack	1329	204	1	stimuli\roof_rack\roof_rack_12s.jpg	11	-1	1	0	roof_rack_12s.jpg	0	0	0	159.394316796563	159.444297535578	0.0499807390151545
183318	50	514	0	0	microphone	998	205	1	stimuli\microphone\microphone_03s.jpg	2	-1	1	0	microphone_03s.jpg	0	0	0	159.494264621288	159.544296804175	0.0500321828876622
183418	50	515	0	0	shoe_polish	1424	206	1	stimuli\shoe_polish\shoe_polish_06s.jpg	5	-1	1	0	shoe_polish_06s.jpg	0	0	0	159.594317527954	159.644308019371	0.0499904914177023
183518	50	516	0	0	saffron	1345	207	1	stimuli\saffron\saffron_03s.jpg	2	-1	1	0	saffron_03s.jpg	0	0	0	159.694325086079	159.744306800363	0.0499817142845131
183618	50	517	0	0	cheeseburger	313	208	1	stimuli\cheeseburger\cheeseburger_09s.jpg	8	-1	1	0	cheeseburger_09s.jpg	0	0	0	159.794325573719	159.844302655605	0.049977081886027
183718	50	518	0	0	hobbyhorse	782	209	1	stimuli\hobbyhorse\hobbyhorse_04s.jpg	3	-1	1	0	hobbyhorse_04s.jpg	0	0	0	159.894331912743	159.944333619438	0.0500017066951841
183818	50	519	0	0	chips	335	210	1	stimuli\chips\chips_12s.jpg	11	-1	1	1	chips_12s.jpg	0	0	0	159.994330206071	160.044308750832	0.0499785447609611
183918	50	520	0	0	backscratcher	50	211	1	stimuli\backscratcher\backscratcher_09s.jpg	8	-1	1	0	backscratcher_09s.jpg	0	0	0	160.094330206106	160.144314114645	0.0499839085387066
184018	50	521	0	0	filter	587	212	1	stimuli\filter\filter_08s.jpg	7	-1	1	0	filter_08s.jpg	0	0	0	160.194340446091	160.244317284145	0.0499768380541354
184118	50	522	0	0	elephant	554	213	1	stimuli\elephant\elephant_07n.jpg	6	-1	1	0	elephant_07n.jpg	0	0	0	160.294338495587	160.34431923466	0.0499807390733622
184218	50	523	0	0	hamburger	740	214	1	stimuli\hamburger\hamburger_02s.jpg	1	-1	1	0	hamburger_02s.jpg	0	0	0	160.394339958439	160.444324354641	0.0499843962024897
184318	50	524	0	0	shield	1420	215	1	stimuli\shield\shield_07s.jpg	6	-1	1	0	shield_07s.jpg	1	0.492184924776666	1	160.494342884165	160.544324110844	0.0499812266789377
184418	50	525	0	0	shutter	1440	216	1	stimuli\shutter\shutter_10s.jpg	9	-1	1	0	shutter_10s.jpg	0	0	0	160.594341665157	160.644334107055	0.0499924418982118
184518	50	526	0	0	monkey	1017	217	1	stimuli\monkey\monkey_06s.jpg	5	-1	1	0	monkey_06s.jpg	0	0	0	160.694353124185	160.744333131821	0.0499800076358952
184618	50	527	0	0	shovel	1432	218	1	stimuli\shovel\shovel_12s.jpg	11	-1	1	0	shovel_12s.jpg	0	0	0	160.794352148951	160.844332887966	0.0499807390151545
184718	50	528	0	0	envelope	558	219	1	stimuli\envelope\envelope_09s.jpg	8	-1	1	0	envelope_09s.jpg	0	0	0	160.894367508939	160.944343128009	0.0499756190693006
184818	50	529	0	0	eggplant	550	220	1	stimuli\eggplant\eggplant_12s.jpg	11	-1	1	0	eggplant_12s.jpg	0	0	0	160.994368971791	161.044339227024	0.0499702552333474
184918	50	530	0	0	sandpaper	1356	221	1	stimuli\sandpaper\sandpaper_04s.jpg	3	-1	1	0	sandpaper_04s.jpg	0	0	0	161.094359950861	161.144348248024	0.0499882971635088
185018	50	531	0	0	gauge	663	222	1	stimuli\gauge\gauge_02s.jpg	1	-1	1	0	gauge_02s.jpg	0	0	0	161.194364339462	161.244344590872	0.0499802514095791
185118	50	532	0	0	grill	714	223	1	stimuli\grill\grill_10s.jpg	9	-1	1	0	grill_10s.jpg	0	0	0	161.294372141361	161.344291927933	0.0499197865719907
185218	50	533	0	0	boot	169	224	1	stimuli\boot\boot_09s.jpg	8	-1	1	0	boot_09s.jpg	0	0	0	161.394370190857	161.444348735618	0.0499785447609611
185318	50	534	0	0	gourd	696	225	1	stimuli\gourd\gourd_09s.jpg	8	-1	1	0	gourd_09s.jpg	0	0	0	161.494370922272	161.544352148951	0.0499812266789377
185418	50	535	0	0	omelet	1076	226	1	stimuli\omelet\omelet_04n.jpg	3	-1	1	0	omelet_04n.jpg	0	0	0	161.594377748959	161.644354830845	0.049977081886027
185518	50	536	0	0	cheese	312	227	1	stimuli\cheese\cheese_05n.jpg	4	-1	1	0	cheese_05n.jpg	0	0	0	161.694357512752	161.744358000404	0.0500004876521416
185618	50	537	0	0	baklava	57	228	1	stimuli\baklava\baklava_01s.jpg	0	-1	1	0	baklava_01s.jpg	0	0	0	161.794377017533	161.844359950861	0.0499829333275557
185718	50	538	0	0	tractor	1695	229	1	stimuli\tractor\tractor_03s.jpg	2	-1	1	0	tractor_03s.jpg	0	0	0	161.894388232788	161.944362388982	0.0499741561943665
185818	50	539	0	0	pump	1252	230	1	stimuli\pump\pump_07s.jpg	6	-1	1	0	pump_07s.jpg	0	0	0	161.994386282284	162.044349467033	0.0499631847487763
185918	50	540	0	0	swordfish	1603	231	1	stimuli\swordfish\swordfish_02s.jpg	1	-1	1	0	swordfish_02s.jpg	0	0	0	162.094374335604	162.144358244201	0.0499839085969143
186018	50	541	0	0	rudder	1339	232	1	stimuli\rudder\rudder_02s.jpg	1	-1	1	0	rudder_02s.jpg	0	0	0	162.194380674686	162.244356537529	0.0499758628429845
186118	50	542	0	0	bag	54	233	1	stimuli\bag\bag_11s.jpg	10	-1	1	0	bag_11s.jpg	0	0	0	162.294384088018	162.344363120385	0.0499790323665366
186218	50	543	0	0	chisel	336	234	1	stimuli\chisel\chisel_12s.jpg	11	-1	1	0	chisel_12s.jpg	0	0	0	162.394382625178	162.444376773725	0.0499941485468298
186318	50	544	0	0	harmonica	753	235	1	stimuli\harmonica\harmonica_05s.jpg	4	-1	1	0	harmonica_05s.jpg	0	0	0	162.494383600424	162.5443682404	0.0499846399761736
186418	50	545	0	0	dial	483	236	1	stimuli\dial\dial_03s.jpg	2	-1	1	1	dial_03s.jpg	0	0	0	162.594391158491	162.644366777502	0.0499756190110929
186518	50	546	0	0	scale	1371	237	1	stimuli\scale\scale_05s.jpg	4	-1	1	0	scale_05s.jpg	0	0	0	162.694391158526	162.744370190892	0.0499790323665366
186618	50	547	0	0	aardvark	0	238	1	stimuli\aardvark\aardvark_03s.jpg	2	-1	1	0	aardvark_03s.jpg	0	0	0	162.794413345167	162.844373604225	0.0499602590571158
186718	50	548	0	0	juice	854	239	1	stimuli\juice\juice_02s.jpg	1	-1	1	0	juice_02s.jpg	1	0.341929656045977	1	162.894396766147	162.944376773725	0.0499800075776875
186819	50	549	0	0	hamster	743	240	1	stimuli\hamster\hamster_11s.jpg	10	-1	1	0	hamster_11s.jpg	0	0	0	162.994439432805	163.044393596589	0.0499541637836955
186918	50	550	0	0	toad	1664	241	1	stimuli\toad\toad_04s.jpg	3	-1	1	0	toad_04s.jpg	0	0	0	163.094402617542	163.144383844221	0.0499812266789377
187018	50	551	0	0	speedboat	1511	242	1	stimuli\speedboat\speedboat_04s.jpg	3	-1	1	0	speedboat_04s.jpg	0	0	0	163.194402129913	163.24438603851	0.0499839085969143
187118	50	552	0	0	yoke	1849	243	1	stimuli\yoke\yoke_07s.jpg	6	-1	1	0	yoke_07s.jpg	0	0	0	163.294407493726	163.344389451842	0.0499819581164047
187218	50	553	0	0	pumpkin	1253	244	1	stimuli\pumpkin\pumpkin_11s.jpg	10	-1	1	0	pumpkin_11s.jpg	0	0	0	163.394417246105	163.444387501338	0.0499702552333474
187318	50	554	0	0	chick	321	245	1	stimuli\chick\chick_02s.jpg	1	-1	1	0	chick_02s.jpg	0	0	0	163.494412369968	163.544420903258	0.050008533289656
187418	50	555	0	0	coat_rack	370	246	1	stimuli\coat_rack\coat_rack_05s.jpg	4	-1	1	0	coat_rack_05s.jpg	0	0	0	163.59441383282	163.644392621354	0.049978788534645
187518	50	556	0	0	beachball	99	247	1	stimuli\beachball\beachball_05s.jpg	4	-1	1	0	beachball_05s.jpg	0	0	0	163.694416027109	163.744389695639	0.0499736685305834
187618	50	557	0	0	jukebox	857	248	1	stimuli\jukebox\jukebox_07s.jpg	6	-1	1	0	jukebox_07s.jpg	0	0	0	163.794417733734	163.844398472807	0.0499807390733622
187718	50	558	0	0	wallet	1776	249	1	stimuli\wallet\wallet_03s.jpg	2	-1	1	0	wallet_03s.jpg	0	0	0	163.894418952812	163.944409200398	0.0499902475858107
187818	50	559	0	0	jalapeno	838	250	1	stimuli\jalapeno\jalapeno_12s.jpg	11	-1	1	0	jalapeno_12s.jpg	0	0	0	163.994425291836	164.044405299472	0.0499800076358952
187918	50	560	0	0	float	616	251	1	stimuli\float\float_11s.jpg	10	-1	1	0	float_11s.jpg	0	0	0	164.094425048039	164.144414076582	0.0499890285427682
188018	50	561	0	0	barrel	76	252	1	stimuli\barrel\barrel_08s.jpg	7	-1	1	0	barrel_08s.jpg	0	0	0	164.19443016802	164.24440968805	0.0499795200303197
188118	50	562	0	0	scallion	1372	253	1	stimuli\scallion\scallion_03s.jpg	2	-1	1	0	scallion_03s.jpg	0	0	0	164.29440700612	164.344413588988	0.0500065828673542
188218	50	563	0	0	fly	621	254	1	stimuli\fly\fly_07s.jpg	6	-1	1	0	fly_07s.jpg	0	0	0	164.394434068992	164.444414320402	0.0499802514095791
188319	50	564	0	0	hail	732	255	1	stimuli\hail\hail_01b.jpg	0	-1	1	0	hail_01b.jpg	0	0	0	164.494474541396	164.544417246128	0.0499427047325298
188418	50	565	0	0	rim	1312	256	1	stimuli\rim\rim_04s.jpg	3	-1	1	0	rim_04s.jpg	0	0	0	164.594443089969	164.64444796613	0.0500048761605285
188518	50	566	0	0	mask	980	257	1	stimuli\mask\mask_11s.jpg	10	-1	1	0	mask_11s.jpg	0	0	0	164.694439920422	164.744419928058	0.0499800076358952
188618	50	567	0	0	eyeliner	567	258	1	stimuli\eyeliner\eyeliner_01s.jpg	0	-1	1	0	eyeliner_01s.jpg	0	0	0	164.794444796629	164.844422853785	0.0499780571553856
188719	50	568	0	0	hockey_stick	783	259	1	stimuli\hockey_stick\hockey_stick_06s.jpg	5	-1	1	0	hockey_stick_06s.jpg	0	0	0	164.894456255657	164.94442943664	0.0499731809832156
188819	50	569	0	0	handprint	750	260	1	stimuli\handprint\handprint_11s.jpg	10	-1	1	0	handprint_11s.jpg	0	0	0	164.994441627117	165.044402861386	0.0499612342682667
188919	50	570	0	0	thermometer	1646	261	1	stimuli\thermometer\thermometer_01b.jpg	0	-1	1	0	thermometer_01b.jpg	0	0	0	165.094456499501	165.144425048027	0.0499685485265218
189019	50	571	0	0	traffic_light	1696	262	1	stimuli\traffic_light\traffic_light_11s.jpg	10	-1	1	0	traffic_light_11s.jpg	0	0	0	165.194469909009	165.244431630883	0.0499617218738422
189119	50	572	0	0	whisk	1811	263	1	stimuli\whisk\whisk_05s.jpg	4	-1	1	0	whisk_05s.jpg	0	0	0	165.294451867114	165.344435531879	0.0499836647650227
189219	50	573	0	0	headscarf	768	264	1	stimuli\headscarf\headscarf_02s.jpg	1	-1	1	0	headscarf_02s.jpg	0	0	0	165.394462594704	165.444446747075	0.0499841523705982
189319	50	574	0	0	slide	1464	265	1	stimuli\slide\slide_11s.jpg	10	-1	1	0	slide_11s.jpg	0	0	0	165.494476491876	165.544445040461	0.0499685485847294
189419	50	575	0	0	bolo_tie	157	266	1	stimuli\bolo_tie\bolo_tie_07s.jpg	6	-1	1	0	bolo_tie_07s.jpg	0	0	0	165.594464545196	165.644458693801	0.0499941486050375
189519	50	576	0	0	patty	1126	267	1	stimuli\patty\patty_06s.jpg	5	-1	1	0	patty_06s.jpg	0	0	0	165.694471371884	165.744452842337	0.0499814704526216
189619	50	577	0	0	bike	123	268	1	stimuli\bike\bike_10s.jpg	9	-1	1	0	bike_10s.jpg	0	0	0	165.794449185196	165.844450891891	0.0500017066951841
189719	50	578	0	0	fast_food	572	269	1	stimuli\fast_food\fast_food_01b.jpg	0	-1	1	0	fast_food_01b.jpg	0	0	0	165.894486975682	165.944456255704	0.0499692800221965
189819	50	579	0	0	peanut_butter	1132	270	1	stimuli\peanut_butter\peanut_butter_03s.jpg	2	-1	1	0	peanut_butter_03s.jpg	0	0	0	165.994491851889	166.044458449993	0.0499665981042199
189919	50	580	0	0	figurine	582	271	1	stimuli\figurine\figurine_06s.jpg	5	-1	1	0	figurine_06s.jpg	0	0	0	166.094480880478	166.14448600047	0.0500051199924201
190019	50	581	0	0	lingerie	932	272	1	stimuli\lingerie\lingerie_12s.jpg	11	-1	1	0	lingerie_12s.jpg	0	0	0	166.194465276611	166.244462594739	0.0499973181285895
190119	50	582	0	0	music_box	1041	273	1	stimuli\music_box\music_box_12s.jpg	11	-1	1	0	music_box_12s.jpg	0	0	0	166.294483806181	166.344477223291	0.0499934171093628
190219	50	583	0	0	enchilada	556	274	1	stimuli\enchilada\enchilada_07s.jpg	6	-1	1	0	enchilada_07s.jpg	0	0	0	166.394486488076	166.444476979494	0.0499904914177023
190319	50	584	0	0	trophy	1717	275	1	stimuli\trophy\trophy_08s.jpg	7	-1	1	0	trophy_08s.jpg	0	0	0	166.494514769991	166.54447795474	0.0499631847487763
190419	50	585	0	0	gear	667	276	1	stimuli\gear\gear_03s.jpg	2	-1	1	0	gear_03s.jpg	0	0	0	166.594501360494	166.644470152853	0.0499687923584133
190519	50	586	0	0	beanbag	103	277	1	stimuli\beanbag\beanbag_12s.jpg	11	-1	1	0	beanbag_12s.jpg	0	0	0	166.694494777592	166.744475029001	0.0499802514095791
190619	50	587	0	0	hairspray	738	278	1	stimuli\hairspray\hairspray_05s.jpg	4	-1	1	0	hairspray_05s.jpg	0	0	0	166.794492827146	166.844479173771	0.0499863466247916
190719	50	588	0	0	train_car	1699	279	1	stimuli\train_car\train_car_06s.jpg	5	-1	1	0	train_car_06s.jpg	0	0	0	166.894511112885	166.94445308618	0.0499419732950628
190819	50	589	0	0	lettuce	920	280	1	stimuli\lettuce\lettuce_06n.jpg	5	-1	1	0	lettuce_06n.jpg	0	0	0	166.994496971893	167.044478442345	0.0499814704526216
190919	50	590	0	0	doll	499	281	1	stimuli\doll\doll_04s.jpg	3	-1	1	0	doll_04s.jpg	0	0	0	167.094523059553	167.144482343341	0.0499592837877572
191019	50	591	0	0	arugula	40	282	1	stimuli\arugula\arugula_09s.jpg	8	-1	1	0	arugula_09s.jpg	0	0	0	167.194521840487	167.244515501428	0.0499936609412543
191119	50	592	0	0	target	1627	283	1	stimuli\target\target_05s.jpg	4	-1	1	0	target_05s.jpg	0	0	0	167.294511844288	167.344490389049	0.0499785447609611
191219	50	593	0	0	soda	1490	284	1	stimuli\soda\soda_03s.jpg	2	-1	1	0	soda_03s.jpg	0	0	0	167.394521840499	167.444490145252	0.0499683047528379
191319	50	594	0	0	satellite_dish	1361	285	1	stimuli\satellite_dish\satellite_dish_06s.jpg	5	-1	1	0	satellite_dish_06s.jpg	0	0	0	167.494530130003	167.544494533795	0.0499644037918188
191419	50	595	0	0	flipper	615	286	1	stimuli\flipper\flipper_10s.jpg	9	-1	1	0	flipper_10s.jpg	0	0	0	167.594518670929	167.644497947127	0.0499792761984281
191519	50	596	0	0	mole	1014	287	1	stimuli\mole\mole_02s.jpg	1	-1	1	0	mole_02s.jpg	0	0	0	167.694534274749	167.744504042377	0.0499697676277719
191619	50	597	0	0	wok	1830	288	1	stimuli\wok\wok_06s.jpg	5	-1	1	0	wok_06s.jpg	0	0	0	167.794520621421	167.844506724272	0.0499861028511077
191719	50	598	0	0	cauliflower	288	289	1	stimuli\cauliflower\cauliflower_04s.jpg	3	-1	1	0	cauliflower_04s.jpg	0	0	0	167.894557924301	167.944521352882	0.0499634285806678
191819	50	599	0	0	outlet	1088	290	1	stimuli\outlet\outlet_08s.jpg	7	-1	1	0	outlet_08s.jpg	0	0	0	167.994551341457	168.044499653799	0.0499483123421669
191919	50	600	0	0	sand	1351	291	1	stimuli\sand\sand_11s.jpg	10	-1	1	0	sand_11s.jpg	0	0	0	168.094545977656	168.144513063307	0.0499670856515877
192019	50	601	0	0	ashtray	41	292	1	stimuli\ashtray\ashtray_04s.jpg	3	-1	1	0	ashtray_04s.jpg	0	0	0	168.194536712894	168.244519158558	0.0499824456637725
192119	50	602	0	0	groundhog	718	293	1	stimuli\groundhog\groundhog_04s.jpg	3	-1	1	0	groundhog_04s.jpg	0	0	0	168.294539638562	168.344512575713	0.049972937151324
192219	50	603	0	0	nutcracker	1067	294	1	stimuli\nutcracker\nutcracker_07s.jpg	6	-1	1	0	nutcracker_07s.jpg	0	0	0	168.394519158581	168.444525497616	0.0500063390354626
192319	50	604	0	0	baton4	95	295	1	stimuli\baton4\baton4_12s.jpg	11	-1	1	0	baton4_12s.jpg	0	0	0	168.494545490015	168.544532324304	0.0499868342885748
192419	50	605	0	0	wax_paper	1796	296	1	stimuli\wax_paper\wax_paper_12s.jpg	11	-1	1	0	wax_paper_12s.jpg	0	0	0	168.594560606231	168.644530617632	0.0499700114014558
192519	50	606	0	0	birthday_cake	132	297	1	stimuli\birthday_cake\birthday_cake_12s.jpg	11	-1	1	0	birthday_cake_12s.jpg	0	0	0	168.694552072906	168.74452696048	0.0499748875736259
192619	50	607	0	0	thermos	1647	298	1	stimuli\thermos\thermos_01b.jpg	0	-1	1	0	thermos_01b.jpg	0	0	0	168.794527935737	168.844526960514	0.0499990247772075
192719	50	608	0	0	christmas_card	340	299	1	stimuli\christmas_card\christmas_card_04s.jpg	3	-1	1	0	christmas_card_04s.jpg	0	0	0	168.894554998609	168.944537200499	0.0499822018900886
192819	50	609	0	0	crane	431	300	1	stimuli\crane\crane_09s.jpg	8	-1	1	0	crane_09s.jpg	0	0	0	168.994556461461	169.044533055741	0.0499765942804515
192919	50	610	0	0	macaroni	952	301	1	stimuli\macaroni\macaroni_08s.jpg	7	-1	1	0	macaroni_08s.jpg	0	0	0	169.094583768165	169.144538419554	0.049954651389271
193019	50	611	0	0	dogfood	496	302	1	stimuli\dogfood\dogfood_01b.jpg	0	-1	1	0	dogfood_01b.jpg	0	0	0	169.194575234782	169.244538907136	0.0499636723543517
193119	50	612	0	0	cheesecake	314	303	1	stimuli\cheesecake\cheesecake_09s.jpg	8	-1	1	0	cheesecake_09s.jpg	0	0	0	169.294562069059	169.344545002386	0.0499829333275557
193219	50	613	0	0	bat1	87	304	1	stimuli\bat1\bat1_11s.jpg	10	-1	1	0	bat1_11s.jpg	0	0	0	169.394565970055	169.444549878594	0.0499839085387066
193319	50	614	0	0	taxi	1630	305	1	stimuli\taxi\taxi_04s.jpg	3	-1	1	0	taxi_04s.jpg	0	0	0	169.494571577641	169.544549390965	0.049977813323494
193419	50	615	0	0	gun	727	306	1	stimuli\gun\gun_04s.jpg	3	-1	1	0	gun_04s.jpg	0	0	0	169.594571090012	169.644551585254	0.0499804952414706
193519	50	616	0	0	crepe	440	307	1	stimuli\crepe\crepe_02s.jpg	1	-1	1	0	crepe_02s.jpg	0	0	0	169.694586450059	169.744552804332	0.0499663542723283
193619	50	617	0	0	dish	489	308	1	stimuli\dish\dish_10s.jpg	9	-1	1	0	dish_10s.jpg	0	0	0	169.794580110989	169.844577916723	0.049997805734165
197002	50	618	0	0	vacuum	1750	0	2	stimuli\vacuum\vacuum_09s.jpg	8	-1	2	0	vacuum_09s.jpg	0	0	0	173.17802738474	173.227996177098	0.0499687923584133
197102	50	619	0	0	guillotine	721	1	2	stimuli\guillotine\guillotine_07s.jpg	6	-1	2	0	guillotine_07s.jpg	0	0	0	173.278018607583	173.327999834204	0.04998122662073
197202	50	620	0	0	camper	249	2	2	stimuli\camper\camper_05s.jpg	4	-1	2	0	camper_05s.jpg	0	0	0	173.378017388517	173.428009098978	0.0499917104607448
197302	50	621	0	0	sunroof	1586	3	2	stimuli\sunroof\sunroof_06s.jpg	5	-1	2	0	sunroof_06s.jpg	0	0	0	173.478021533287	173.528002028528	0.0499804952414706
197402	50	622	0	0	fondue	626	4	2	stimuli\fondue\fondue_08n.jpg	7	-1	2	0	fondue_08n.jpg	0	0	0	173.578031041834	173.628007148509	0.0499761066748761
197502	50	623	0	0	baton1	92	5	2	stimuli\baton1\baton1_10s.jpg	9	-1	2	0	baton1_10s.jpg	0	0	0	173.67802933522	173.728011780884	0.0499824456637725
197602	50	624	0	0	phone_booth	1162	6	2	stimuli\phone_booth\phone_booth_02s.jpg	1	-1	2	0	phone_booth_02s.jpg	0	0	0	173.778033723764	173.828008611395	0.0499748876318336
197702	50	625	0	0	bin	125	7	2	stimuli\bin\bin_05s.jpg	4	-1	2	0	bin_05s.jpg	0	0	0	173.878033479967	173.928013731376	0.0499802514095791
197802	50	626	0	0	gate	662	8	2	stimuli\gate\gate_04s.jpg	3	-1	2	0	gate_04s.jpg	0	0	0	173.978037624736	174.028019582795	0.0499819580581971
197902	50	627	0	0	moccasin	1010	9	2	stimuli\moccasin\moccasin_08s.jpg	7	-1	2	0	moccasin_08s.jpg	0	0	0	174.078040550463	174.128022752353	0.0499822018900886
198002	50	628	0	0	bench	120	10	2	stimuli\bench\bench_07s.jpg	6	-1	2	0	bench_07s.jpg	0	0	0	174.178041281877	174.228027140896	0.0499858590192162
198102	50	629	0	0	beard	106	11	2	stimuli\beard\beard_10s.jpg	9	-1	2	0	beard_10s.jpg	0	0	0	174.278045182815	174.328025678056	0.0499804952414706
198202	50	630	0	0	panties	1107	12	2	stimuli\panties\panties_05s.jpg	4	-1	2	0	panties_05s.jpg	0	0	0	174.378046645666	174.428034455166	0.0499878094997257
198302	50	631	0	0	sink	1447	13	2	stimuli\sink\sink_01b.jpg	0	-1	2	0	sink_01b.jpg	0	0	0	174.478050302831	174.528033236158	0.0499829333275557
198402	50	632	0	0	garlic	658	14	2	stimuli\garlic\garlic_09s.jpg	8	-1	2	0	garlic_09s.jpg	0	0	0	174.578052740893	174.628034942842	0.0499822019482963
198502	50	633	0	0	juicer1	855	15	2	stimuli\juicer1\juicer1_07s.jpg	6	-1	2	0	juicer1_07s.jpg	0	0	0	174.67805859237	174.72803518665	0.0499765942804515
198602	50	634	0	0	barbed_wire	71	16	2	stimuli\barbed_wire\barbed_wire_08s.jpg	7	-1	2	0	barbed_wire_08s.jpg	0	0	0	174.778057129472	174.828039331362	0.0499822018900886
198702	50	635	0	0	cabbage	232	17	2	stimuli\cabbage\cabbage_07s.jpg	6	-1	2	0	cabbage_07s.jpg	0	0	0	174.87805834855	174.928042744752	0.0499843962024897
198802	50	636	0	0	dolphin	502	18	2	stimuli\dolphin\dolphin_05s.jpg	4	-1	2	0	dolphin_05s.jpg	0	0	0	174.9780644438	175.028042744729	0.0499783009290695
198902	50	637	0	0	checkers	311	19	2	stimuli\checkers\checkers_01b.jpg	0	-1	2	0	checkers_01b.jpg	0	0	0	175.078074927616	175.128046158061	0.0499712304444984
199002	50	638	0	0	cookie_cutter	401	20	2	stimuli\cookie_cutter\cookie_cutter_05s.jpg	4	-1	2	0	cookie_cutter_05s.jpg	0	0	0	175.178067125671	175.228051521874	0.0499843962024897
199102	50	639	0	0	footprint	632	21	2	stimuli\footprint\footprint_12s.jpg	11	-1	2	0	footprint_12s.jpg	0	0	0	175.278070782835	175.328052740893	0.0499819580581971
199202	50	640	0	0	touchpad	1691	22	2	stimuli\touchpad\touchpad_01b.jpg	0	-1	2	0	touchpad_01b.jpg	0	0	0	175.378074927605	175.428057860932	0.0499829333275557
199302	50	641	0	0	stuffing	1575	23	2	stimuli\stuffing\stuffing_06s.jpg	5	-1	2	0	stuffing_06s.jpg	0	0	0	175.478075902851	175.528057860909	0.0499819580581971
199402	50	642	0	0	loveseat	947	24	2	stimuli\loveseat\loveseat_10s.jpg	9	-1	2	0	loveseat_10s.jpg	1	0	0	175.578079559957	175.62808589905	0.0500063390936702
199502	50	643	0	0	hood	791	25	2	stimuli\hood\hood_05s.jpg	4	-1	2	0	hood_05s.jpg	0	0	0	175.678082973347	175.72806346853	0.049980495183263
199602	50	644	0	0	net	1057	26	2	stimuli\net\net_03s.jpg	2	-1	2	1	net_03s.jpg	0	0	0	175.778089312371	175.828067857132	0.0499785447609611
199702	50	645	0	0	flag	605	27	2	stimuli\flag\flag_02s.jpg	1	-1	2	0	flag_02s.jpg	0	0	0	175.878079072339	175.928060055187	0.0499809828470461
199802	50	646	0	0	antelope	26	28	2	stimuli\antelope\antelope_06n.jpg	5	-1	2	0	antelope_06n.jpg	0	0	0	175.978083704773	176.028056885698	0.0499731809250079
199902	50	647	0	0	skeleton	1450	29	2	stimuli\skeleton\skeleton_06s.jpg	5	-1	2	0	skeleton_06s.jpg	0	0	0	176.078082241875	176.128062737116	0.0499804952414706
200002	50	648	0	0	nail	1046	30	2	stimuli\nail\nail_08s.jpg	7	-1	2	0	nail_08s.jpg	1	0.408649148128461	1	176.17808687425	176.22806151805	0.049974643799942
200102	50	649	0	0	hubcap	809	31	2	stimuli\hubcap\hubcap_10s.jpg	9	-1	2	0	hubcap_10s.jpg	0	0	0	176.278086874285	176.328082729538	0.0499958552536555
200202	50	650	0	0	puck	1245	32	2	stimuli\puck\puck_09s.jpg	8	-1	2	0	puck_09s.jpg	0	0	0	176.378094188578	176.428068344714	0.0499741561361589
200302	50	651	0	0	hairdryer	735	33	2	stimuli\hairdryer\hairdryer_05s.jpg	4	-1	2	0	hairdryer_05s.jpg	0	0	0	176.478088093339	176.52807687805	0.0499887847108766
200402	50	652	0	0	pepper2	1150	34	2	stimuli\pepper2\pepper2_03s.jpg	2	-1	2	0	pepper2_03s.jpg	0	0	0	176.578096382844	176.628073220956	0.0499768381123431
200502	50	653	0	0	green_beans	712	35	2	stimuli\green_beans\green_beans_01b.jpg	0	-1	2	0	green_beans_01b.jpg	0	0	0	176.678118813317	176.728074683808	0.0499558704905212
