onset	duration	eventnumber	blocksequencenumber	isteststim	object	objectnumber	presentationnumber	sequencenumber	stim	stimnumber	teststimnumber	withinsequencenumber	istarget	stimname	response	rt	correct	time_stimon	time_stimoff	stimdur
45448	50	0	0	0	catfish	287	0	0	stimuli\catfish\catfish_07s.jpg	6	-1	0	0	catfish_07s.jpg	1	0	0	175.084567984311	175.134547943177	0.0499799588651513
45548	50	1	0	0	dogfood	496	1	0	stimuli\dogfood\dogfood_05s.jpg	4	-1	0	0	dogfood_05s.jpg	0	0	0	175.184580077261	175.234552234222	0.049972156961303
45648	50	2	0	0	backgammon	48	2	0	stimuli\backgammon\backgammon_10s.jpg	9	-1	0	0	backgammon_10s.jpg	0	0	0	175.284574128309	175.334550917651	0.0499767893415992
45748	50	3	0	0	punch2	1255	3	0	stimuli\punch2\punch2_04s.jpg	3	-1	0	0	punch2_04s.jpg	0	0	0	175.384574274594	175.434541067749	0.0499667931544536
45848	50	4	0	0	lemonade	915	4	0	stimuli\lemonade\lemonade_05s.jpg	4	-1	0	0	lemonade_05s.jpg	0	0	0	175.48457076374	175.534572177832	0.0500014140925487
45948	50	5	0	0	coffee	377	5	0	stimuli\coffee\coffee_10s.jpg	9	-1	0	0	coffee_10s.jpg	0	0	0	175.584589439542	175.635342274316	0.0507528347734478
46048	50	6	0	0	shredder	1437	6	0	stimuli\shredder\shredder_04s.jpg	3	-1	0	0	shredder_04s.jpg	0	0	0	175.684617380102	175.734571495166	0.0499541150638834
46148	50	7	0	0	camera1	246	7	0	stimuli\camera1\camera1_02s.jpg	1	-1	0	0	camera1_02s.jpg	0	0	0	175.78459485211	175.834571397645	0.0499765455351735
46248	50	8	0	0	spider_web	1514	8	0	stimuli\spider_web\spider_web_08s.jpg	7	-1	0	0	spider_web_08s.jpg	0	0	0	175.884597680302	175.934577639164	0.0499799588615133
46348	50	9	0	0	rose	1334	9	0	stimuli\rose\rose_10s.jpg	9	-1	0	0	rose_10s.jpg	0	0	0	175.984602946584	176.034566326409	0.0499633798244759
46448	50	10	0	0	webcam	1799	10	0	stimuli\webcam\webcam_11s.jpg	10	-1	0	0	webcam_11s.jpg	0	0	0	176.084583100495	176.134563546981	0.0499804464852787
46548	50	11	0	0	grate	707	11	0	stimuli\grate\grate_04s.jpg	3	-1	0	0	grate_04s.jpg	0	0	0	176.184603970585	176.234585392307	0.0499814217218955
46648	50	12	0	0	tape_measure	1623	12	0	stimuli\tape_measure\tape_measure_02s.jpg	1	-1	0	0	tape_measure_02s.jpg	0	0	0	176.284608505441	176.334585294782	0.0499767893415992
46748	50	13	0	0	windshield_wiper	1821	13	0	stimuli\windshield_wiper\windshield_wiper_09s.jpg	8	-1	0	0	windshield_wiper_09s.jpg	0	0	0	176.384590853635	176.434591780111	0.0500009264760592
46848	50	14	0	0	bonnet	163	14	0	stimuli\bonnet\bonnet_07s.jpg	6	-1	0	0	bonnet_07s.jpg	0	0	0	176.484615380865	176.53459509592	0.0499797150550876
46948	50	15	0	0	dartboard	474	15	0	stimuli\dartboard\dartboard_08s.jpg	7	-1	0	0	dartboard_08s.jpg	0	0	0	176.584614064293	176.634576956498	0.0499628922043485
47048	50	16	0	0	eggshell	551	16	0	stimuli\eggshell\eggshell_08s.jpg	7	-1	0	0	eggshell_08s.jpg	0	0	0	176.684618842959	176.734581491353	0.0499626483942848
47148	50	17	0	0	beaker	101	17	0	stimuli\beaker\beaker_01b.jpg	0	-1	0	0	beaker_01b.jpg	0	0	0	176.784624840671	176.83459967954	0.0499748388683656
47248	50	18	0	0	game	654	18	0	stimuli\game\game_07s.jpg	6	-1	0	0	game_07s.jpg	0	0	0	176.884603531726	176.934601288682	0.0499977569561452
47348	50	19	0	0	potato	1231	19	0	stimuli\potato\potato_06n.jpg	5	-1	0	0	potato_06n.jpg	0	0	0	176.984628790386	177.03460362925	0.0499748388647276
47448	50	20	0	0	clover	366	20	0	stimuli\clover\clover_07s.jpg	6	-1	0	0	clover_07s.jpg	0	0	0	177.0846116262	177.134605969823	0.0499943436225294
47548	50	21	0	0	peacock	1130	21	0	stimuli\peacock\peacock_07s.jpg	6	-1	0	0	peacock_07s.jpg	0	0	0	177.184628351526	177.234611236105	0.0499828845786396
47648	50	22	0	0	seismograph	1403	22	0	stimuli\seismograph\seismograph_04s.jpg	3	-1	0	0	seismograph_04s.jpg	0	0	0	177.284631911145	177.334612845247	0.0499809341017681
47748	50	23	0	0	space_shuttle	1501	23	0	stimuli\space_shuttle\space_shuttle_10s.jpg	9	-1	0	0	space_shuttle_10s.jpg	0	0	0	177.38463254505	177.434614454389	0.0499819093383849
47848	50	24	0	0	knitting	880	24	0	stimuli\knitting\knitting_10s.jpg	9	-1	0	0	knitting_10s.jpg	0	0	0	177.484639274189	177.534620208291	0.0499809341017681
47948	50	25	0	0	skeleton	1450	25	0	stimuli\skeleton\skeleton_02s.jpg	1	-1	0	0	skeleton_02s.jpg	0	0	0	177.584640639525	177.634618647913	0.0499780083882797
48048	50	26	0	0	whip	1809	26	0	stimuli\whip\whip_08s.jpg	7	-1	0	0	whip_08s.jpg	0	0	0	177.684626888669	177.734623426579	0.0499965379094647
48148	50	27	0	0	beachball	99	27	0	stimuli\beachball\beachball_07s.jpg	6	-1	0	0	beachball_07s.jpg	0	0	0	177.784645808282	177.834622353814	0.0499765455315355
48248	50	28	0	0	pine_tree	1181	28	0	stimuli\pine_tree\pine_tree_10s.jpg	9	-1	0	0	pine_tree_10s.jpg	0	0	0	177.884646685998	177.934627620099	0.0499809341017681
48348	50	29	0	0	wheat	1805	29	0	stimuli\wheat\wheat_04s.jpg	3	-1	0	0	wheat_04s.jpg	0	0	0	177.98465195228	178.034633861622	0.0499819093420228
48448	50	30	0	0	avocado	43	30	0	stimuli\avocado\avocado_11s.jpg	10	-1	0	0	avocado_11s.jpg	0	0	0	178.084634056668	178.134630350763	0.049996294095763
48548	50	31	0	0	pocketknife	1207	31	0	stimuli\pocketknife\pocketknife_02s.jpg	1	-1	0	0	pocketknife_02s.jpg	0	0	0	178.184653463901	178.234636104669	0.0499826407685759
48648	50	32	0	0	earring	540	32	0	stimuli\earring\earring_04n.jpg	3	-1	0	0	earring_04n.jpg	0	0	0	178.284658730183	178.334635519524	0.0499767893415992
48748	50	33	0	0	fossil	636	33	0	stimuli\fossil\fossil_01b.jpg	0	-1	0	0	fossil_01b.jpg	0	0	0	178.384644491711	178.434643711524	0.0499992198128894
48848	50	34	0	0	kayak	863	34	0	stimuli\kayak\kayak_02s.jpg	1	-1	0	0	kayak_02s.jpg	0	0	0	178.484664142754	178.534651415899	0.0499872731452342
48948	50	35	0	0	comb	389	35	0	stimuli\comb\comb_11s.jpg	10	-1	0	0	comb_11s.jpg	0	0	0	178.584651367139	178.634631569814	0.049980202675215
49048	50	36	0	0	coat	369	36	0	stimuli\coat\coat_02s.jpg	1	-1	0	0	coat_02s.jpg	0	0	0	178.684651757234	178.734650489423	0.049998732189124
49148	50	37	0	0	twig	1740	37	0	stimuli\twig\twig_08s.jpg	7	-1	0	0	twig_08s.jpg	0	0	0	178.7846565359	178.834654780472	0.0499982445726346
49248	50	38	0	0	butter	228	38	0	stimuli\butter\butter_11s.jpg	10	-1	0	0	butter_11s.jpg	0	0	0	178.884671554559	178.934642980093	0.0499714255347499
49348	50	39	0	0	place_mat	1193	39	0	stimuli\place_mat\place_mat_06s.jpg	5	-1	0	0	place_mat_06s.jpg	0	0	0	178.984661948467	179.034655073043	0.0499931245758489
49448	50	40	0	0	outfit	1087	40	0	stimuli\outfit\outfit_03s.jpg	2	-1	0	0	outfit_03s.jpg	0	0	0	179.08467599189	179.134641809807	0.0499658179178368
49548	50	41	0	0	sofa_bed	1492	41	0	stimuli\sofa_bed\sofa_bed_02s.jpg	1	-1	0	0	sofa_bed_02s.jpg	0	0	0	179.184679795319	179.234646588473	0.0499667931544536
49648	50	42	0	0	sunglasses	1585	42	0	stimuli\sunglasses\sunglasses_06s.jpg	5	-1	0	0	sunglasses_06s.jpg	0	0	0	179.284684330174	179.334666727133	0.0499823969585123
49748	50	43	0	0	petri_dish	1159	43	0	stimuli\petri_dish\petri_dish_09s.jpg	8	-1	0	0	petri_dish_09s.jpg	0	0	0	179.384685451696	179.434650781997	0.0499653303013474
49848	50	44	0	0	bin	125	44	0	stimuli\bin\bin_07s.jpg	6	-1	0	0	bin_07s.jpg	0	0	0	179.484689255125	179.534671408273	0.0499821531484486
49948	50	45	0	0	shorts	1430	45	0	stimuli\shorts\shorts_05s.jpg	4	-1	0	0	shorts_05s.jpg	0	0	0	179.584674041416	179.634674480272	0.0500004388559319
50048	50	46	0	0	gearshift	668	46	0	stimuli\gearshift\gearshift_03n.jpg	2	-1	0	1	gearshift_03n.jpg	0	0	0	179.684675650558	179.734678527508	0.0500028769492928
50148	50	47	0	0	punch1	1254	47	0	stimuli\punch1\punch1_09s.jpg	8	-1	0	0	punch1_09s.jpg	0	0	0	179.784696764455	179.834675504273	0.0499787398184708
50248	50	48	0	0	goblet	685	48	0	stimuli\goblet\goblet_03s.jpg	2	-1	0	0	goblet_03s.jpg	0	0	0	179.88469788598	179.934662728658	0.0499648426775821
50348	50	49	0	0	duffel_bag	529	49	0	stimuli\duffel_bag\duffel_bag_12s.jpg	11	-1	0	0	duffel_bag_12s.jpg	1	0.29222803788798	1	179.984710466546	180.034686036841	0.0499755702949187
50448	50	50	0	0	yogurt	1848	50	0	stimuli\yogurt\yogurt_12s.jpg	11	-1	0	0	yogurt_12s.jpg	0	0	0	180.0846891576	180.134685451696	0.049996294095763
50548	50	51	0	0	hotdog	805	51	0	stimuli\hotdog\hotdog_02s.jpg	1	-1	0	0	hotdog_02s.jpg	0	0	0	180.184710515307	180.234688523695	0.0499780083882797
50648	50	52	0	0	frame	639	52	0	stimuli\frame\frame_11s.jpg	10	-1	0	0	frame_11s.jpg	0	0	0	180.284710173975	180.334672334749	0.0499621607741574
50748	50	53	0	0	swing_set	1599	53	0	stimuli\swing_set\swing_set_07s.jpg	6	-1	0	0	swing_set_07s.jpg	0	0	0	180.38469349741	180.434677113415	0.0499836160051927
50848	50	54	0	0	washcloth	1783	54	0	stimuli\washcloth\washcloth_01b.jpg	0	-1	0	0	washcloth_01b.jpg	0	0	0	180.484711685593	180.534696276834	0.0499845912418095
50948	50	55	0	0	rope	1332	55	0	stimuli\rope\rope_02s.jpg	1	-1	0	0	rope_02s.jpg	0	0	0	180.584700129024	180.634699592643	0.0499994636193151
51048	50	56	0	0	needle	1055	56	0	stimuli\needle\needle_08s.jpg	7	-1	0	0	needle_08s.jpg	0	0	0	180.684707589593	180.734704615119	0.0499970255259541
51148	50	57	0	0	celery	291	57	0	stimuli\celery\celery_10s.jpg	9	-1	0	0	celery_10s.jpg	0	0	0	180.784724802539	180.834702567121	0.049977764581854
51248	50	58	0	0	fast_food	572	58	0	stimuli\fast_food\fast_food_04s.jpg	3	-1	0	0	fast_food_04s.jpg	0	0	0	180.884708125974	180.934692473409	0.0499843474353838
51348	50	59	0	0	toucan	1690	59	0	stimuli\toucan\toucan_10s.jpg	9	-1	0	0	toucan_10s.jpg	0	0	0	180.98472582654	181.034708223498	0.0499823969585123
51448	50	60	0	0	elephant	554	60	0	stimuli\elephant\elephant_09n.jpg	8	-1	0	0	elephant_09n.jpg	0	0	0	181.084727435682	181.134707150737	0.0499797150550876
51548	50	61	0	0	sawhorse	1367	61	0	stimuli\sawhorse\sawhorse_11s.jpg	10	-1	0	0	sawhorse_11s.jpg	0	0	0	181.184733433394	181.234712173213	0.0499787398184708
51648	50	62	0	0	shelf	1416	62	0	stimuli\shelf\shelf_06s.jpg	5	-1	0	0	shelf_06s.jpg	0	0	0	181.28473723682	181.334715732828	0.0499784960084071
51748	50	63	0	0	coffee_bean	378	63	0	stimuli\coffee_bean\coffee_bean_07s.jpg	6	-1	0	0	coffee_bean_07s.jpg	0	0	0	181.384720072638	181.434720023874	0.0499999512358045
51848	50	64	0	0	koala	884	64	0	stimuli\koala\koala_12s.jpg	11	-1	0	0	koala_12s.jpg	0	0	0	181.484741430344	181.534703591118	0.0499621607741574
51948	50	65	0	0	bead	100	65	0	stimuli\bead\bead_05s.jpg	4	-1	0	0	bead_05s.jpg	0	0	0	181.584741089009	181.634721291684	0.049980202675215
52048	50	66	0	0	granola	701	66	0	stimuli\granola\granola_05s.jpg	4	-1	0	0	granola_05s.jpg	0	0	0	181.684731970538	181.734723388447	0.049991417909041
52148	50	67	0	0	oven	1089	67	0	stimuli\oven\oven_07s.jpg	6	-1	0	1	oven_07s.jpg	0	0	0	181.784745526344	181.834723534732	0.0499780083882797
52248	50	68	0	0	bandage	66	68	0	stimuli\bandage\bandage_11s.jpg	10	-1	0	0	bandage_11s.jpg	0	0	0	181.884743478342	181.934715391497	0.0499719131548773
52348	50	69	0	0	jump_rope	858	69	0	stimuli\jump_rope\jump_rope_07s.jpg	6	-1	0	0	jump_rope_07s.jpg	0	0	0	181.984746062724	182.03472992254	0.0499838598152564
52448	50	70	0	0	drain	515	70	0	stimuli\drain\drain_07s.jpg	6	-1	0	0	drain_07s.jpg	1	0.341902747339191	1	182.084748647103	182.134734457395	0.049985810292128
52548	50	71	0	0	mug	1036	71	0	stimuli\mug\mug_05s.jpg	4	-1	0	0	mug_05s.jpg	0	0	0	182.184768785763	182.234740455107	0.0499716693448136
52648	50	72	0	0	figurine	582	72	0	stimuli\figurine\figurine_12s.jpg	11	-1	0	0	figurine_12s.jpg	0	0	0	182.284756010147	182.334739382346	0.049983372198767
52748	50	73	0	0	nightstand	1059	73	0	stimuli\nightstand\nightstand_11s.jpg	10	-1	0	0	nightstand_11s.jpg	0	0	0	182.384743965962	182.434735627678	0.0499916617154668
52848	50	74	0	0	jalapeno	838	74	0	stimuli\jalapeno\jalapeno_10s.jpg	9	-1	0	0	jalapeno_10s.jpg	0	0	0	182.484785316043	182.53474601396	0.0499606979174132
52948	50	75	0	0	humvee	813	75	0	stimuli\humvee\humvee_07s.jpg	6	-1	0	0	humvee_07s.jpg	0	0	0	182.584764738527	182.634772491667	0.0500077531396528
53048	50	76	0	0	sandbag	1353	76	0	stimuli\sandbag\sandbag_03s.jpg	2	-1	0	0	sandbag_03s.jpg	0	0	0	182.684763421956	182.734751182721	0.0499877607653616
53148	50	77	0	0	water_fountain	1790	77	0	stimuli\water_fountain\water_fountain_07s.jpg	6	-1	0	0	water_fountain_07s.jpg	0	0	0	182.784775027285	182.834756205197	0.0499811779118318
53248	50	78	0	0	football	629	78	0	stimuli\football\football_01b.jpg	0	-1	0	0	football_01b.jpg	0	0	0	182.884777124043	182.934754157195	0.0499770331516629
53348	50	79	0	0	pepperoni	1153	79	0	stimuli\pepperoni\pepperoni_12s.jpg	11	-1	0	0	pepperoni_12s.jpg	0	0	0	182.984770687475	183.034761130144	0.0499904426687863
53448	50	80	0	0	headlight	765	80	0	stimuli\headlight\headlight_08s.jpg	7	-1	0	0	headlight_08s.jpg	0	0	0	183.084764007097	183.134737626915	0.0499736198180472
53548	50	81	0	0	walnut	1778	81	0	stimuli\walnut\walnut_04n.jpg	3	-1	0	0	walnut_04n.jpg	0	0	0	183.184759521002	183.234768980808	0.0500094598064607
53648	50	82	0	0	whoopee_cushion	1814	82	0	stimuli\whoopee_cushion\whoopee_cushion_09s.jpg	8	-1	0	0	whoopee_cushion_09s.jpg	0	0	0	183.284785023472	183.334765957574	0.0499809341017681
53748	50	83	0	0	bacon	51	83	0	stimuli\bacon\bacon_01b.jpg	0	-1	0	0	bacon_01b.jpg	0	0	0	183.384786632614	183.434771467666	0.0499848350518732
53848	50	84	0	0	flamingo	608	84	0	stimuli\flamingo\flamingo_08s.jpg	7	-1	0	0	flamingo_08s.jpg	0	0	0	183.484777514139	183.534771857761	0.0499943436225294
53948	50	85	0	0	pinball	1178	85	0	stimuli\pinball\pinball_05s.jpg	4	-1	0	0	pinball_05s.jpg	0	0	0	183.584793751848	183.63477419833	0.0499804464816407
54048	50	86	0	0	pomegranate	1219	86	0	stimuli\pomegranate\pomegranate_08s.jpg	7	-1	0	0	pomegranate_08s.jpg	0	0	0	183.68479511718	183.734776295092	0.0499811779118318
54148	50	87	0	0	pepper1	1149	87	0	stimuli\pepper1\pepper1_04s.jpg	3	-1	0	0	pepper1_04s.jpg	0	0	0	183.784797213943	183.834774490904	0.0499772769617266
54248	50	88	0	0	paper	1112	88	0	stimuli\paper\paper_08s.jpg	7	-1	0	0	paper_08s.jpg	0	0	0	183.884794434514	183.934775612426	0.0499811779118318
54348	50	89	0	0	orange_rind	1079	89	0	stimuli\orange_rind\orange_rind_10s.jpg	9	-1	0	0	orange_rind_10s.jpg	0	0	0	183.984802138893	184.034777952998	0.0499758141049824
54448	50	90	0	0	ladle	887	90	0	stimuli\ladle\ladle_10s.jpg	9	-1	0	0	ladle_10s.jpg	0	0	0	184.084793751848	184.134764689763	0.0499709379146225
54548	50	91	0	0	stew	1551	91	0	stimuli\stew\stew_09s.jpg	8	-1	0	0	stew_09s.jpg	0	0	0	184.184802919084	184.234788485563	0.0499855664784263
54648	50	92	0	0	school_bus	1378	92	0	stimuli\school_bus\school_bus_07s.jpg	6	-1	0	0	school_bus_07s.jpg	0	0	0	184.284809892033	184.334788631852	0.0499787398184708
54748	50	93	0	0	orchid	1081	93	0	stimuli\orchid\orchid_07s.jpg	6	-1	0	0	orchid_07s.jpg	0	0	0	184.384795653561	184.43479072861	0.0499950750490825
54848	50	94	0	0	kitten	875	94	0	stimuli\kitten\kitten_10s.jpg	9	-1	0	0	kitten_10s.jpg	0	0	0	184.484798237943	184.534793800609	0.0499955626655719
54948	50	95	0	0	bowtie	180	95	0	stimuli\bowtie\bowtie_11s.jpg	10	-1	0	0	bowtie_11s.jpg	0	0	0	184.58482325279	184.634800529751	0.0499772769617266
55048	50	96	0	0	bra	185	96	0	stimuli\bra\bra_02s.jpg	1	-1	0	0	bra_02s.jpg	0	0	0	184.684821448602	184.734804333177	0.0499828845750017
55148	50	97	0	0	lectern	908	97	0	stimuli\lectern\lectern_01b.jpg	0	-1	0	0	lectern_01b.jpg	0	0	0	184.784825739647	184.834790826135	0.0499650864876457
55248	50	98	0	0	gurney	728	98	0	stimuli\gurney\gurney_08s.jpg	7	-1	0	0	gurney_08s.jpg	0	0	0	184.884810769745	184.934807795271	0.0499970255259541
55348	50	99	0	0	broccoli	201	99	0	stimuli\broccoli\broccoli_08s.jpg	7	-1	0	0	broccoli_08s.jpg	0	0	0	184.984832615071	185.034812817747	0.049980202675215
55448	50	100	0	0	water_filter	1789	100	0	stimuli\water_filter\water_filter_07s.jpg	6	-1	0	0	water_filter_07s.jpg	0	0	0	185.084814719459	185.134811501175	0.0499967817158904
55548	50	101	0	0	wedding_cake	1800	101	0	stimuli\wedding_cake\wedding_cake_09s.jpg	8	-1	0	0	wedding_cake_09s.jpg	0	0	0	185.184834126692	185.234801651273	0.0499675245810067
55648	50	102	0	0	icicle	824	102	0	stimuli\icicle\icicle_09s.jpg	8	-1	0	0	icicle_09s.jpg	0	0	0	185.2848194006	185.334817401363	0.0499980007625709
55748	50	103	0	0	belt	118	103	0	stimuli\belt\belt_06s.jpg	5	-1	0	0	belt_06s.jpg	0	0	0	185.384824179266	185.434819985745	0.0499958064792736
55848	50	104	0	0	trunk	1722	104	0	stimuli\trunk\trunk_12s.jpg	11	-1	0	0	trunk_12s.jpg	0	0	0	185.484843342689	185.534821107267	0.049977764578216
55948	50	105	0	0	cooler	403	105	0	stimuli\cooler\cooler_04s.jpg	3	-1	0	0	cooler_04s.jpg	0	0	0	185.584844708021	185.634812720222	0.0499680122011341
56048	50	106	0	0	nail_file	1048	106	0	stimuli\nail_file\nail_file_06s.jpg	5	-1	0	0	nail_file_06s.jpg	0	0	0	185.684834126692	185.734829201741	0.0499950750490825
56148	50	107	0	0	dirt_bike	488	107	0	stimuli\dirt_bike\dirt_bike_07s.jpg	6	-1	0	0	dirt_bike_07s.jpg	0	0	0	185.784851583445	185.834813744223	0.0499621607777954
56248	50	108	0	0	ice_pack	820	108	0	stimuli\ice_pack\ice_pack_02s.jpg	1	-1	0	0	ice_pack_02s.jpg	0	0	0	185.884850510683	185.934835101929	0.0499845912454475
56348	50	109	0	0	almond	13	109	0	stimuli\almond\almond_03s.jpg	2	-1	0	0	almond_03s.jpg	0	0	0	185.984854314112	186.034835735834	0.0499814217218955
56448	50	110	0	0	breakfast	197	110	0	stimuli\breakfast\breakfast_06s.jpg	5	-1	0	0	breakfast_06s.jpg	0	0	0	186.084858117538	186.13483978307	0.0499816655319592
56548	50	111	0	0	lobster	939	111	0	stimuli\lobster\lobster_01b.jpg	0	-1	0	0	lobster_01b.jpg	0	0	0	186.18486411525	186.234841879832	0.049977764581854
56648	50	112	0	0	confetti	396	112	0	stimuli\confetti\confetti_06s.jpg	5	-1	0	1	confetti_06s.jpg	0	0	0	186.284862554872	186.33482788517	0.0499653302977094
56748	50	113	0	0	clasp	351	113	0	stimuli\clasp\clasp_10s.jpg	9	-1	0	0	clasp_10s.jpg	0	0	0	186.384867577344	186.434849486686	0.0499819093420228
56848	50	114	0	0	ballot_box	61	114	0	stimuli\ballot_box\ballot_box_01b.jpg	0	-1	0	0	ballot_box_01b.jpg	0	0	0	186.484871136963	186.534835004404	0.0499638674409653
56948	50	115	0	0	parfait	1119	115	0	stimuli\parfait\parfait_03s.jpg	2	-1	0	0	parfait_03s.jpg	1	0.307529274195986	1	186.584872746105	186.634836125926	0.0499633798208379
57048	50	116	0	0	hearing_aid	770	116	0	stimuli\hearing_aid\hearing_aid_07s.jpg	6	-1	0	0	hearing_aid_07s.jpg	0	0	0	186.684873380011	186.734854314112	0.0499809341017681
57148	50	117	0	0	grille	715	117	0	stimuli\grille\grille_11s.jpg	10	-1	0	0	grille_11s.jpg	0	0	0	186.78488084058	186.834854948018	0.0499741074381745
57248	50	118	0	0	wood	1833	118	0	stimuli\wood\wood_06s.jpg	5	-1	0	0	wood_06s.jpg	0	0	0	186.884882937338	186.934858263823	0.049975326484855
57348	50	119	0	0	gift	672	119	0	stimuli\gift\gift_12s.jpg	11	-1	0	0	gift_12s.jpg	0	0	0	186.98488137696	187.034848657731	0.049967280770943
57448	50	120	0	0	gyroscope	731	120	0	stimuli\gyroscope\gyroscope_07s.jpg	6	-1	0	0	gyroscope_07s.jpg	0	0	0	187.084872014675	187.134870990678	0.0499989760028257
57548	50	121	0	0	ravioli	1289	121	0	stimuli\ravioli\ravioli_05s.jpg	4	-1	0	0	ravioli_05s.jpg	0	0	0	187.184887277148	187.234866992203	0.0499797150550876
57648	50	122	0	0	comic_book	391	122	0	stimuli\comic_book\comic_book_11s.jpg	10	-1	0	0	comic_book_11s.jpg	0	0	0	187.284886692003	187.334870795628	0.0499841036253201
57748	50	123	0	0	velcro	1756	123	0	stimuli\velcro\velcro_03s.jpg	2	-1	0	0	velcro_03s.jpg	0	0	0	187.384889764002	187.434870941914	0.0499811779118318
57848	50	124	0	0	barnacle	75	124	0	stimuli\barnacle\barnacle_11s.jpg	10	-1	0	0	barnacle_11s.jpg	0	0	0	187.484903075998	187.534879377723	0.0499763017251098
57948	50	125	0	0	bird	128	125	0	stimuli\bird\bird_03s.jpg	2	-1	0	0	bird_03s.jpg	0	0	0	187.58489663943	187.634861482111	0.04996484268122
58048	50	126	0	0	paint	1096	126	0	stimuli\paint\paint_07s.jpg	6	-1	0	0	paint_07s.jpg	0	0	0	187.684898980002	187.734878938863	0.0499799588615133
58148	50	127	0	0	carousel	275	127	0	stimuli\carousel\carousel_04n.jpg	3	-1	0	0	carousel_04n.jpg	0	0	0	187.784886692003	187.834867138488	0.0499804464852787
58248	50	128	0	0	taxi	1630	128	0	stimuli\taxi\taxi_11s.jpg	10	-1	0	0	taxi_11s.jpg	0	0	0	187.884903661143	187.934887277148	0.0499836160051927
58348	50	129	0	0	sweet_potato	1595	129	0	stimuli\sweet_potato\sweet_potato_04s.jpg	3	-1	0	0	sweet_potato_04s.jpg	0	0	0	187.984891616954	188.034871819629	0.049980202675215
58448	50	130	0	0	roller_coaster	1325	130	0	stimuli\roller_coaster\roller_coaster_10s.jpg	9	-1	0	0	roller_coaster_10s.jpg	0	0	0	188.08489298229	188.134889276385	0.049996294095763
58548	50	131	0	0	spider	1513	131	0	stimuli\spider\spider_02s.jpg	1	-1	0	0	spider_02s.jpg	0	0	0	188.184896298095	188.234894055051	0.0499977569561452
58648	50	132	0	0	corn	412	132	0	stimuli\corn\corn_05s.jpg	4	-1	0	0	corn_05s.jpg	0	0	0	188.284914730091	188.334895664193	0.0499809341017681
58748	50	133	0	0	rust	1342	133	0	stimuli\rust\rust_08s.jpg	7	-1	0	0	rust_08s.jpg	0	0	0	188.384900735429	188.434901418095	0.0500006826659956
58848	50	134	0	0	shield	1420	134	0	stimuli\shield\shield_05s.jpg	4	-1	0	1	shield_05s.jpg	0	0	0	188.484923799802	188.534900345334	0.0499765455315355
58948	50	135	0	0	brussels_sprouts	206	135	0	stimuli\brussels_sprouts\brussels_sprouts_05s.jpg	4	-1	0	0	brussels_sprouts_05s.jpg	0	0	0	188.584920532754	188.634907562093	0.0499870293388085
59048	50	136	0	0	beard	106	136	0	stimuli\beard\beard_04s.jpg	3	-1	0	0	beard_04s.jpg	0	0	0	188.684927749513	188.734904782665	0.0499770331516629
59148	50	137	0	0	cooker	399	137	0	stimuli\cooker\cooker_11s.jpg	10	-1	0	0	cooker_11s.jpg	0	0	0	188.784932284369	188.834894688953	0.0499624045842211
59248	50	138	0	0	javelin	841	138	0	stimuli\javelin\javelin_01s.jpg	0	-1	0	0	javelin_01s.jpg	1	0.392145045156212	1	188.88492950494	188.934895322858	0.0499658179178368
59348	50	139	0	0	camper	249	139	0	stimuli\camper\camper_08s.jpg	7	-1	0	0	camper_08s.jpg	0	0	0	188.984933308369	189.034916680564	0.049983372195129
59448	50	140	0	0	tractor	1695	140	0	stimuli\tractor\tractor_10n.jpg	9	-1	0	0	tractor_10n.jpg	0	0	0	189.084943694652	189.134901954476	0.0499582598240522
59548	50	141	0	0	chalk	302	141	0	stimuli\chalk\chalk_01b.jpg	0	-1	0	0	chalk_01b.jpg	0	0	0	189.184943597127	189.234918923612	0.049975326484855
59648	50	142	0	0	plug	1202	142	0	stimuli\plug\plug_08s.jpg	7	-1	0	0	plug_08s.jpg	0	0	0	189.284940573889	189.334920776564	0.049980202675215
59748	50	143	0	0	log	943	143	0	stimuli\log\log_02s.jpg	1	-1	0	0	log_02s.jpg	0	0	0	189.384942670651	189.434924579989	0.0499819093383849
59848	50	144	0	0	bat2	88	144	0	stimuli\bat2\bat2_10s.jpg	9	-1	0	0	bat2_10s.jpg	0	0	0	189.48494574265	189.534926432942	0.0499806902917044
59948	50	145	0	0	camel	245	145	0	stimuli\camel\camel_04s.jpg	3	-1	0	0	camel_04s.jpg	0	0	0	189.584947595602	189.634928285894	0.0499806902917044
60048	50	146	0	0	mosquito	1020	146	0	stimuli\mosquito\mosquito_10s.jpg	9	-1	0	0	mosquito_10s.jpg	0	0	0	189.684952618074	189.734935258843	0.0499826407685759
60148	50	147	0	0	skateboard	1449	147	0	stimuli\skateboard\skateboard_01b.jpg	0	-1	0	0	skateboard_01b.jpg	0	0	0	189.784953008169	189.834917850851	0.04996484268122
60249	50	148	0	0	oilcan	1073	148	0	stimuli\oilcan\oilcan_02s.jpg	1	-1	0	0	oilcan_02s.jpg	0	0	0	189.884954617311	189.93493725808	0.0499826407685759
60349	50	149	0	0	carrot	277	149	0	stimuli\carrot\carrot_03s.jpg	2	-1	0	0	carrot_03s.jpg	0	0	0	189.984963296931	190.034922775802	0.0499594788707327
60449	50	150	0	0	plate	1197	150	0	stimuli\plate\plate_04s.jpg	3	-1	0	0	plate_04s.jpg	0	0	0	190.084961005119	190.134924384944	0.0499633798244759
60549	50	151	0	0	warthog	1781	151	0	stimuli\warthog\warthog_07s.jpg	6	-1	0	0	warthog_07s.jpg	0	0	0	190.184961882835	190.234947205507	0.0499853226720006
60649	50	152	0	0	seaweed	1400	152	0	stimuli\seaweed\seaweed_03s.jpg	2	-1	0	0	seaweed_03s.jpg	0	0	0	190.28495422722	190.334928822274	0.049974595054664
60749	50	153	0	0	sprinkler	1523	153	0	stimuli\sprinkler\sprinkler_01b.jpg	0	-1	0	0	sprinkler_01b.jpg	0	0	0	190.384967539212	190.434951886647	0.0499843474353838
60849	50	154	0	0	mannequin	968	154	0	stimuli\mannequin\mannequin_11s.jpg	10	-1	0	0	mannequin_11s.jpg	0	0	0	190.484974024544	190.534936672939	0.0499626483942848
60949	50	155	0	0	marker	975	155	0	stimuli\marker\marker_01b.jpg	0	-1	0	0	marker_01b.jpg	0	0	0	190.584961005119	190.634957786835	0.0499967817158904
61049	50	156	0	0	sock	1489	156	0	stimuli\sock\sock_02s.jpg	1	-1	0	0	sock_02s.jpg	0	0	0	190.684984069492	190.734960127407	0.0499760579150461
61149	50	157	0	0	bison	134	157	0	stimuli\bison\bison_06s.jpg	5	-1	0	0	bison_06s.jpg	0	0	0	190.78496593007	190.834961248929	0.0499953188591462
61249	50	158	0	0	robe	1317	158	0	stimuli\robe\robe_08s.jpg	7	-1	0	0	robe_08s.jpg	0	0	0	190.884981680159	190.934961639025	0.0499799588651513
61349	50	159	0	0	sleeping_bag	1462	159	0	stimuli\sleeping_bag\sleeping_bag_07s.jpg	6	-1	0	0	sleeping_bag_07s.jpg	0	0	0	190.984988165492	191.034963491977	0.049975326484855
61449	50	160	0	0	gum	724	160	0	stimuli\gum\gum_11s.jpg	10	-1	0	0	gum_11s.jpg	0	0	0	191.08498660511	191.134958030645	0.0499714255347499
61549	50	161	0	0	syrup	1605	161	0	stimuli\syrup\syrup_06s.jpg	5	-1	0	0	syrup_06s.jpg	0	0	0	191.184992359013	191.234968904548	0.0499765455351735
61649	50	162	0	0	bus	226	162	0	stimuli\bus\bus_01b.jpg	0	-1	0	0	bus_01b.jpg	0	0	0	191.284994699585	191.33497782797	0.0499831283850654
61749	50	163	0	0	tooth	1678	163	0	stimuli\tooth\tooth_02s.jpg	1	-1	0	0	tooth_02s.jpg	0	0	0	191.384993626823	191.434976755208	0.0499831283850654
61849	50	164	0	0	thumbtack	1654	164	0	stimuli\thumbtack\thumbtack_01b.jpg	0	-1	0	0	thumbtack_01b.jpg	0	0	0	191.484980119782	191.534976657687	0.0499965379058267
61949	50	165	0	0	pudding	1246	165	0	stimuli\pudding\pudding_01b.jpg	0	-1	0	0	pudding_01b.jpg	0	0	0	191.584984410827	191.634963882072	0.0499794712450239
62049	50	166	0	0	dumbbell	530	166	0	stimuli\dumbbell\dumbbell_01b.jpg	0	-1	0	0	dumbbell_01b.jpg	0	0	0	191.685005280913	191.734983289301	0.0499780083882797
62149	50	167	0	0	camcorder	244	167	0	stimuli\camcorder\camcorder_08s.jpg	7	-1	0	0	camcorder_08s.jpg	0	0	0	191.784990798635	191.835009523198	0.0500187245634152
62249	50	168	0	0	armor	37	168	0	stimuli\armor\armor_11s.jpg	10	-1	0	0	armor_11s.jpg	0	0	0	191.88499094492	191.934989189493	0.0499982445726346
62349	50	169	0	0	coffeemaker	382	169	0	stimuli\coffeemaker\coffeemaker_06s.jpg	5	-1	0	0	coffeemaker_06s.jpg	0	0	0	191.985013277863	192.034994699585	0.0499814217218955
62449	50	170	0	0	motherboard	1024	170	0	stimuli\motherboard\motherboard_06s.jpg	5	-1	0	1	motherboard_06s.jpg	0	0	0	192.085013424148	192.134992407777	0.0499789836285345
62549	50	171	0	0	grits	717	171	0	stimuli\grits\grits_02s.jpg	1	-1	0	0	grits_02s.jpg	0	0	0	192.18501503329	192.234979144541	0.049964111251029
62649	50	172	0	0	reel	1299	172	0	stimuli\reel\reel_01b.jpg	0	-1	0	0	reel_01b.jpg	0	0	0	192.285018836719	192.33498270416	0.0499638674409653
62749	50	173	0	0	birdhouse	131	173	0	stimuli\birdhouse\birdhouse_05s.jpg	4	-1	0	0	birdhouse_05s.jpg	1	0.350148870042176	1	192.385004598247	192.435001136153	0.0499965379058267
62849	50	174	0	0	graffiti	697	174	0	stimuli\graffiti\graffiti_03s.jpg	2	-1	0	0	graffiti_03s.jpg	0	0	0	192.48502278643	192.534992505298	0.049969718867942
62949	50	175	0	0	brick	199	175	0	stimuli\brick\brick_04s.jpg	3	-1	0	0	brick_04s.jpg	0	0	0	192.585026589859	192.634996796347	0.0499702064880694
63049	50	176	0	0	clarinet	350	176	0	stimuli\clarinet\clarinet_04s.jpg	3	-1	0	0	clarinet_04s.jpg	0	0	0	192.685032831381	192.735009864529	0.0499770331480249
63149	50	177	0	0	rattlesnake	1288	177	0	stimuli\rattlesnake\rattlesnake_11s.jpg	10	-1	0	0	rattlesnake_11s.jpg	0	0	0	192.785014691959	192.835015618435	0.0500009264760592
63249	50	178	0	0	shell1	1417	178	0	stimuli\shell1\shell1_02s.jpg	1	-1	0	0	shell1_02s.jpg	0	0	0	192.885023127765	192.935017227577	0.0499940998124657
63349	50	179	0	0	pool_table	1222	179	0	stimuli\pool_table\pool_table_03s.jpg	2	-1	0	0	pool_table_03s.jpg	0	0	0	192.985020592147	193.035015423386	0.0499948312390188
63449	50	180	0	0	lamb	889	180	0	stimuli\lamb\lamb_12s.jpg	11	-1	0	0	lamb_12s.jpg	0	0	0	193.085039267949	193.135018983005	0.0499797150550876
63549	50	181	0	0	shower	1433	181	0	stimuli\shower\shower_01b.jpg	0	-1	0	0	shower_01b.jpg	0	0	0	193.185042827565	193.23501108358	0.0499682560148358
63649	50	182	0	0	eggplant	550	182	0	stimuli\eggplant\eggplant_11s.jpg	10	-1	0	0	eggplant_11s.jpg	0	0	0	193.285046143374	193.335025614622	0.0499794712486619
63749	50	183	0	0	clothespin	363	183	0	stimuli\clothespin\clothespin_01b.jpg	0	-1	0	0	clothespin_01b.jpg	0	0	0	193.385052141086	193.435016739957	0.0499645988711563
63849	50	184	0	0	bassinet	85	184	0	stimuli\bassinet\bassinet_11s.jpg	10	-1	0	0	bassinet_11s.jpg	0	0	0	193.485053750228	193.535027857666	0.0499741074381745
63949	50	185	0	0	bok_choy	156	185	0	stimuli\bok_choy\bok_choy_12s.jpg	11	-1	0	0	bok_choy_12s.jpg	0	0	0	193.585049751753	193.635025809668	0.0499760579150461
64049	50	186	0	0	combination_lock	390	186	0	stimuli\combination_lock\combination_lock_03s.jpg	2	-1	0	0	combination_lock_03s.jpg	0	0	0	193.685055993275	193.73503522071	0.0499792274349602
64149	50	187	0	0	guillotine	721	187	0	stimuli\guillotine\guillotine_09s.jpg	8	-1	0	0	guillotine_09s.jpg	0	0	0	193.785055408134	193.835036586046	0.0499811779118318
64249	50	188	0	0	screw	1390	188	0	stimuli\screw\screw_04s.jpg	3	-1	0	0	screw_04s.jpg	0	0	0	193.885060430606	193.935040633281	0.049980202675215
64349	50	189	0	0	calf1	241	189	0	stimuli\calf1\calf1_09s.jpg	8	-1	0	0	calf1_09s.jpg	0	0	0	193.985064721655	194.035028589096	0.0499638674409653
64449	50	190	0	0	cross	443	190	0	stimuli\cross\cross_02s.jpg	1	-1	0	0	cross_02s.jpg	0	0	0	194.085063648894	194.135014106814	0.0499504579202039
64549	50	191	0	0	paddle	1094	191	0	stimuli\paddle\paddle_11s.jpg	10	-1	0	0	paddle_11s.jpg	0	0	0	194.185069402796	194.235049361658	0.0499799588615133
64649	50	192	0	0	drum	522	192	0	stimuli\drum\drum_06s.jpg	5	-1	0	0	drum_06s.jpg	0	0	0	194.285070524318	194.335049264137	0.0499787398184708
64749	50	193	0	0	metal_detector	996	193	0	stimuli\metal_detector\metal_detector_07s.jpg	6	-1	0	0	metal_detector_07s.jpg	0	0	0	194.38506433156	194.435055018039	0.04999068647885
64849	50	194	0	0	blimp	139	194	0	stimuli\blimp\blimp_08n.jpg	7	-1	0	0	blimp_08n.jpg	0	0	0	194.485081056886	194.535055651944	0.0499745950583019
64949	50	195	0	0	wind_chimes	1817	195	0	stimuli\wind_chimes\wind_chimes_12s.jpg	11	-1	0	0	wind_chimes_12s.jpg	0	0	0	194.585076083174	194.635057504893	0.0499814217182575
65049	50	196	0	0	backdrop	47	196	0	stimuli\backdrop\backdrop_09s.jpg	8	-1	0	0	backdrop_09s.jpg	0	0	0	194.685083056123	194.735052774991	0.049969718867942
65149	50	197	0	0	eye_patch	565	197	0	stimuli\eye_patch\eye_patch_05s.jpg	4	-1	0	0	eye_patch_05s.jpg	0	0	0	194.785076131935	194.835041462233	0.0499653302977094
65249	50	198	0	0	starfish	1541	198	0	stimuli\starfish\starfish_04s.jpg	3	-1	0	0	starfish_04s.jpg	0	0	0	194.885064575366	194.935067696129	0.0500031207629945
65349	50	199	0	0	waterwheel	1794	199	0	stimuli\waterwheel\waterwheel_08s.jpg	7	-1	0	0	waterwheel_08s.jpg	0	0	0	194.985087395929	195.035071255748	0.0499838598188944
65449	50	200	0	0	pita	1189	200	0	stimuli\pita\pita_09s.jpg	8	-1	0	0	pita_09s.jpg	0	0	0	195.085087786025	195.13507237727	0.0499845912454475
65549	50	201	0	0	mallet	962	201	0	stimuli\mallet\mallet_05s.jpg	4	-1	0	0	mallet_05s.jpg	0	0	0	195.185091345644	195.235075449269	0.0499841036253201
65649	50	202	0	0	raccoon	1266	202	0	stimuli\raccoon\raccoon_05s.jpg	4	-1	0	0	raccoon_05s.jpg	0	0	0	195.285080764315	195.335060723181	0.0499799588651513
65749	50	203	0	0	coverall	425	203	0	stimuli\coverall\coverall_03s.jpg	2	-1	0	0	coverall_03s.jpg	0	0	0	195.385099196308	195.435077448506	0.0499782521983434
65849	50	204	0	0	valve	1751	204	0	stimuli\valve\valve_11s.jpg	10	-1	0	0	valve_11s.jpg	0	0	0	195.485102024497	195.535070768128	0.0499687436313252
65949	50	205	0	0	grapevine	704	205	0	stimuli\grapevine\grapevine_08s.jpg	7	-1	0	0	grapevine_08s.jpg	0	0	0	195.585088761265	195.63507237727	0.0499836160051927
66049	50	206	0	0	calculator	240	206	0	stimuli\calculator\calculator_07s.jpg	6	-1	0	0	calculator_07s.jpg	0	0	0	195.685105242781	195.735084957836	0.0499797150550876
66149	50	207	0	0	spareribs	1505	207	0	stimuli\spareribs\spareribs_03s.jpg	2	-1	0	0	spareribs_03s.jpg	0	0	0	195.78510807097	195.835090955548	0.0499828845786396
66249	50	208	0	0	okra	1074	208	0	stimuli\okra\okra_04s.jpg	3	-1	0	0	okra_04s.jpg	0	0	0	195.885110167732	195.93507525422	0.0499650864876457
66349	50	209	0	0	tie	1658	209	0	stimuli\tie\tie_10s.jpg	9	-1	0	0	tie_10s.jpg	0	0	0	195.985113727351	196.035093930022	0.049980202671577
66449	50	210	0	0	baseball	78	210	0	stimuli\baseball\baseball_05s.jpg	4	-1	0	0	baseball_05s.jpg	0	0	0	196.085118749823	196.135097245831	0.0499784960084071
66549	50	211	0	0	dice	486	211	0	stimuli\dice\dice_10s.jpg	9	-1	0	0	dice_10s.jpg	0	0	0	196.185104267544	196.23510104926	0.0499967817158904
66649	50	212	0	0	hedge	773	212	0	stimuli\hedge\hedge_08s.jpg	7	-1	0	0	hedge_08s.jpg	0	0	0	196.285120261444	196.335101439356	0.0499811779118318
66749	50	213	0	0	raincoat	1279	213	0	stimuli\raincoat\raincoat_06s.jpg	5	-1	0	0	raincoat_06s.jpg	0	0	0	196.385123333443	196.435090858024	0.0499675245810067
66849	50	214	0	0	bandanna	67	214	0	stimuli\bandanna\bandanna_06s.jpg	5	-1	0	0	bandanna_06s.jpg	0	0	0	196.485123723538	196.535085884312	0.0499621607741574
66949	50	215	0	0	cot	420	215	0	stimuli\cot\cot_11s.jpg	10	-1	0	0	cot_11s.jpg	0	0	0	196.585106803162	196.635103828688	0.0499970255259541
67049	50	216	0	0	cornucopia	416	216	0	stimuli\cornucopia\cornucopia_04s.jpg	3	-1	0	0	cornucopia_04s.jpg	0	0	0	196.685128648489	196.73509714831	0.0499684998212615
67149	50	217	0	0	statue	1543	217	0	stimuli\statue\statue_01b.jpg	0	-1	0	0	statue_01b.jpg	0	0	0	196.785134890008	196.83511655554	0.0499816655319592
67249	50	218	0	0	minivan	1003	218	0	stimuli\minivan\minivan_09s.jpg	8	-1	0	0	minivan_09s.jpg	0	0	0	196.88513649915	196.935117189445	0.0499806902953424
67349	50	219	0	0	refrigerator	1300	219	0	stimuli\refrigerator\refrigerator_10s.jpg	9	-1	0	0	refrigerator_10s.jpg	0	0	0	196.985124942585	197.03510490145	0.0499799588651513
67449	50	220	0	0	hockey_stick	783	220	0	stimuli\hockey_stick\hockey_stick_09s.jpg	8	-1	0	0	hockey_stick_09s.jpg	0	0	0	197.085144837434	197.135124552489	0.0499797150550876
67549	50	221	0	0	water_cooler	1788	221	0	stimuli\water_cooler\water_cooler_04s.jpg	3	-1	0	0	water_cooler_04s.jpg	0	0	0	197.18514547134	197.235123967348	0.0499784960084071
67649	50	222	0	0	stamp2	1536	222	0	stimuli\stamp2\stamp2_06s.jpg	5	-1	0	0	stamp2_06s.jpg	0	0	0	197.285129770011	197.335128014583	0.0499982445726346
67749	50	223	0	0	shaving_cream	1410	223	0	stimuli\shaving_cream\shaving_cream_01b.jpg	0	-1	0	0	shaving_cream_01b.jpg	0	0	0	197.38515356581	197.435137181819	0.0499836160088307
67849	50	224	0	0	slot_machine	1470	224	0	stimuli\slot_machine\slot_machine_02s.jpg	1	-1	0	0	slot_machine_02s.jpg	0	0	0	197.485136401629	197.535114897637	0.0499784960084071
67949	50	225	0	0	washing_machine	1784	225	0	stimuli\washing_machine\washing_machine_06s.jpg	5	-1	0	0	washing_machine_06s.jpg	0	0	0	197.585154589811	197.63514088772	0.0499862979086174
68049	50	226	0	0	macadamia	951	226	0	stimuli\macadamia\macadamia_01b.jpg	0	-1	0	0	macadamia_01b.jpg	0	0	0	197.685142545626	197.735142009245	0.0499994636193151
68149	50	227	0	0	dresser	519	227	0	stimuli\dresser\dresser_02s.jpg	1	-1	0	0	dresser_02s.jpg	0	0	0	197.785160489999	197.835142643151	0.0499821531520865
68249	50	228	0	0	doorknob	509	228	0	stimuli\doorknob\doorknob_06s.jpg	5	-1	0	0	doorknob_06s.jpg	0	0	0	197.885164293428	197.935142545626	0.0499782521983434
68349	50	229	0	0	dandelion	472	229	0	stimuli\dandelion\dandelion_05s.jpg	4	-1	0	0	dandelion_05s.jpg	0	0	0	197.985147860672	198.035128794774	0.0499809341017681
68449	50	230	0	0	button1	230	230	0	stimuli\button1\button1_06s.jpg	5	-1	0	0	button1_06s.jpg	0	0	0	198.085167511712	198.135150883907	0.049983372195129
68549	50	231	0	0	eel	545	231	0	stimuli\eel\eel_03s.jpg	2	-1	0	0	eel_03s.jpg	0	0	0	198.185169364664	198.235149323529	0.0499799588651513
68649	50	232	0	0	biscuit	133	232	0	stimuli\biscuit\biscuit_10s.jpg	9	-1	0	0	biscuit_10s.jpg	0	0	0	198.285160733809	198.33513703553	0.0499763017214718
68749	50	233	0	0	saucer	1363	233	0	stimuli\saucer\saucer_09s.jpg	8	-1	0	0	saucer_09s.jpg	0	0	0	198.385176971518	198.435154979907	0.0499780083882797
68849	50	234	0	0	whipped_cream	1810	234	0	stimuli\whipped_cream\whipped_cream_05s.jpg	4	-1	0	0	whipped_cream_05s.jpg	0	0	0	198.485160782569	198.535156101429	0.0499953188591462
68949	50	235	0	0	chicken2	323	235	0	stimuli\chicken2\chicken2_10n.jpg	9	-1	0	0	chicken2_10n.jpg	0	0	0	198.585181896469	198.635162099141	0.049980202671577
69049	50	236	0	0	clove	365	236	0	stimuli\clove\clove_08s.jpg	7	-1	0	0	clove_08s.jpg	0	0	0	198.685168145617	198.735163464476	0.0499953188591462
69149	50	237	0	0	rocking_horse	1322	237	0	stimuli\rocking_horse\rocking_horse_04s.jpg	3	-1	0	0	rocking_horse_04s.jpg	0	0	0	198.785169754759	198.835176776469	0.0500070217094617
69249	50	238	0	0	fuse	652	238	0	stimuli\fuse\fuse_04s.jpg	3	-1	0	0	fuse_04s.jpg	0	0	0	198.885187211512	198.935170583711	0.049983372198767
69349	50	239	0	0	bell	116	239	0	stimuli\bell\bell_12s.jpg	11	-1	0	0	bell_12s.jpg	0	0	0	198.985174923517	199.035170486186	0.0499955626692099
69449	50	240	0	0	tweezers	1739	240	0	stimuli\tweezers\tweezers_04s.jpg	3	-1	0	0	tweezers_04s.jpg	0	0	0	199.08519359932	199.135174533421	0.0499809341017681
69549	50	241	0	0	mosquito_net	1021	241	0	stimuli\mosquito_net\mosquito_net_09s.jpg	8	-1	0	0	mosquito_net_09s.jpg	0	0	0	199.185195208462	199.23516200162	0.0499667931580916
69649	50	242	0	0	chicken_wire	324	242	0	stimuli\chicken_wire\chicken_wire_04s.jpg	3	-1	0	0	chicken_wire_04s.jpg	0	0	0	199.285201693794	199.335178726946	0.0499770331516629
69749	50	243	0	0	powder	1236	243	0	stimuli\powder\powder_02s.jpg	1	-1	0	0	powder_02s.jpg	0	0	0	199.385200864843	199.435181067514	0.049980202671577
69849	50	244	0	0	faucet	573	244	0	stimuli\faucet\faucet_09s.jpg	8	-1	0	0	faucet_09s.jpg	0	0	0	199.485202473985	199.535166829046	0.0499643550610926
69949	50	245	0	0	bassoon	86	245	0	stimuli\bassoon\bassoon_07s.jpg	6	-1	0	0	bassoon_07s.jpg	0	0	0	199.585204326937	199.635173558185	0.0499692312478146
70049	50	246	0	0	tile	1660	246	0	stimuli\tile\tile_01s.jpg	0	-1	0	0	tile_01s.jpg	0	0	0	199.685206423695	199.735190039704	0.0499836160088307
70149	50	247	0	0	shower_cap	1434	247	0	stimuli\shower_cap\shower_cap_07s.jpg	6	-1	0	0	shower_cap_07s.jpg	0	0	0	199.785216566168	199.83519408694	0.0499775207717903
70249	50	248	0	0	taco	1613	248	0	stimuli\taco\taco_03s.jpg	2	-1	0	0	taco_03s.jpg	0	0	0	199.885200133413	199.935192282752	0.0499921493392321
70349	50	249	0	0	eyeliner	567	249	0	stimuli\eyeliner\eyeliner_02s.jpg	1	-1	0	0	eyeliner_02s.jpg	0	0	0	199.985206862555	200.035195842367	0.0499889798120421
70449	50	250	0	0	straw2	1569	250	0	stimuli\straw2\straw2_11s.jpg	10	-1	0	0	straw2_11s.jpg	0	0	0	200.085221393598	200.135197695319	0.0499763017214718
70549	50	251	0	0	string_cheese	1573	251	0	stimuli\string_cheese\string_cheese_03s.jpg	2	-1	0	1	string_cheese_03s.jpg	0	0	0	200.185221539883	200.235200523508	0.0499789836248965
70649	50	252	0	0	airboat	8	252	0	stimuli\airboat\airboat_01s.jpg	0	-1	0	0	airboat_01s.jpg	0	0	0	200.285225343308	200.335206033604	0.0499806902953424
70749	50	253	0	0	crib	441	253	0	stimuli\crib\crib_03s.jpg	2	-1	0	0	crib_03s.jpg	0	0	0	200.385209641983	200.435207398936	0.0499977569525072
70849	50	254	0	0	recliner	1294	254	0	stimuli\recliner\recliner_07s.jpg	6	-1	0	0	recliner_07s.jpg	1	0.300175981650682	1	200.485236607306	200.535209008078	0.0499724007713667
70949	50	255	0	0	lightbulb	927	255	0	stimuli\lightbulb\lightbulb_04s.jpg	3	-1	0	0	lightbulb_04s.jpg	0	0	0	200.585234315495	200.635185504849	0.049951189354033
71049	50	256	0	0	sandbox	1354	256	0	stimuli\sandbox\sandbox_08s.jpg	7	-1	0	0	sandbox_08s.jpg	0	0	0	200.685213981789	200.735205643508	0.0499916617191047
71149	50	257	0	0	defibrillator	477	257	0	stimuli\defibrillator\defibrillator_07s.jpg	6	-1	0	0	defibrillator_07s.jpg	0	0	0	200.785239240446	200.835217980264	0.0499787398184708
71249	50	258	0	0	leash	907	258	0	stimuli\leash\leash_05s.jpg	4	-1	0	0	leash_05s.jpg	0	0	0	200.885239874351	200.935219589406	0.0499797150550876
71349	50	259	0	0	tinsel	1662	259	0	stimuli\tinsel\tinsel_02s.jpg	1	-1	0	0	tinsel_02s.jpg	0	0	0	200.985240264446	201.035225099498	0.0499848350518732
71449	50	260	0	0	wire_cutters	1829	260	0	stimuli\wire_cutters\wire_cutters_03s.jpg	2	-1	0	0	wire_cutters_03s.jpg	0	0	0	201.085242848825	201.135209641983	0.0499667931580916
71549	50	261	0	0	caterpillar	286	261	0	stimuli\caterpillar\caterpillar_09s.jpg	8	-1	0	0	caterpillar_09s.jpg	0	0	0	201.185252991298	201.23523831397	0.0499853226720006
71649	50	262	0	0	gun	727	262	0	stimuli\gun\gun_01b.jpg	0	-1	0	0	gun_01b.jpg	0	0	0	201.28525118711	201.335215298361	0.049964111251029
71749	50	263	0	0	water_bottle	1787	263	0	stimuli\water_bottle\water_bottle_12s.jpg	11	-1	0	0	water_bottle_12s.jpg	0	0	0	201.385249382918	201.435221052263	0.0499716693448136
71849	50	264	0	0	tortilla	1687	264	0	stimuli\tortilla\tortilla_11s.jpg	10	-1	0	0	tortilla_11s.jpg	0	0	0	201.485254161584	201.535235827116	0.0499816655319592
71949	50	265	0	0	shawl	1411	265	0	stimuli\shawl\shawl_10s.jpg	9	-1	0	0	shawl_10s.jpg	0	0	0	201.585245286922	201.635236217211	0.0499909302889137
72049	50	266	0	0	amber	18	266	0	stimuli\amber\amber_11s.jpg	10	-1	0	0	amber_11s.jpg	0	0	0	201.685246652254	201.735200279698	0.049953627443756
72149	50	267	0	0	shuffleboard	1439	267	0	stimuli\shuffleboard\shuffleboard_06s.jpg	5	-1	0	0	shuffleboard_06s.jpg	0	0	0	201.785266303294	201.835246749779	0.0499804464852787
72249	50	268	0	0	highchair	777	268	0	stimuli\highchair\highchair_10s.jpg	9	-1	0	0	highchair_10s.jpg	0	0	0	201.885269619102	201.935245189397	0.0499755702949187
72349	50	269	0	0	puck	1245	269	0	stimuli\puck\puck_10s.jpg	9	-1	0	0	puck_10s.jpg	0	0	0	201.985269277768	202.035262158533	0.0499928807657852
72449	50	270	0	0	rifle	1311	270	0	stimuli\rifle\rifle_05s.jpg	4	-1	0	0	rifle_05s.jpg	0	0	0	202.085268936436	202.135252308632	0.049983372195129
72549	50	271	0	0	bumper	219	271	0	stimuli\bumper\bumper_07s.jpg	6	-1	0	0	bumper_07s.jpg	0	0	0	202.185274446529	202.235253186347	0.0499787398184708
72649	50	272	0	0	clock	359	272	0	stimuli\clock\clock_01b.jpg	0	-1	0	0	clock_01b.jpg	0	0	0	202.28526020806	202.335256014536	0.0499958064756356
72749	50	273	0	0	radar	1271	273	0	stimuli\radar\radar_02s.jpg	1	-1	0	0	radar_02s.jpg	0	0	0	202.385264742916	202.435242751304	0.0499780083882797
72849	50	274	0	0	peach	1129	274	0	stimuli\peach\peach_04s.jpg	3	-1	0	0	peach_04s.jpg	0	0	0	202.485237338733	202.53526020806	0.050022869327222
72949	50	275	0	0	tuba	1723	275	0	stimuli\tuba\tuba_07s.jpg	6	-1	0	0	tuba_07s.jpg	0	0	0	202.58526698596	202.635250845775	0.0499838598152564
73049	50	276	0	0	hammer	741	276	0	stimuli\hammer\hammer_05n.jpg	4	-1	0	0	hammer_05n.jpg	0	0	0	202.685309555087	202.735265376818	0.0499558217306912
73149	50	277	0	0	fan	571	277	0	stimuli\fan\fan_11s.jpg	10	-1	0	0	fan_11s.jpg	0	0	0	202.785285076621	202.835261134533	0.0499760579114081
73249	50	278	0	0	napkin	1050	278	0	stimuli\napkin\napkin_08s.jpg	7	-1	0	0	napkin_08s.jpg	0	0	0	202.885286929573	202.935263718915	0.0499767893415992
73349	50	279	0	0	ear	538	279	0	stimuli\ear\ear_06s.jpg	5	-1	0	0	ear_06s.jpg	0	0	0	202.985286588239	203.035268741387	0.0499821531484486
73449	50	280	0	0	coin	385	280	0	stimuli\coin\coin_12s.jpg	11	-1	0	0	coin_12s.jpg	0	0	0	203.085292098334	203.135271569579	0.0499794712450239
73549	50	281	0	0	suspenders	1589	281	0	stimuli\suspenders\suspenders_08s.jpg	7	-1	0	0	suspenders_08s.jpg	0	0	0	203.185294682713	203.235272203481	0.0499775207681523
73649	50	282	0	0	eyepiece	568	282	0	stimuli\eyepiece\eyepiece_03s.jpg	2	-1	0	0	eyepiece_03s.jpg	0	0	0	203.285292390905	203.33527649453	0.0499841036253201
73749	50	283	0	0	omelet	1076	283	0	stimuli\omelet\omelet_12s.jpg	11	-1	0	0	omelet_12s.jpg	0	0	0	203.385293024807	203.435275909385	0.0499828845786396
73849	50	284	0	0	chickpea	325	284	0	stimuli\chickpea\chickpea_03s.jpg	2	-1	0	0	chickpea_03s.jpg	0	0	0	203.485302435853	203.535283613764	0.0499811779118318
73949	50	285	0	0	green_beans	712	285	0	stimuli\green_beans\green_beans_07s.jpg	6	-1	0	0	green_beans_07s.jpg	0	0	0	203.585304776425	203.635280834336	0.0499760579114081
74049	50	286	0	0	mustard	1044	286	0	stimuli\mustard\mustard_08s.jpg	7	-1	0	0	mustard_08s.jpg	0	0	0	203.685305166517	203.735284393955	0.0499792274385982
74149	50	287	0	0	money	1015	287	0	stimuli\money\money_10s.jpg	9	-1	0	0	money_10s.jpg	0	0	0	203.785306288042	203.835286978334	0.0499806902917044
74249	50	288	0	0	shoelace	1426	288	0	stimuli\shoelace\shoelace_01b.jpg	0	-1	0	0	shoelace_01b.jpg	0	0	0	203.88530009528	203.935291025569	0.0499909302889137
74349	50	289	0	0	moth	1023	289	0	stimuli\moth\moth_10n.jpg	9	-1	0	0	moth_10n.jpg	0	0	0	203.985313407276	204.035296291855	0.0499828845786396
74449	50	290	0	0	cart	278	290	0	stimuli\cart\cart_11s.jpg	10	-1	0	0	cart_11s.jpg	0	0	0	204.085316235465	204.135294731474	0.0499784960084071
74549	50	291	0	0	pan	1103	291	0	stimuli\pan\pan_09s.jpg	8	-1	0	0	pan_09s.jpg	0	0	0	204.185316137944	204.235297559662	0.0499814217182575
74649	50	292	0	0	toaster_oven	1667	292	0	stimuli\toaster_oven\toaster_oven_01b.jpg	0	-1	0	0	toaster_oven_01b.jpg	0	0	0	204.285319209943	204.335297949758	0.0499787398148328
74749	50	293	0	0	moss	1022	293	0	stimuli\moss\moss_02s.jpg	1	-1	0	0	moss_02s.jpg	0	0	0	204.385319843845	204.435301753187	0.0499819093420228
74849	50	294	0	0	inkwell	830	294	0	stimuli\inkwell\inkwell_04s.jpg	3	-1	0	0	inkwell_04s.jpg	0	0	0	204.485323159653	204.535309701372	0.0499865417186811
74949	50	295	0	0	grapefruit	703	295	0	stimuli\grapefruit\grapefruit_11s.jpg	10	-1	0	0	grapefruit_11s.jpg	0	0	0	204.585325256416	204.635306921948	0.0499816655319592
75049	50	296	0	0	bologna	158	296	0	stimuli\bologna\bologna_10s.jpg	9	-1	0	0	bologna_10s.jpg	0	0	0	204.685361730306	204.735300485376	0.0499387550698884
75149	50	297	0	0	hoodie	792	297	0	stimuli\hoodie\hoodie_01b.jpg	0	-1	0	0	hoodie_01b.jpg	0	0	0	204.785321648036	204.835295267854	0.0499736198180472
75249	50	298	0	0	tank1	1620	298	0	stimuli\tank1\tank1_04s.jpg	3	-1	0	0	tank1_04s.jpg	0	0	0	204.885320819085	204.935298339853	0.0499775207681523
75349	50	299	0	0	saddle	1343	299	0	stimuli\saddle\saddle_04s.jpg	3	-1	0	0	saddle_04s.jpg	0	0	0	204.985322915843	205.035306288042	0.049983372198767
75449	50	300	0	0	orange	1078	300	0	stimuli\orange\orange_04s.jpg	3	-1	0	0	orange_04s.jpg	0	0	0	205.085322818322	205.135329596225	0.050006777903036
75549	50	301	0	0	trombone	1716	301	0	stimuli\trombone\trombone_11s.jpg	10	-1	0	0	trombone_11s.jpg	0	0	0	205.185333692221	205.235315601563	0.0499819093420228
75649	50	302	0	0	sink	1447	302	0	stimuli\sink\sink_06s.jpg	5	-1	0	0	sink_06s.jpg	0	0	0	205.285351880408	205.335316723085	0.0499648426775821
75749	50	303	0	0	chinaware	331	303	0	stimuli\chinaware\chinaware_09s.jpg	8	-1	0	0	chinaware_09s.jpg	0	0	0	205.385354464786	205.435319551274	0.0499650864876457
75849	50	304	0	0	bow2	175	304	0	stimuli\bow2\bow2_09s.jpg	8	-1	0	0	bow2_09s.jpg	0	0	0	205.485363144402	205.535342128027	0.0499789836248965
75949	50	305	0	0	beanbag	103	305	0	stimuli\beanbag\beanbag_11s.jpg	10	-1	0	0	beanbag_11s.jpg	0	0	0	205.585345980217	205.635339592409	0.0499936121923383
76049	50	306	0	0	whisk	1811	306	0	stimuli\whisk\whisk_09s.jpg	8	-1	0	0	whisk_09s.jpg	0	0	0	205.685340518885	205.735327792034	0.0499872731488722
76149	50	307	0	0	gong	692	307	0	stimuli\gong\gong_07s.jpg	6	-1	0	0	gong_07s.jpg	0	0	0	205.785352611834	205.835329644986	0.0499770331516629
76249	50	308	0	0	dial	483	308	0	stimuli\dial\dial_01b.jpg	0	-1	0	0	dial_01b.jpg	0	0	0	205.885368361924	205.935350515072	0.0499821531484486
81466	50	309	0	0	bee	111	0	1	stimuli\bee\bee_01b.jpg	0	-1	1	0	bee_01b.jpg	0	0	0	211.102165905493	211.152146595789	0.0499806902953424
81566	50	310	0	0	noisemaker	1060	1	1	stimuli\noisemaker\noisemaker_01b.jpg	0	-1	1	0	noisemaker_01b.jpg	0	0	0	211.202153373692	211.252153324927	0.0499999512358045
81666	50	311	0	0	test_tube	1645	2	1	stimuli\test_tube\test_tube_09s.jpg	8	-1	1	0	test_tube_09s.jpg	0	0	0	211.302168879971	211.352134210269	0.0499653302977094
81766	50	312	0	0	cheeseburger	313	3	1	stimuli\cheeseburger\cheeseburger_03s.jpg	2	-1	1	0	cheeseburger_03s.jpg	0	0	0	211.402173171016	211.452155324165	0.0499821531484486
81866	50	313	0	0	urinal	1748	4	1	stimuli\urinal\urinal_07s.jpg	6	-1	1	0	urinal_07s.jpg	0	0	0	211.502175999205	211.55215620188	0.049980202675215
81966	50	314	0	0	pencil	1142	5	1	stimuli\pencil\pencil_10s.jpg	9	-1	1	0	pencil_10s.jpg	0	0	0	211.602160785496	211.652162443403	0.0500016579062503
82066	50	315	0	0	submarine	1577	6	1	stimuli\submarine\submarine_03s.jpg	2	-1	1	0	submarine_03s.jpg	0	0	0	211.702183606059	211.752168441111	0.0499848350518732
82166	50	316	0	0	popsicle	1225	7	1	stimuli\popsicle\popsicle_11s.jpg	10	-1	1	0	popsicle_11s.jpg	0	0	0	211.802186678058	211.85216785597	0.0499811779118318
82266	50	317	0	0	abacus	1	8	1	stimuli\abacus\abacus_01b.jpg	0	-1	1	0	abacus_01b.jpg	0	0	0	211.90218877482	211.952173853682	0.0499850788619369
82366	50	318	0	0	violin	1764	9	1	stimuli\violin\violin_08s.jpg	7	-1	1	0	violin_08s.jpg	0	0	0	212.002191115389	212.052180582821	0.0499894674321695
82466	50	319	0	0	gargoyle	657	10	1	stimuli\gargoyle\gargoyle_08s.jpg	7	-1	1	0	gargoyle_08s.jpg	0	0	0	212.102194918818	212.152176584346	0.0499816655283212
82566	50	320	0	0	awning	44	11	1	stimuli\awning\awning_02s.jpg	1	-1	1	0	awning_02s.jpg	0	0	0	212.20219701558	212.252177949682	0.0499809341017681
82666	50	321	0	0	cabbage	232	12	1	stimuli\cabbage\cabbage_07s.jpg	6	-1	1	0	cabbage_07s.jpg	0	0	0	212.302199599959	212.352169075017	0.0499694750578783
82766	50	322	0	0	mulberry	1037	13	1	stimuli\mulberry\mulberry_08s.jpg	7	-1	1	0	mulberry_08s.jpg	0	0	0	212.402202671958	212.452167514639	0.04996484268122
82866	50	323	0	0	sewage	1405	14	1	stimuli\sewage\sewage_08s.jpg	7	-1	1	0	sewage_08s.jpg	0	0	0	212.502206231577	212.552187165678	0.0499809341017681
82966	50	324	0	0	bear	105	15	1	stimuli\bear\bear_02s.jpg	1	-1	1	0	bear_02s.jpg	0	0	0	212.602207109288	212.65219243196	0.0499853226720006
83066	50	325	0	0	record	1295	16	1	stimuli\record\record_05s.jpg	4	-1	1	0	record_05s.jpg	0	0	0	212.702210425097	212.752199648719	0.0499892236221058
83166	50	326	0	0	tank2	1621	17	1	stimuli\tank2\tank2_09s.jpg	8	-1	1	0	tank2_09s.jpg	0	0	0	212.802214472333	212.852194918818	0.0499804464852787
83266	50	327	0	0	vegetable	1754	18	1	stimuli\vegetable\vegetable_11s.jpg	10	-1	1	0	vegetable_11s.jpg	0	0	0	212.902214374812	212.952198234627	0.0499838598152564
83366	50	328	0	0	pie	1168	19	1	stimuli\pie\pie_11s.jpg	10	-1	1	0	pie_11s.jpg	0	0	0	213.002217934427	213.052198868529	0.0499809341017681
83466	50	329	0	0	blanket	136	20	1	stimuli\blanket\blanket_06s.jpg	5	-1	1	0	blanket_06s.jpg	0	0	0	213.102219787379	213.152201940531	0.0499821531520865
83566	50	330	0	0	taillight	1617	21	1	stimuli\taillight\taillight_09s.jpg	8	-1	1	0	taillight_09s.jpg	0	0	0	213.202226760332	213.252212083004	0.0499853226720006
83666	50	331	0	0	duct	527	22	1	stimuli\duct\duct_03s.jpg	2	-1	1	0	duct_03s.jpg	0	0	0	213.302226662807	213.352209547385	0.0499828845786396
83766	50	332	0	0	mud	1033	23	1	stimuli\mud\mud_03s.jpg	2	-1	1	0	mud_03s.jpg	0	0	0	213.402226565282	213.452211400334	0.0499848350518732
83866	50	333	0	0	flute	620	24	1	stimuli\flute\flute_06s.jpg	5	-1	1	0	flute_06s.jpg	0	0	0	213.502232075374	213.552211790429	0.0499797150550876
83966	50	334	0	0	freezer	640	25	1	stimuli\freezer\freezer_06s.jpg	5	-1	1	0	freezer_06s.jpg	0	0	0	213.602233684516	213.652214374812	0.0499806902953424
84066	50	335	0	0	jeep	843	26	1	stimuli\jeep\jeep_12s.jpg	11	-1	1	0	jeep_12s.jpg	0	0	0	213.702238950802	213.75222086014	0.0499819093383849
84166	50	336	0	0	pin	1177	27	1	stimuli\pin\pin_08s.jpg	7	-1	1	0	pin_08s.jpg	0	0	0	213.802239097087	213.852221250236	0.0499821531484486
84266	50	337	0	0	radish	1274	28	1	stimuli\radish\radish_01b.jpg	0	-1	1	0	radish_01b.jpg	0	0	0	213.902246801466	213.952213107001	0.0499663055343262
84366	50	338	0	0	strawberry	1570	29	1	stimuli\strawberry\strawberry_09n.jpg	8	-1	1	0	strawberry_09n.jpg	0	0	0	214.002229637281	214.052226662807	0.0499970255259541
84466	50	339	0	0	pastry	1124	30	1	stimuli\pastry\pastry_03n.jpg	2	-1	1	0	pastry_03n.jpg	0	0	0	214.10224563118	214.152228028139	0.0499823969585123
84566	50	340	0	0	glove	680	31	1	stimuli\glove\glove_11s.jpg	10	-1	1	0	glove_11s.jpg	0	0	0	214.202256017463	214.252231100138	0.0499750826747913
84666	50	341	0	0	garter	659	32	1	stimuli\garter\garter_06s.jpg	5	-1	1	0	garter_06s.jpg	0	0	0	214.302236171374	214.352220762619	0.0499845912454475
84766	50	342	0	0	scorpion	1384	33	1	stimuli\scorpion\scorpion_09s.jpg	8	-1	1	0	scorpion_09s.jpg	0	0	0	214.40225362813	214.452237244135	0.0499836160051927
84866	50	343	0	0	soccer_ball	1488	34	1	stimuli\soccer_ball\soccer_ball_03s.jpg	2	-1	1	0	soccer_ball_03s.jpg	0	0	0	214.502246216322	214.552238853277	0.0499926369557215
84966	50	344	0	0	beaver	107	35	1	stimuli\beaver\beaver_03s.jpg	2	-1	1	0	beaver_03s.jpg	0	0	0	214.602243924513	214.652240950039	0.0499970255259541
85066	50	345	0	0	deodorant	479	36	1	stimuli\deodorant\deodorant_08s.jpg	7	-1	1	0	deodorant_08s.jpg	0	0	0	214.702264306983	214.752245241085	0.0499809341017681
85166	50	346	0	0	uniform	1747	37	1	stimuli\uniform\uniform_07s.jpg	6	-1	1	0	uniform_07s.jpg	0	0	0	214.802247874228	214.852250751177	0.0500028769492928
85266	50	347	0	0	roulette_wheel	1335	38	1	stimuli\roulette_wheel\roulette_wheel_12s.jpg	11	-1	1	0	roulette_wheel_12s.jpg	0	0	0	214.902268988124	214.952235049852	0.0499660617279005
85366	50	348	0	0	garlic	658	39	1	stimuli\garlic\garlic_09s.jpg	8	-1	1	0	garlic_09s.jpg	0	0	0	215.002255724892	215.052234708517	0.0499789836248965
85466	50	349	0	0	toast	1665	40	1	stimuli\toast\toast_06s.jpg	5	-1	1	0	toast_06s.jpg	0	0	0	215.102270743551	215.15225338432	0.0499826407685759
85566	50	350	0	0	fencepost	576	41	1	stimuli\fencepost\fencepost_05s.jpg	4	-1	1	0	fencepost_05s.jpg	0	0	0	215.20227405936	215.252259382032	0.0499853226720006
85666	50	351	0	0	air_pump	6	42	1	stimuli\air_pump\air_pump_09s.jpg	8	-1	1	0	air_pump_09s.jpg	0	0	0	215.302262990412	215.352260747364	0.0499977569525072
85766	50	352	0	0	unicycle	1746	43	1	stimuli\unicycle\unicycle_01b.jpg	0	-1	1	0	unicycle_01b.jpg	0	0	0	215.402280690978	215.45226625746	0.0499855664820643
85866	50	353	0	0	zipper	1852	44	1	stimuli\zipper\zipper_04s.jpg	3	-1	1	0	zipper_04s.jpg	0	0	0	215.50228668869	215.552264697078	0.0499780083882797
85966	50	354	0	0	bell_pepper	117	45	1	stimuli\bell_pepper\bell_pepper_05s.jpg	4	-1	1	0	bell_pepper_05s.jpg	0	0	0	215.602285859735	215.652250702416	0.04996484268122
86066	50	355	0	0	toad	1664	46	1	stimuli\toad\toad_02s.jpg	1	-1	1	0	toad_02s.jpg	0	0	0	215.702287956497	215.752270109646	0.0499821531484486
86166	50	356	0	0	frog	644	47	1	stimuli\frog\frog_12s.jpg	11	-1	1	0	frog_12s.jpg	0	0	0	215.802275912312	215.852269768315	0.049993856002402
86266	50	357	0	0	flashlight	611	48	1	stimuli\flashlight\flashlight_06s.jpg	5	-1	1	0	flashlight_06s.jpg	0	0	0	215.902275083361	215.95227357174	0.0499984883790603
86366	50	358	0	0	zebra	1851	49	1	stimuli\zebra\zebra_07s.jpg	6	-1	1	0	zebra_07s.jpg	0	0	0	216.002296928684	216.052279081836	0.0499821531520865
86466	50	359	0	0	fudge	647	50	1	stimuli\fudge\fudge_07s.jpg	6	-1	1	0	fudge_07s.jpg	0	0	0	216.102300975923	216.152280934784	0.0499799588615133
86566	50	360	0	0	wrench	1841	51	1	stimuli\wrench\wrench_04s.jpg	3	-1	1	0	wrench_04s.jpg	0	0	0	216.202303316491	216.252288151547	0.0499848350555112
86666	50	361	0	0	buffet	211	52	1	stimuli\buffet\buffet_12s.jpg	11	-1	1	0	buffet_12s.jpg	0	0	0	216.302304438017	216.352268793078	0.0499643550610926
86766	50	362	0	0	leg	911	53	1	stimuli\leg\leg_11s.jpg	10	-1	1	0	leg_11s.jpg	0	0	0	216.402306534776	216.452292588878	0.0499860541021917
86866	50	363	0	0	urn	1749	54	1	stimuli\urn\urn_09s.jpg	8	-1	1	0	urn_09s.jpg	0	0	0	216.502308143918	216.552290540876	0.0499823969585123
86966	50	364	0	0	suitcase	1581	55	1	stimuli\suitcase\suitcase_08s.jpg	7	-1	1	0	suitcase_08s.jpg	0	0	0	216.602293905449	216.652295563352	0.0500016579026124
87066	50	365	0	0	chili	327	56	1	stimuli\chili\chili_05s.jpg	4	-1	1	0	chili_05s.jpg	0	0	0	216.702314531725	216.752299610587	0.0499850788619369
87166	50	366	0	0	marmalade	976	57	1	stimuli\marmalade\marmalade_03s.jpg	2	-1	1	0	marmalade_03s.jpg	0	0	0	216.802318335154	216.852299513066	0.0499811779118318
87266	50	367	0	0	trap	1702	58	1	stimuli\trap\trap_10s.jpg	9	-1	1	0	trap_10s.jpg	0	0	0	216.902319700486	216.952284543167	0.04996484268122
87366	50	368	0	0	jewel	849	59	1	stimuli\jewel\jewel_08s.jpg	7	-1	1	0	jewel_08s.jpg	0	0	0	217.002323260105	217.052287858973	0.0499645988675184
87466	50	369	0	0	hourglass	807	60	1	stimuli\hourglass\hourglass_07n.jpg	6	-1	1	0	hourglass_07n.jpg	0	0	0	217.102309021633	217.152290199545	0.0499811779118318
87566	50	370	0	0	gumball	725	61	1	stimuli\gumball\gumball_03s.jpg	2	-1	1	0	gumball_03s.jpg	0	0	0	217.202325990769	217.252296684877	0.0499706941081968
87666	50	371	0	0	sweater	1592	62	1	stimuli\sweater\sweater_09s.jpg	8	-1	1	0	sweater_09s.jpg	0	0	0	217.302330525625	217.352308534013	0.0499780083882797
87766	50	372	0	0	incense	826	63	1	stimuli\incense\incense_08s.jpg	7	-1	1	0	incense_08s.jpg	0	0	0	217.402332134767	217.452317213629	0.0499850788619369
87866	50	373	0	0	foot	628	64	1	stimuli\foot\foot_08s.jpg	7	-1	1	0	foot_08s.jpg	0	0	0	217.502340326766	217.552299074207	0.0499587474405416
87966	50	374	0	0	desk	480	65	1	stimuli\desk\desk_04s.jpg	3	-1	1	0	desk_04s.jpg	0	0	0	217.602340960668	217.6523226262	0.0499816655319592
88066	50	375	0	0	pants	1108	66	1	stimuli\pants\pants_03s.jpg	2	-1	1	0	pants_03s.jpg	0	0	0	217.70233915648	217.752308143918	0.0499689874377509
88166	50	376	0	0	curtain	465	67	1	stimuli\curtain\curtain_04s.jpg	3	-1	1	0	curtain_04s.jpg	0	0	0	217.802328575151	217.85232340639	0.0499948312390188
88266	50	377	0	0	radiator	1272	68	1	stimuli\radiator\radiator_10s.jpg	9	-1	1	0	radiator_10s.jpg	0	0	0	217.902343593811	217.952327941246	0.0499843474353838
88366	50	378	0	0	headrest	767	69	1	stimuli\headrest\headrest_02s.jpg	1	-1	1	0	headrest_02s.jpg	0	0	0	218.002350079143	218.052328575151	0.0499784960084071
88466	50	379	0	0	basket	82	70	1	stimuli\basket\basket_08s.jpg	7	-1	1	0	basket_08s.jpg	0	0	0	218.102335109241	218.152333597624	0.0499984883826983
88566	50	380	0	0	lunchbox	950	71	1	stimuli\lunchbox\lunchbox_02s.jpg	1	-1	1	0	lunchbox_02s.jpg	0	0	0	218.202355004094	218.252333743909	0.0499787398148328
88666	50	381	0	0	tablecloth	1609	72	1	stimuli\tablecloth\tablecloth_04s.jpg	3	-1	1	0	tablecloth_04s.jpg	0	0	0	218.302339790385	218.352336572098	0.0499967817122524
88766	50	382	0	0	navel	1052	73	1	stimuli\navel\navel_02s.jpg	1	-1	1	1	navel_02s.jpg	0	0	0	218.402342130954	218.452326478389	0.0499843474353838
88866	50	383	0	0	papaya	1111	74	1	stimuli\papaya\papaya_04s.jpg	3	-1	1	0	papaya_04s.jpg	0	0	0	218.502360319137	218.552324918008	0.0499645988711563
88966	50	384	0	0	crouton	445	75	1	stimuli\crouton\crouton_01b.jpg	0	-1	1	0	crouton_01b.jpg	0	0	0	218.602366560659	218.65232628334	0.0499597226807964
89066	50	385	0	0	braid	190	76	1	stimuli\braid\braid_01b.jpg	0	-1	1	0	braid_01b.jpg	1	0.30703629152049	1	218.702368413611	218.752352517236	0.0499841036253201
89166	50	386	0	0	canoe	262	77	1	stimuli\canoe\canoe_10s.jpg	9	-1	1	0	canoe_10s.jpg	0	0	0	218.802369047517	218.852351444475	0.0499823969585123
89266	50	387	0	0	dish	489	78	1	stimuli\dish\dish_12s.jpg	11	-1	1	0	dish_12s.jpg	0	0	0	218.902369925228	218.952356223141	0.0499862979122554
89366	50	388	0	0	forklift	635	79	1	stimuli\forklift\forklift_12s.jpg	11	-1	1	0	forklift_12s.jpg	0	0	0	219.002377385797	219.052355881806	0.0499784960084071
89466	50	389	0	0	peg	1139	80	1	stimuli\peg\peg_09s.jpg	8	-1	1	0	peg_09s.jpg	0	0	0	219.102376556846	219.152356759521	0.049980202675215
89566	50	390	0	0	cat	284	81	1	stimuli\cat\cat_09s.jpg	8	-1	1	0	cat_09s.jpg	0	0	0	219.202363537424	219.252365439137	0.050001901712676
89666	50	391	0	0	leek	910	82	1	stimuli\leek\leek_04s.jpg	3	-1	1	0	leek_04s.jpg	0	0	0	219.30236319609	219.352366804469	0.0500036083794839
89766	50	392	0	0	teabag	1632	83	1	stimuli\teabag\teabag_09s.jpg	8	-1	1	0	teabag_09s.jpg	0	0	0	219.402368218565	219.452370851704	0.0500026331392291
89866	50	393	0	0	duckling	526	84	1	stimuli\duckling\duckling_11s.jpg	10	-1	1	0	duckling_11s.jpg	0	0	0	219.502392014365	219.552368559896	0.0499765455315355
89966	50	394	0	0	doll	499	85	1	stimuli\doll\doll_04s.jpg	3	-1	1	0	doll_04s.jpg	0	0	0	219.60239167303	219.652372363325	0.0499806902953424
90066	50	395	0	0	cheese	312	86	1	stimuli\cheese\cheese_05n.jpg	4	-1	1	0	cheese_05n.jpg	0	0	0	219.702395232649	219.752376166751	0.0499809341017681
90166	50	396	0	0	stair	1532	87	1	stimuli\stair\stair_04s.jpg	3	-1	1	0	stair_04s.jpg	0	0	0	219.80238026275	219.852358027329	0.049977764578216
90266	50	397	0	0	penguin	1145	88	1	stimuli\penguin\penguin_07s.jpg	6	-1	1	0	penguin_07s.jpg	0	0	0	219.902393087126	219.952378897418	0.049985810292128
90366	50	398	0	0	matchbox	984	89	1	stimuli\matchbox\matchbox_08s.jpg	7	-1	1	0	matchbox_08s.jpg	0	0	0	220.002398353408	220.05237977513	0.0499814217218955
90466	50	399	0	0	wheelbarrow	1807	90	1	stimuli\wheelbarrow\wheelbarrow_01b.jpg	0	-1	1	0	wheelbarrow_01b.jpg	0	0	0	220.102402888264	220.152371631895	0.0499687436313252
90566	50	400	0	0	christmas_card	340	91	1	stimuli\christmas_card\christmas_card_02s.jpg	1	-1	1	0	christmas_card_02s.jpg	0	0	0	220.202392550746	220.252389088651	0.0499965379058267
90666	50	401	0	0	spring_roll	1521	92	1	stimuli\spring_roll\spring_roll_06s.jpg	5	-1	1	0	spring_roll_06s.jpg	0	0	0	220.302390990364	220.352391185414	0.0500001950495061
90766	50	402	0	0	hearse	771	93	1	stimuli\hearse\hearse_06s.jpg	5	-1	1	0	hearse_06s.jpg	0	0	0	220.40240917855	220.452394745029	0.0499855664784263
90866	50	403	0	0	blinder	141	94	1	stimuli\blinder\blinder_03s.jpg	2	-1	1	0	blinder_03s.jpg	0	0	0	220.502411275309	220.552395622744	0.0499843474353838
90966	50	404	0	0	scoop	1381	95	1	stimuli\scoop\scoop_01b.jpg	0	-1	1	0	scoop_01b.jpg	0	0	0	220.602415810165	220.652396988076	0.0499811779118318
91066	50	405	0	0	gorilla	695	96	1	stimuli\gorilla\gorilla_08s.jpg	7	-1	1	0	gorilla_08s.jpg	0	0	0	220.70242107645	220.752401035315	0.0499799588651513
91166	50	406	0	0	couch	422	97	1	stimuli\couch\couch_09s.jpg	8	-1	1	0	couch_09s.jpg	0	0	0	220.802419759879	220.852408495881	0.0499887360019784
91266	50	407	0	0	hinge	779	98	1	stimuli\hinge\hinge_02s.jpg	1	-1	1	0	hinge_02s.jpg	0	0	0	220.902424050924	220.9524120555	0.0499880045754253
91366	50	408	0	0	caramel	270	99	1	stimuli\caramel\caramel_11s.jpg	10	-1	1	0	caramel_11s.jpg	0	0	0	221.002426391497	221.052405862742	0.0499794712450239
91466	50	409	0	0	saw	1366	100	1	stimuli\saw\saw_04s.jpg	3	-1	1	0	saw_04s.jpg	0	0	0	221.102427269208	221.152425269971	0.0499980007625709
91566	50	410	0	0	waffle_iron	1771	101	1	stimuli\waffle_iron\waffle_iron_09s.jpg	8	-1	1	0	waffle_iron_09s.jpg	0	0	0	221.202434485967	221.252412250549	0.049977764581854
91666	50	411	0	0	ukulele	1742	102	1	stimuli\ukulele\ukulele_06s.jpg	5	-1	1	0	ukulele_06s.jpg	0	0	0	221.30243658273	221.352398987314	0.0499624045842211
91766	50	412	0	0	ladybug	888	103	1	stimuli\ladybug\ladybug_01b.jpg	0	-1	1	0	ladybug_01b.jpg	0	0	0	221.402416492831	221.452419369783	0.0500028769529308
91866	50	413	0	0	razor_blade	1291	104	1	stimuli\razor_blade\razor_blade_02s.jpg	1	-1	1	0	razor_blade_02s.jpg	0	0	0	221.502434924823	221.552403180838	0.0499682560148358
91966	50	414	0	0	stopwatch	1562	105	1	stimuli\stopwatch\stopwatch_09s.jpg	8	-1	1	0	stopwatch_09s.jpg	0	0	0	221.602439947299	221.652388454746	0.0499485074469703
92066	50	415	0	0	wineglass	1826	106	1	stimuli\wineglass\wineglass_04s.jpg	3	-1	1	0	wineglass_04s.jpg	0	0	0	221.702428146924	221.752407374359	0.0499792274349602
92166	50	416	0	0	hovercraft	808	107	1	stimuli\hovercraft\hovercraft_01b.jpg	0	-1	1	0	hovercraft_01b.jpg	0	0	0	221.802449992247	221.852417029211	0.0499670369645173
92266	50	417	0	0	squirt_gun	1530	108	1	stimuli\squirt_gun\squirt_gun_08s.jpg	7	-1	1	0	squirt_gun_08s.jpg	0	0	0	221.902459403293	221.952429609781	0.0499702064880694
92366	50	418	0	0	sidecar	1442	109	1	stimuli\sidecar\sidecar_06s.jpg	5	-1	1	0	sidecar_06s.jpg	0	0	0	222.002451503868	222.052432681779	0.0499811779118318
92466	50	419	0	0	scallop	1373	110	1	stimuli\scallop\scallop_11s.jpg	10	-1	1	0	scallop_11s.jpg	0	0	0	222.102454332056	222.152436241395	0.0499819093383849
92566	50	420	0	0	latte	901	111	1	stimuli\latte\latte_09s.jpg	8	-1	1	0	latte_09s.jpg	0	0	0	222.202457404055	222.25244102006	0.0499836160051927
92666	50	421	0	0	ham	739	112	1	stimuli\ham\ham_06s.jpg	5	-1	1	0	ham_06s.jpg	0	0	0	222.302441946536	222.352441166346	0.0499992198092514
92766	50	422	0	0	coyote	427	113	1	stimuli\coyote\coyote_05s.jpg	4	-1	1	0	coyote_05s.jpg	0	0	0	222.402464279479	222.452444482155	0.049980202675215
92866	50	423	0	0	filing_cabinet	585	114	1	stimuli\filing_cabinet\filing_cabinet_02s.jpg	1	-1	1	0	filing_cabinet_02s.jpg	0	0	0	222.502465157195	222.552427805589	0.0499626483942848
92966	50	424	0	0	shaker	1408	115	1	stimuli\shaker\shaker_10s.jpg	9	-1	1	0	shaker_10s.jpg	0	0	0	222.602451162533	222.652449650916	0.0499984883826983
93066	50	425	0	0	amplifier	20	116	1	stimuli\amplifier\amplifier_04s.jpg	3	-1	1	0	amplifier_04s.jpg	0	0	0	222.702453503105	222.752451260058	0.0499977569525072
93166	50	426	0	0	bookshelf	167	117	1	stimuli\bookshelf\bookshelf_04s.jpg	3	-1	1	0	bookshelf_04s.jpg	0	0	0	222.802470472241	222.85245262539	0.0499821531484486
93266	50	427	0	0	cage	236	118	1	stimuli\cage\cage_09s.jpg	8	-1	1	0	cage_09s.jpg	0	0	0	222.902486709951	222.952439605968	0.0499528960172029
93366	50	428	0	0	cherry	316	119	1	stimuli\cherry\cherry_03s.jpg	2	-1	1	0	cherry_03s.jpg	0	0	0	223.002465157195	223.052441702726	0.0499765455315355
93466	50	429	0	0	lighter	928	120	1	stimuli\lighter\lighter_06s.jpg	5	-1	1	0	lighter_06s.jpg	0	0	0	223.10246164634	223.152464279479	0.0500026331392291
93566	50	430	0	0	wreath	1839	121	1	stimuli\wreath\wreath_05s.jpg	4	-1	1	0	wreath_05s.jpg	0	0	0	223.202483004046	223.252463938148	0.0499809341017681
93666	50	431	0	0	crossbow	444	122	1	stimuli\crossbow\crossbow_10s.jpg	9	-1	1	0	crossbow_10s.jpg	0	0	0	223.302482175095	223.352449699676	0.0499675245810067
93766	50	432	0	0	walker2	1774	123	1	stimuli\walker2\walker2_04s.jpg	3	-1	1	0	walker2_04s.jpg	0	0	0	223.402498168991	223.452456428819	0.0499582598276902
93866	50	433	0	0	manhole	967	124	1	stimuli\manhole\manhole_05n.jpg	4	-1	1	0	manhole_05n.jpg	0	0	0	223.502470521002	223.552449992247	0.0499794712450239
93966	50	434	0	0	remote_control	1302	125	1	stimuli\remote_control\remote_control_08s.jpg	7	-1	1	0	remote_control_08s.jpg	0	0	0	223.602491878708	223.652475007097	0.0499831283887033
94066	50	435	0	0	egg_roll	547	126	1	stimuli\egg_roll\egg_roll_09n.jpg	8	-1	1	0	egg_roll_09n.jpg	0	0	0	223.70249787642	223.752476372429	0.0499784960084071
94166	50	436	0	0	turf	1732	127	1	stimuli\turf\turf_10s.jpg	9	-1	1	0	turf_10s.jpg	0	0	0	223.802497291279	223.852466278717	0.0499689874377509
94266	50	437	0	0	candy_bar	256	128	1	stimuli\candy_bar\candy_bar_03s.jpg	2	-1	1	0	candy_bar_03s.jpg	0	0	0	223.902500119468	223.952484223093	0.0499841036253201
94366	50	438	0	0	asparagus	42	129	1	stimuli\asparagus\asparagus_10s.jpg	9	-1	1	0	asparagus_10s.jpg	0	0	0	224.002504654323	224.052489001759	0.0499843474353838
94466	50	439	0	0	chin	330	130	1	stimuli\chin\chin_03s.jpg	2	-1	1	0	chin_03s.jpg	0	0	0	224.102504800609	224.15247354424	0.0499687436313252
94566	50	440	0	0	platypus	1198	131	1	stimuli\platypus\platypus_11s.jpg	10	-1	1	0	platypus_11s.jpg	0	0	0	224.20249031833	224.252474909572	0.0499845912418095
94666	50	441	0	0	fly	621	132	1	stimuli\fly\fly_07s.jpg	6	-1	1	0	fly_07s.jpg	0	0	0	224.302511919843	224.352492610138	0.0499806902953424
94766	50	442	0	0	pallet	1101	133	1	stimuli\pallet\pallet_06s.jpg	5	-1	1	0	pallet_06s.jpg	0	0	0	224.402512066132	224.452497144994	0.0499850788619369
94866	50	443	0	0	dishrag	490	134	1	stimuli\dishrag\dishrag_10s.jpg	9	-1	1	0	dishrag_10s.jpg	0	0	0	224.502516844794	224.552479980808	0.0499631360144122
94966	50	444	0	0	playpen	1200	135	1	stimuli\playpen\playpen_02s.jpg	1	-1	1	0	playpen_02s.jpg	0	0	0	224.602517478699	224.652500607088	0.0499831283887033
95066	50	445	0	0	coral	406	136	1	stimuli\coral\coral_01b.jpg	0	-1	1	0	coral_01b.jpg	0	0	0	224.702522257365	224.75250221623	0.0499799588651513
95166	50	446	0	0	golf_club	690	137	1	stimuli\golf_club\golf_club_02s.jpg	1	-1	1	0	golf_club_02s.jpg	0	0	0	224.802525085553	224.852505288229	0.049980202675215
95266	50	447	0	0	hyena	815	138	1	stimuli\hyena\hyena_11s.jpg	10	-1	1	0	hyena_11s.jpg	0	0	0	224.902513285178	224.952492756423	0.0499794712450239
95366	50	448	0	0	letter_opener	919	139	1	stimuli\letter_opener\letter_opener_04s.jpg	3	-1	1	0	letter_opener_04s.jpg	0	0	0	225.00251001813	225.052498997946	0.0499889798156801
95466	50	449	0	0	pelican	1140	140	1	stimuli\pelican\pelican_02s.jpg	1	-1	1	0	pelican_02s.jpg	0	0	0	225.102529425363	225.152504264228	0.0499748388647276
95566	50	450	0	0	cloak	358	141	1	stimuli\cloak\cloak_05s.jpg	4	-1	1	0	cloak_05s.jpg	0	0	0	225.202517381174	225.252515869557	0.0499984883826983
95666	50	451	0	0	insole	831	142	1	stimuli\insole\insole_04s.jpg	3	-1	1	0	insole_04s.jpg	0	0	0	225.302521672224	225.352516503463	0.0499948312390188
95766	50	452	0	0	watering_can	1792	143	1	stimuli\watering_can\watering_can_05s.jpg	4	-1	1	0	watering_can_05s.jpg	0	0	0	225.402539616596	225.452521038318	0.0499814217218955
95866	50	453	0	0	life_jacket	924	144	1	stimuli\life_jacket\life_jacket_11s.jpg	10	-1	1	0	life_jacket_11s.jpg	0	0	0	225.502526353364	225.552506556036	0.049980202671577
95966	50	454	0	0	slide	1464	145	1	stimuli\slide\slide_12s.jpg	11	-1	1	0	slide_12s.jpg	0	0	0	225.602541615834	225.652528157552	0.0499865417186811
96066	50	455	0	0	keyboard	870	146	1	stimuli\keyboard\keyboard_04s.jpg	3	-1	1	0	keyboard_04s.jpg	0	0	0	225.702545663069	225.752547808592	0.0500021455227397
96166	50	456	0	0	dynamite	536	147	1	stimuli\dynamite\dynamite_08s.jpg	7	-1	1	0	dynamite_08s.jpg	0	0	0	225.802548247451	225.852514309176	0.0499660617242625
96266	50	457	0	0	cow	426	148	1	stimuli\cow\cow_08s.jpg	7	-1	1	0	cow_08s.jpg	0	0	0	225.902536934693	225.952534204025	0.0499972693323798
96366	50	458	0	0	dollhouse	500	149	1	stimuli\dollhouse\dollhouse_03s.jpg	2	-1	1	0	dollhouse_03s.jpg	0	0	0	226.002555854306	226.052535569361	0.0499797150550876
96466	50	459	0	0	cupcake	461	150	1	stimuli\cupcake\cupcake_12s.jpg	11	-1	1	0	cupcake_12s.jpg	0	0	0	226.102558926304	226.152547906117	0.0499889798120421
96566	50	460	0	0	trigger	1713	151	1	stimuli\trigger\trigger_04s.jpg	3	-1	1	0	trigger_04s.jpg	0	0	0	226.202576383061	226.252541957168	0.0499655741077731
96666	50	461	0	0	otter	1085	152	1	stimuli\otter\otter_04n.jpg	3	-1	1	0	otter_04n.jpg	0	0	0	226.302554342685	226.35253503298	0.0499806902953424
96766	50	462	0	0	electric_chair	553	153	1	stimuli\electric_chair\electric_chair_07s.jpg	6	-1	1	0	electric_chair_07s.jpg	0	0	0	226.40255936516	226.452540543072	0.0499811779118318
96866	50	463	0	0	firetruck	596	154	1	stimuli\firetruck\firetruck_03s.jpg	2	-1	1	0	firetruck_03s.jpg	0	0	0	226.502555854306	226.552538007454	0.0499821531484486
96966	50	464	0	0	piglet	1173	155	1	stimuli\piglet\piglet_05s.jpg	4	-1	1	0	piglet_05s.jpg	0	0	0	226.602560876778	226.652544005166	0.0499831283887033
97066	50	465	0	0	baton3	94	156	1	stimuli\baton3\baton3_06s.jpg	5	-1	1	0	baton3_06s.jpg	0	0	0	226.702565411633	226.752548052402	0.0499826407685759
97166	50	466	0	0	potholder	1232	157	1	stimuli\potholder\potholder_04s.jpg	3	-1	1	0	potholder_04s.jpg	0	0	0	226.802572140776	226.852549905354	0.049977764578216
97266	50	467	0	0	dishwasher	491	158	1	stimuli\dishwasher\dishwasher_09s.jpg	8	-1	1	0	dishwasher_09s.jpg	0	0	0	226.902569848968	226.952550783069	0.0499809341017681
97366	50	468	0	0	pulley	1250	159	1	stimuli\pulley\pulley_03s.jpg	2	-1	1	0	pulley_03s.jpg	0	0	0	227.002571945726	227.052552636022	0.0499806902953424
97466	50	469	0	0	pearl	1134	160	1	stimuli\pearl\pearl_04s.jpg	3	-1	1	0	pearl_04s.jpg	0	0	0	227.102573311062	227.152558633734	0.0499853226720006
97566	50	470	0	0	diving_board	494	161	1	stimuli\diving_board\diving_board_11s.jpg	10	-1	1	0	diving_board_11s.jpg	0	0	0	227.202581746868	227.252559755256	0.0499780083882797
97666	50	471	0	0	gumdrop	726	162	1	stimuli\gumdrop\gumdrop_05s.jpg	4	-1	1	0	gumdrop_05s.jpg	0	0	0	227.302579211249	227.352562339634	0.0499831283850654
97766	50	472	0	0	locket	942	163	1	stimuli\locket\locket_02s.jpg	1	-1	1	0	locket_02s.jpg	0	0	0	227.402584233721	227.452565411633	0.0499811779118318
97866	50	473	0	0	headdress	763	164	1	stimuli\headdress\headdress_07s.jpg	6	-1	1	0	headdress_07s.jpg	0	0	0	227.502581941913	227.552568971252	0.0499870293388085
97966	50	474	0	0	candelabra	252	165	1	stimuli\candelabra\candelabra_08s.jpg	7	-1	1	0	candelabra_08s.jpg	0	0	0	227.602585013912	227.652569361348	0.0499843474353838
98066	50	475	0	0	pistachio	1188	166	1	stimuli\pistachio\pistachio_07n.jpg	6	-1	1	0	pistachio_07n.jpg	0	0	0	227.702594181148	227.752572189536	0.0499780083882797
98166	50	476	0	0	cushion	466	167	1	stimuli\cushion\cushion_05s.jpg	4	-1	1	0	cushion_05s.jpg	0	0	0	227.80259579029	227.852573067252	0.0499772769617266
98266	50	477	0	0	grenade	713	168	1	stimuli\grenade\grenade_03s.jpg	2	-1	1	0	grenade_03s.jpg	0	0	0	227.902594473719	227.952579796391	0.0499853226720006
98366	50	478	0	0	jigsaw_puzzle	851	169	1	stimuli\jigsaw_puzzle\jigsaw_puzzle_12s.jpg	11	-1	1	0	jigsaw_puzzle_12s.jpg	0	0	0	228.002597058097	228.052578479819	0.0499814217218955
98466	50	479	0	0	headphones	766	170	1	stimuli\headphones\headphones_12s.jpg	11	-1	1	0	headphones_12s.jpg	0	0	0	228.10259964248	228.152581551818	0.0499819093383849
98566	50	480	0	0	slingshot	1467	171	1	stimuli\slingshot\slingshot_08s.jpg	7	-1	1	0	slingshot_08s.jpg	0	0	0	228.202604664955	228.252584867627	0.049980202671577
98666	50	481	0	0	casserole	282	172	1	stimuli\casserole\casserole_03s.jpg	2	-1	1	1	casserole_03s.jpg	0	0	0	228.302606761714	228.352588671056	0.0499819093420228
98766	50	482	0	0	screen1	1388	173	1	stimuli\screen1\screen1_05s.jpg	4	-1	1	0	screen1_05s.jpg	0	0	0	228.402610321333	228.452591011624	0.0499806902917044
98866	50	483	0	0	payphone	1127	174	1	stimuli\payphone\payphone_04s.jpg	3	-1	1	0	payphone_04s.jpg	0	0	0	228.502613880952	228.552592864577	0.0499789836248965
98966	50	484	0	0	praying_mantis	1238	175	1	stimuli\praying_mantis\praying_mantis_10s.jpg	9	-1	1	0	praying_mantis_10s.jpg	1	0.341923714953737	1	228.60261280819	228.652597643242	0.0499848350518732
99066	50	485	0	0	mouthpiece	1032	176	1	stimuli\mouthpiece\mouthpiece_08s.jpg	7	-1	1	0	mouthpiece_08s.jpg	0	0	0	228.702618805899	228.752599008574	0.049980202675215
99166	50	486	0	0	football_helmet	630	177	1	stimuli\football_helmet\football_helmet_01b.jpg	0	-1	1	0	football_helmet_01b.jpg	0	0	0	228.802617001711	228.852592815816	0.0499758141049824
99266	50	487	0	0	rosary	1333	178	1	stimuli\rosary\rosary_09s.jpg	8	-1	1	0	rosary_09s.jpg	0	0	0	228.902632020374	228.952615148759	0.0499831283850654
99366	50	488	0	0	bunkbed	222	179	1	stimuli\bunkbed\bunkbed_04s.jpg	3	-1	1	0	bunkbed_04s.jpg	0	0	0	229.002631679039	229.052612613141	0.0499809341017681
99466	50	489	0	0	canister	259	180	1	stimuli\canister\canister_12s.jpg	11	-1	1	0	canister_12s.jpg	0	0	0	229.102634751038	229.15261641657	0.0499816655319592
99566	50	490	0	0	mussel	1042	181	1	stimuli\mussel\mussel_03s.jpg	2	-1	1	0	mussel_03s.jpg	0	0	0	229.202620512566	229.252601202861	0.0499806902953424
99666	50	491	0	0	swimming_pool	1596	182	1	stimuli\swimming_pool\swimming_pool_08s.jpg	7	-1	1	0	swimming_pool_08s.jpg	0	0	0	229.302622121708	229.352621341517	0.0499992198092514
99766	50	492	0	0	hummingbird	811	183	1	stimuli\hummingbird\hummingbird_04s.jpg	3	-1	1	0	hummingbird_04s.jpg	0	0	0	229.402642991798	229.452624169709	0.0499811779118318
99866	50	493	0	0	cape	266	184	1	stimuli\cape\cape_07s.jpg	6	-1	1	0	cape_07s.jpg	0	0	0	229.502642894273	229.552625535041	0.0499826407685759
99966	50	494	0	0	bucket	209	185	1	stimuli\bucket\bucket_11s.jpg	10	-1	1	0	bucket_11s.jpg	0	0	0	229.602632069134	229.652629338467	0.0499972693323798
100066	50	495	0	0	headband	762	186	1	stimuli\headband\headband_06s.jpg	5	-1	1	0	headband_06s.jpg	0	0	0	229.702653426841	229.752630703802	0.0499772769617266
100166	50	496	0	0	muff	1034	187	1	stimuli\muff\muff_08s.jpg	7	-1	1	0	muff_08s.jpg	0	0	0	229.802636018845	229.852633531991	0.0499975131460815
100266	50	497	0	0	roof_rack	1329	188	1	stimuli\roof_rack\roof_rack_02s.jpg	1	-1	1	0	roof_rack_02s.jpg	0	0	0	229.902657864171	229.952639042083	0.0499811779118318
100366	50	498	0	0	duster	534	189	1	stimuli\duster\duster_05s.jpg	4	-1	1	0	duster_05s.jpg	0	0	0	230.0026565476	230.052622853138	0.0499663055379642
100466	50	499	0	0	anteater	25	190	1	stimuli\anteater\anteater_09s.jpg	8	-1	1	0	anteater_09s.jpg	0	0	0	230.102658400552	230.152644454654	0.0499860541021917
100566	50	500	0	0	surfboard	1587	191	1	stimuli\surfboard\surfboard_06s.jpg	5	-1	1	0	surfboard_06s.jpg	0	0	0	230.20264855065	230.252646307606	0.0499977569561452
100666	50	501	0	0	chopsticks	339	192	1	stimuli\chopsticks\chopsticks_02s.jpg	1	-1	1	0	chopsticks_02s.jpg	0	0	0	230.302650891223	230.352632800561	0.0499819093383849
100766	50	502	0	0	lavender	904	193	1	stimuli\lavender\lavender_11s.jpg	10	-1	1	0	lavender_11s.jpg	0	0	0	230.402669810836	230.452652939221	0.0499831283850654
100866	50	503	0	0	gold	687	194	1	stimuli\gold\gold_02s.jpg	1	-1	1	0	gold_02s.jpg	0	0	0	230.502670200931	230.552638456942	0.0499682560111978
100966	50	504	0	0	tamale	1618	195	1	stimuli\tamale\tamale_01b.jpg	0	-1	1	0	tamale_01b.jpg	0	0	0	230.602671566263	230.652656401315	0.0499848350518732
101066	50	505	0	0	meatloaf	990	196	1	stimuli\meatloaf\meatloaf_11s.jpg	10	-1	1	0	meatloaf_11s.jpg	0	0	0	230.702676344928	230.75266093617	0.0499845912418095
101166	50	506	0	0	chipmunk	334	197	1	stimuli\chipmunk\chipmunk_04n.jpg	3	-1	1	0	chipmunk_04n.jpg	0	0	0	230.8026606436	230.852643771988	0.0499831283887033
101266	50	507	0	0	mushroom	1040	198	1	stimuli\mushroom\mushroom_09n.jpg	8	-1	1	0	mushroom_09n.jpg	0	0	0	230.902678831782	230.952645868747	0.0499670369645173
101366	50	508	0	0	poppy	1224	199	1	stimuli\poppy\poppy_03s.jpg	2	-1	1	0	poppy_03s.jpg	0	0	0	231.002666056171	231.052647721699	0.0499816655283212
101466	50	509	0	0	chime	328	200	1	stimuli\chime\chime_05s.jpg	4	-1	1	0	chime_05s.jpg	0	0	0	231.1026854634	231.152668104169	0.0499826407685759
101566	50	510	0	0	brownie	204	201	1	stimuli\brownie\brownie_10s.jpg	9	-1	1	0	brownie_10s.jpg	0	0	0	231.202689266829	231.252651671413	0.0499624045842211
101666	50	511	0	0	dustpan	535	202	1	stimuli\dustpan\dustpan_10s.jpg	9	-1	1	1	dustpan_10s.jpg	0	0	0	231.302693070254	231.352661813886	0.0499687436313252
101766	50	512	0	0	hatchet	759	203	1	stimuli\hatchet\hatchet_06s.jpg	5	-1	1	0	hatchet_06s.jpg	0	0	0	231.402684683209	231.452667567788	0.0499828845786396
101866	50	513	0	0	camera2	247	204	1	stimuli\camera2\camera2_12s.jpg	11	-1	1	0	camera2_12s.jpg	0	0	0	231.502691899968	231.552667714073	0.0499758141049824
101966	50	514	0	0	train	1698	205	1	stimuli\train\train_07s.jpg	6	-1	1	0	train_07s.jpg	0	0	0	231.602693021494	231.652673955596	0.0499809341017681
102066	50	515	0	0	cinnamon	348	206	1	stimuli\cinnamon\cinnamon_09s.jpg	8	-1	1	0	cinnamon_09s.jpg	1	0.450154380134336	1	231.702694630636	231.752671176167	0.0499765455315355
102166	50	516	0	0	trailer	1697	207	1	stimuli\trailer\trailer_08s.jpg	7	-1	1	0	trailer_08s.jpg	0	0	0	231.802692582634	231.852690827207	0.0499982445726346
102266	50	517	0	0	boulder	172	208	1	stimuli\boulder\boulder_11s.jpg	10	-1	1	0	boulder_11s.jpg	0	0	0	231.9026973613	231.952677807785	0.0499804464852787
102366	50	518	0	0	mouse1	1026	209	1	stimuli\mouse1\mouse1_07s.jpg	6	-1	1	0	mouse1_07s.jpg	0	0	0	232.002705797106	232.052683805498	0.0499780083919177
102466	50	519	0	0	drill	520	210	1	stimuli\drill\drill_01b.jpg	0	-1	1	0	drill_01b.jpg	0	0	0	232.102712770058	232.152684439399	0.0499716693411756
102566	50	520	0	0	toy	1694	211	1	stimuli\toy\toy_06s.jpg	5	-1	1	0	toy_06s.jpg	0	0	0	232.20270535825	232.252685073305	0.0499797150550876
102666	50	521	0	0	sushi	1588	212	1	stimuli\sushi\sushi_05s.jpg	4	-1	1	0	sushi_05s.jpg	0	0	0	232.302705748345	232.352694240541	0.0499884921955527
102766	50	522	0	0	lid	923	213	1	stimuli\lid\lid_11s.jpg	10	-1	1	0	lid_11s.jpg	0	0	0	232.402712965104	232.452690973492	0.0499780083882797
102866	50	523	0	0	gazelle	666	214	1	stimuli\gazelle\gazelle_03s.jpg	2	-1	1	0	gazelle_03s.jpg	0	0	0	232.502702871392	232.552683317877	0.0499804464852787
102966	50	524	0	0	pineapple	1182	215	1	stimuli\pineapple\pineapple_02n.jpg	1	-1	1	0	pineapple_02n.jpg	0	0	0	232.602726179575	232.652711014627	0.0499848350518732
103066	50	525	0	0	speedometer	1512	216	1	stimuli\speedometer\speedometer_05s.jpg	4	-1	1	0	speedometer_05s.jpg	0	0	0	232.702725594434	232.752692143778	0.0499665493443899
103166	50	526	0	0	cutting_board	467	217	1	stimuli\cutting_board\cutting_board_05s.jpg	4	-1	1	0	cutting_board_05s.jpg	0	0	0	232.802730860716	232.852714476721	0.0499836160051927
103266	50	527	0	0	coaster	368	218	1	stimuli\coaster\coaster_09s.jpg	8	-1	1	0	coaster_09s.jpg	0	0	0	232.902731982242	232.952716329673	0.0499843474317458
103366	50	528	0	0	revolving_door	1305	219	1	stimuli\revolving_door\revolving_door_12s.jpg	11	-1	1	0	revolving_door_12s.jpg	0	0	0	233.002729202813	233.052708917869	0.0499797150550876
103466	50	529	0	0	step_stool	1548	220	1	stimuli\step_stool\step_stool_04s.jpg	3	-1	1	0	step_stool_04s.jpg	0	0	0	233.102741295759	233.152712477484	0.0499711817246862
103566	50	530	0	0	puppet	1257	221	1	stimuli\puppet\puppet_03s.jpg	2	-1	1	0	puppet_03s.jpg	0	0	0	233.202732421098	233.252712136153	0.0499797150550876
103666	50	531	0	0	scissors	1379	222	1	stimuli\scissors\scissors_08s.jpg	7	-1	1	0	scissors_08s.jpg	0	0	0	233.302731104526	233.35269350911	0.0499624045842211
103766	50	532	0	0	hamster	743	223	1	stimuli\hamster\hamster_01b.jpg	0	-1	1	0	hamster_01b.jpg	0	0	0	233.402737589859	233.452721205864	0.0499836160051927
103866	50	533	0	0	block	143	224	1	stimuli\block\block_03s.jpg	2	-1	1	0	block_03s.jpg	0	0	0	233.502744318997	233.552719157866	0.0499748388683656
103966	50	534	0	0	shopping_cart	1428	225	1	stimuli\shopping_cart\shopping_cart_08s.jpg	7	-1	1	0	shopping_cart_08s.jpg	0	0	0	233.602713013865	233.652731250811	0.0500182369469258
104066	50	535	0	0	scuba	1392	226	1	stimuli\scuba\scuba_07s.jpg	6	-1	1	0	scuba_07s.jpg	0	0	0	233.702748756328	233.752727739957	0.0499789836285345
104166	50	536	0	0	panties	1107	227	1	stimuli\panties\panties_07s.jpg	6	-1	1	0	panties_07s.jpg	0	0	0	233.8027459769	233.852731787192	0.049985810292128
104266	50	537	0	0	jellyfish	845	228	1	stimuli\jellyfish\jellyfish_01b.jpg	0	-1	1	0	jellyfish_01b.jpg	0	0	0	233.902752462232	233.952732664908	0.049980202675215
104366	50	538	0	0	ram	1282	229	1	stimuli\ram\ram_09s.jpg	8	-1	1	0	ram_09s.jpg	0	0	0	234.002751877091	234.052731104526	0.0499792274349602
104466	50	539	0	0	goggles	686	230	1	stimuli\goggles\goggles_05s.jpg	4	-1	1	0	goggles_05s.jpg	0	0	0	234.102756411947	234.152738321285	0.0499819093383849
104566	50	540	0	0	knitting_needle	881	231	1	stimuli\knitting_needle\knitting_needle_05s.jpg	4	-1	1	0	knitting_needle_05s.jpg	0	0	0	234.202758996325	234.252740418047	0.0499814217218955
104666	50	541	0	0	brass_knuckles	193	232	1	stimuli\brass_knuckles\brass_knuckles_06s.jpg	5	-1	1	0	brass_knuckles_06s.jpg	0	0	0	234.302760117847	234.352742270999	0.0499821531520865
104766	50	542	0	0	dart	473	233	1	stimuli\dart\dart_07s.jpg	6	-1	1	0	dart_07s.jpg	0	0	0	234.402763433656	234.452748512518	0.0499850788619369
104866	50	543	0	0	ivy	834	234	1	stimuli\ivy\ivy_02s.jpg	1	-1	1	0	ivy_02s.jpg	0	0	0	234.502762848515	234.552749877854	0.0499870293388085
104966	50	544	0	0	wreck	1840	235	1	stimuli\wreck\wreck_02s.jpg	1	-1	1	0	wreck_02s.jpg	0	0	0	234.602775916701	234.652752706043	0.0499767893415992
105066	50	545	0	0	table	1608	236	1	stimuli\table\table_11s.jpg	10	-1	1	0	table_11s.jpg	0	0	0	234.702774356319	234.752748707568	0.0499743512482382
105166	50	546	0	0	pickax	1166	237	1	stimuli\pickax\pickax_12s.jpg	11	-1	1	0	pickax_12s.jpg	0	0	0	234.802772795938	234.852756168137	0.049983372198767
105266	50	547	0	0	stirrup	1558	238	1	stimuli\stirrup\stirrup_06s.jpg	5	-1	1	0	stirrup_06s.jpg	0	0	0	234.90277538032	234.952761434419	0.0499860540985537
105366	50	548	0	0	roll	1323	239	1	stimuli\roll\roll_07s.jpg	6	-1	1	0	roll_07s.jpg	1	0	0	235.002782597079	235.052757923564	0.049975326484855
105466	50	549	0	0	penlight	1147	240	1	stimuli\penlight\penlight_05s.jpg	4	-1	1	0	penlight_05s.jpg	0	0	0	235.102796152882	235.152771723177	0.0499755702949187
105566	50	550	0	0	eraser	559	241	1	stimuli\eraser\eraser_07s.jpg	6	-1	1	0	eraser_07s.jpg	0	0	0	235.202801175357	235.252755534231	0.0499543588739471
105666	50	551	0	0	chair	300	242	1	stimuli\chair\chair_12s.jpg	11	-1	1	0	chair_12s.jpg	0	0	0	235.302797420693	235.352778842414	0.0499814217218955
105766	50	552	0	0	generator	671	243	1	stimuli\generator\generator_08s.jpg	7	-1	1	0	generator_08s.jpg	0	0	0	235.402796104121	235.452781670603	0.0499855664820643
105866	50	553	0	0	ice	816	244	1	stimuli\ice\ice_08s.jpg	7	-1	1	0	ice_08s.jpg	0	0	0	235.50279941993	235.552765725464	0.0499663055343262
105966	50	554	0	0	nail_clippers	1047	245	1	stimuli\nail_clippers\nail_clippers_06s.jpg	5	-1	1	0	nail_clippers_06s.jpg	0	0	0	235.602802491929	235.652768309847	0.0499658179178368
106066	50	555	0	0	umbrella	1743	246	1	stimuli\umbrella\umbrella_12s.jpg	11	-1	1	0	umbrella_12s.jpg	0	0	0	235.702803369644	235.752784303746	0.0499809341017681
106166	50	556	0	0	towel	1692	247	1	stimuli\towel\towel_12s.jpg	11	-1	1	0	towel_12s.jpg	0	0	0	235.802789618792	235.852794933835	0.0500053150426538
106266	50	557	0	0	top_hat	1682	248	1	stimuli\top_hat\top_hat_09s.jpg	8	-1	1	0	top_hat_09s.jpg	0	0	0	235.902808782212	235.952790447744	0.0499816655319592
106366	50	558	0	0	weather_vane	1798	249	1	stimuli\weather_vane\weather_vane_06s.jpg	5	-1	1	0	weather_vane_06s.jpg	0	0	0	236.00279478755	236.052793763552	0.0499989760028257
106466	50	559	0	0	blueberry	149	250	1	stimuli\blueberry\blueberry_01b.jpg	0	-1	1	0	blueberry_01b.jpg	0	0	0	236.102813950973	236.152795616501	0.0499816655283212
106566	50	560	0	0	salami	1349	251	1	stimuli\salami\salami_01b.jpg	0	-1	1	0	salami_01b.jpg	0	0	0	236.202820923922	236.252797469453	0.0499765455315355
106666	50	561	0	0	tube_top	1724	252	1	stimuli\tube_top\tube_top_11s.jpg	10	-1	1	0	tube_top_11s.jpg	0	0	0	236.302818388303	236.352807368119	0.0499889798156801
106766	50	562	0	0	swimsuit	1597	253	1	stimuli\swimsuit\swimsuit_04s.jpg	3	-1	1	0	swimsuit_04s.jpg	0	0	0	236.402824629826	236.452806539164	0.0499819093383849
106866	50	563	0	0	lifesaver	925	254	1	stimuli\lifesaver\lifesaver_04s.jpg	3	-1	1	0	lifesaver_04s.jpg	0	0	0	236.502848425625	236.552810586403	0.0499621607777954
106966	50	564	0	0	honey	788	255	1	stimuli\honey\honey_06s.jpg	5	-1	1	0	honey_06s.jpg	0	0	0	236.602830530013	236.652809269832	0.0499787398184708
107066	50	565	0	0	key	869	256	1	stimuli\key\key_11s.jpg	10	-1	1	0	key_11s.jpg	0	0	0	236.702834333442	236.752796738027	0.0499624045842211
107166	50	566	0	0	boa	150	257	1	stimuli\boa\boa_11s.jpg	10	-1	1	0	boa_11s.jpg	0	0	0	236.802831797824	236.852815657639	0.0499838598152564
107266	50	567	0	0	hairspray	738	258	1	stimuli\hairspray\hairspray_03s.jpg	2	-1	1	0	hairspray_03s.jpg	0	0	0	236.902834869823	236.952817998208	0.0499831283850654
107366	50	568	0	0	rack1	1268	259	1	stimuli\rack1\rack1_08s.jpg	7	-1	1	0	rack1_08s.jpg	0	0	0	237.002820631351	237.052804491166	0.0499838598152564
107466	50	569	0	0	bagpipe	56	260	1	stimuli\bagpipe\bagpipe_11s.jpg	10	-1	1	0	bagpipe_11s.jpg	0	0	0	237.102847352864	237.152821460302	0.0499741074381745
107566	50	570	0	0	ski_pole	1455	261	1	stimuli\ski_pole\ski_pole_07s.jpg	6	-1	1	0	ski_pole_07s.jpg	0	0	0	237.202847011533	237.25281185421	0.0499648426775821
107666	50	571	0	0	hopscotch	796	262	1	stimuli\hopscotch\hopscotch_12s.jpg	11	-1	1	0	hopscotch_12s.jpg	0	0	0	237.302848133055	237.352852472864	0.050004339809675
107766	50	572	0	0	crayon	435	263	1	stimuli\crayon\crayon_04s.jpg	3	-1	1	0	crayon_04s.jpg	0	0	0	237.40283218792	237.452833114392	0.0500009264724213
107866	50	573	0	0	fire_alarm	591	264	1	stimuli\fire_alarm\fire_alarm_04s.jpg	3	-1	1	1	fire_alarm_04s.jpg	0	0	0	237.502834040868	237.552816681637	0.0499826407685759
107966	50	574	0	0	burner	224	265	1	stimuli\burner\burner_07n.jpg	6	-1	1	0	burner_07n.jpg	0	0	0	237.602858811908	237.65283560125	0.0499767893415992
108066	50	575	0	0	yolk	1850	266	1	stimuli\yolk\yolk_02s.jpg	1	-1	1	0	yolk_02s.jpg	0	0	0	237.7028565201	237.752856958956	0.0500004388559319
108166	50	576	0	0	pepper_mill	1151	267	1	stimuli\pepper_mill\pepper_mill_10s.jpg	9	-1	1	0	pepper_mill_10s.jpg	0	0	0	237.802855691149	237.85283223668	0.0499765455315355
108266	50	577	0	0	cilantro	347	268	1	stimuli\cilantro\cilantro_07s.jpg	6	-1	1	0	cilantro_07s.jpg	1	0.392254515594686	1	237.902854374577	237.952834577249	0.049980202671577
108366	50	578	0	0	ferret	578	269	1	stimuli\ferret\ferret_05s.jpg	4	-1	1	0	ferret_05s.jpg	0	0	0	238.002859153243	238.052838136868	0.0499789836248965
108466	50	579	0	0	telescope	1640	270	1	stimuli\telescope\telescope_07s.jpg	6	-1	1	0	telescope_07s.jpg	0	0	0	238.102857349051	238.15284389077	0.0499865417186811
108566	50	580	0	0	basketball_hoop	84	271	1	stimuli\basketball_hoop\basketball_hoop_05s.jpg	4	-1	1	0	basketball_hoop_05s.jpg	0	0	0	238.20286871057	238.252842330392	0.0499736198216851
108666	50	581	0	0	smoke_alarm	1473	272	1	stimuli\smoke_alarm\smoke_alarm_03s.jpg	2	-1	1	0	smoke_alarm_03s.jpg	0	0	0	238.302865931142	238.352842964294	0.0499770331516629
108766	50	582	0	0	cornhusk	414	273	1	stimuli\cornhusk\cornhusk_04s.jpg	3	-1	1	0	cornhusk_04s.jpg	0	0	0	238.402869734571	238.452847986769	0.0499782521983434
108866	50	583	0	0	fruitcake	646	274	1	stimuli\fruitcake\fruitcake_05s.jpg	4	-1	1	0	fruitcake_05s.jpg	0	0	0	238.502870124667	238.552856910195	0.0499867855287448
108966	50	584	0	0	snowboard	1481	275	1	stimuli\snowboard\snowboard_03s.jpg	2	-1	1	0	snowboard_03s.jpg	0	0	0	238.602878316662	238.652851205054	0.0499728883914941
109066	50	585	0	0	cockatoo	372	276	1	stimuli\cockatoo\cockatoo_05s.jpg	4	-1	1	0	cockatoo_05s.jpg	0	0	0	238.702871636284	238.752858665623	0.0499870293388085
109166	50	586	0	0	limousine	931	277	1	stimuli\limousine\limousine_09s.jpg	8	-1	1	0	limousine_09s.jpg	0	0	0	238.802877633996	238.852855642384	0.0499780083882797
109266	50	587	0	0	diaper	485	278	1	stimuli\diaper\diaper_01b.jpg	0	-1	1	0	diaper_01b.jpg	0	0	0	238.902879486948	238.952858714383	0.0499792274349602
109366	50	588	0	0	sandal	1352	279	1	stimuli\sandal\sandal_05s.jpg	4	-1	1	0	sandal_05s.jpg	0	0	0	239.00288109609	239.052862517812	0.0499814217218955
109466	50	589	0	0	toothpaste	1680	280	1	stimuli\toothpaste\toothpaste_07s.jpg	6	-1	1	0	toothpaste_07s.jpg	0	0	0	239.102887581423	239.152867052668	0.0499794712450239
109566	50	590	0	0	artichoke	39	281	1	stimuli\artichoke\artichoke_05n.jpg	4	-1	1	0	artichoke_05n.jpg	0	0	0	239.202887971518	239.252867686573	0.0499797150550876
109666	50	591	0	0	skirt	1457	282	1	stimuli\skirt\skirt_08s.jpg	7	-1	1	0	skirt_08s.jpg	0	0	0	239.302887142563	239.352872465235	0.0499853226720006
109766	50	592	0	0	computer_screen	395	283	1	stimuli\computer_screen\computer_screen_06s.jpg	5	-1	1	0	computer_screen_06s.jpg	0	0	0	239.402890702182	239.452878706757	0.0499880045754253
109866	50	593	0	0	dumpster	533	284	1	stimuli\dumpster\dumpster_06s.jpg	5	-1	1	0	dumpster_06s.jpg	0	0	0	239.502894749417	239.552875195903	0.0499804464852787
109966	50	594	0	0	windowsill	1819	285	1	stimuli\windowsill\windowsill_02s.jpg	1	-1	1	0	windowsill_02s.jpg	0	0	0	239.602899040467	239.652879486948	0.0499804464816407
110066	50	595	0	0	microphone	998	286	1	stimuli\microphone\microphone_12s.jpg	11	-1	1	0	microphone_12s.jpg	0	0	0	239.702897967702	239.752882315137	0.0499843474353838
110166	50	596	0	0	slug	1472	287	1	stimuli\slug\slug_06s.jpg	5	-1	1	0	slug_06s.jpg	0	0	0	239.802903965414	239.852884411899	0.0499804464852787
110266	50	597	0	0	wall	1775	288	1	stimuli\wall\wall_04s.jpg	3	-1	1	0	wall_04s.jpg	0	0	0	239.902904355509	239.952894066751	0.0499897112422332
110366	50	598	0	0	prune	1244	289	1	stimuli\prune\prune_04s.jpg	3	-1	1	0	prune_04s.jpg	0	0	0	240.002909865605	240.052889824467	0.0499799588615133
110466	50	599	0	0	hail	732	290	1	stimuli\hail\hail_02s.jpg	1	-1	1	0	hail_02s.jpg	0	0	0	240.102914888077	240.152892652659	0.049977764581854
110566	50	600	0	0	elbow	552	291	1	stimuli\elbow\elbow_11s.jpg	10	-1	1	0	elbow_11s.jpg	0	0	0	240.202915765793	240.252891823704	0.0499760579114081
110666	50	601	0	0	hard_disk	752	292	1	stimuli\hard_disk\hard_disk_12s.jpg	11	-1	1	0	hard_disk_12s.jpg	0	0	0	240.302912011128	240.352900259513	0.049988248385489
110766	50	602	0	0	slime	1465	293	1	stimuli\slime\slime_02s.jpg	1	-1	1	0	slime_02s.jpg	0	0	0	240.402920690743	240.452899186752	0.0499784960084071
110866	50	603	0	0	shopping_basket	1427	294	1	stimuli\shopping_basket\shopping_basket_01b.jpg	0	-1	1	0	shopping_basket_01b.jpg	0	0	0	240.502921812265	240.552923713978	0.050001901712676
110966	50	604	0	0	stapler	1539	295	1	stimuli\stapler\stapler_02s.jpg	1	-1	1	0	stapler_02s.jpg	0	0	0	240.602927078551	240.652904843129	0.049977764578216
111066	50	605	0	0	mailbox	960	296	1	stimuli\mailbox\mailbox_06s.jpg	5	-1	1	0	mailbox_06s.jpg	0	0	0	240.702926249596	240.752907671318	0.0499814217218955
111166	50	606	0	0	crystal2	454	297	1	stimuli\crystal2\crystal2_03s.jpg	2	-1	1	0	crystal2_03s.jpg	0	0	0	240.802933222549	240.85290928046	0.0499760579114081
111266	50	607	0	0	cd_player	290	298	1	stimuli\cd_player\cd_player_05s.jpg	4	-1	1	0	cd_player_05s.jpg	0	0	0	240.902932881214	240.952916009603	0.0499831283887033
111366	50	608	0	0	coleslaw	386	299	1	stimuli\coleslaw\coleslaw_12s.jpg	11	-1	1	0	coleslaw_12s.jpg	0	0	0	241.002933758929	241.052916887314	0.0499831283850654
111466	50	609	0	0	kazoo	864	300	1	stimuli\kazoo\kazoo_07s.jpg	6	-1	1	0	kazoo_07s.jpg	0	0	0	241.102924640454	241.152908744079	0.0499841036253201
111566	50	610	0	0	horseshoe	799	301	1	stimuli\horseshoe\horseshoe_11n.jpg	10	-1	1	0	horseshoe_11n.jpg	0	0	0	241.202940878164	241.252917667505	0.0499767893415992
111666	50	611	0	0	checkers	311	302	1	stimuli\checkers\checkers_05s.jpg	4	-1	1	0	checkers_05s.jpg	0	0	0	241.302939073976	241.352924152838	0.0499850788619369
111766	50	612	0	0	board	152	303	1	stimuli\board\board_09s.jpg	8	-1	1	0	board_09s.jpg	0	0	0	241.402943365021	241.452923811503	0.0499804464816407
111866	50	613	0	0	feather	574	304	1	stimuli\feather\feather_06s.jpg	5	-1	1	0	feather_06s.jpg	0	0	0	241.502947899877	241.552927858738	0.0499799588615133
111966	50	614	0	0	hammock	742	305	1	stimuli\hammock\hammock_07s.jpg	6	-1	1	0	hammock_07s.jpg	0	0	0	241.602949996635	241.652930443121	0.0499804464852787
112066	50	615	0	0	ankle	22	306	1	stimuli\ankle\ankle_01b.jpg	0	-1	1	0	ankle_01b.jpg	0	0	0	241.702953312444	241.752932052263	0.0499787398184708
112166	50	616	0	0	locker	941	307	1	stimuli\locker\locker_10s.jpg	9	-1	1	0	locker_10s.jpg	0	0	0	241.802953214923	241.852934392831	0.0499811779081938
112266	50	617	0	0	spinach	1515	308	1	stimuli\spinach\spinach_09s.jpg	8	-1	1	0	spinach_09s.jpg	0	0	0	241.902957262158	241.952936733403	0.0499794712450239
116533	50	618	0	0	nail	1046	0	2	stimuli\nail\nail_10s.jpg	9	-1	2	0	nail_10s.jpg	0	0	0	246.16973622745	246.219715698695	0.0499794712450239
116633	50	619	0	0	mashed_potato	979	1	2	stimuli\mashed_potato\mashed_potato_11s.jpg	10	-1	2	0	mashed_potato_11s.jpg	0	0	0	246.269741249926	246.319722671644	0.0499814217182575
116733	50	620	0	0	column	388	2	2	stimuli\column\column_12s.jpg	11	-1	2	0	column_12s.jpg	0	0	0	246.369744078114	246.419720379836	0.0499763017214718
116833	50	621	0	0	waffle	1770	3	2	stimuli\waffle\waffle_04s.jpg	3	-1	2	0	waffle_04s.jpg	0	0	0	246.469742273923	246.519720769931	0.0499784960084071
116933	50	622	0	0	crate	433	4	2	stimuli\crate\crate_05s.jpg	4	-1	2	0	crate_05s.jpg	0	0	0	246.569742907828	246.619731400024	0.0499884921955527
117033	50	623	0	0	charcoal	307	5	2	stimuli\charcoal\charcoal_11s.jpg	10	-1	2	0	charcoal_11s.jpg	0	0	0	246.66974890554	246.719730083452	0.0499811779118318
117133	50	624	0	0	windshield	1820	6	2	stimuli\windshield\windshield_09s.jpg	8	-1	2	0	windshield_09s.jpg	0	0	0	246.769747832779	246.819744370685	0.0499965379058267
117233	50	625	0	0	bathrobe	90	7	2	stimuli\bathrobe\bathrobe_03s.jpg	2	-1	2	0	bathrobe_03s.jpg	0	0	0	246.869755293348	246.91973208269	0.0499767893415992
117333	50	626	0	0	balance_beam	58	8	2	stimuli\balance_beam\balance_beam_11s.jpg	10	-1	2	0	balance_beam_11s.jpg	0	0	0	246.969754708207	247.019734667068	0.0499799588615133
117433	50	627	0	0	mitten	1008	9	2	stimuli\mitten\mitten_10s.jpg	9	-1	2	0	mitten_10s.jpg	0	0	0	247.069756804965	247.119738958118	0.0499821531520865
117533	50	628	0	0	souffle	1498	10	2	stimuli\souffle\souffle_09s.jpg	8	-1	2	0	souffle_09s.jpg	0	0	0	247.169761583631	247.219770312007	0.0500087283762696
117633	50	629	0	0	parking_meter	1120	11	2	stimuli\parking_meter\parking_meter_03s.jpg	2	-1	2	0	parking_meter_03s.jpg	0	0	0	247.269770994677	247.319743639258	0.0499726445814304
117733	50	630	0	0	grinder	716	12	2	stimuli\grinder\grinder_01b.jpg	0	-1	2	0	grinder_01b.jpg	0	0	0	247.369769190485	247.4197452484	0.0499760579150461
117833	50	631	0	0	crystal_ball	455	13	2	stimuli\crystal_ball\crystal_ball_06s.jpg	5	-1	2	0	crystal_ball_06s.jpg	0	0	0	247.469768117724	247.519748808016	0.0499806902917044
117933	50	632	0	0	wick	1815	14	2	stimuli\wick\wick_12s.jpg	11	-1	2	0	wick_12s.jpg	0	0	0	247.569769970676	247.619753342871	0.049983372195129
118033	50	633	0	0	rollerskate	1327	15	2	stimuli\rollerskate\rollerskate_12s.jpg	11	-1	2	0	rollerskate_12s.jpg	0	0	0	247.669773286485	247.71975300154	0.0499797150550876
118133	50	634	0	0	toaster	1666	16	2	stimuli\toaster\toaster_11s.jpg	10	-1	2	0	toaster_11s.jpg	0	0	0	247.769775870864	247.819757048776	0.0499811779118318
118233	50	635	0	0	jetski	848	17	2	stimuli\jetski\jetski_11s.jpg	10	-1	2	0	jetski_11s.jpg	0	0	0	247.869778699052	247.919763777918	0.0499850788655749
118333	50	636	0	0	clam	349	18	2	stimuli\clam\clam_04s.jpg	3	-1	2	0	clam_04s.jpg	0	0	0	247.969780064388	248.01976489944	0.0499848350518732
118433	50	637	0	0	pot	1230	19	2	stimuli\pot\pot_10s.jpg	9	-1	2	0	pot_10s.jpg	0	0	0	248.069783380193	248.119764070489	0.0499806902953424
118533	50	638	0	0	stretcher	1572	20	2	stimuli\stretcher\stretcher_04s.jpg	3	-1	2	0	stretcher_04s.jpg	0	0	0	248.169786939812	248.2197649482	0.0499780083882797
118633	50	639	0	0	dog	495	21	2	stimuli\dog\dog_06s.jpg	5	-1	2	0	dog_06s.jpg	0	0	0	248.269786842287	248.319778504007	0.0499916617191047
118733	50	640	0	0	mattress	985	22	2	stimuli\mattress\mattress_08s.jpg	7	-1	2	0	mattress_08s.jpg	0	0	0	248.36979259619	248.419774505532	0.0499819093420228
118833	50	641	0	0	knife	879	23	2	stimuli\knife\knife_04s.jpg	3	-1	2	0	knife_04s.jpg	0	0	0	248.469795911999	248.519780747054	0.0499848350555112
118933	50	642	0	0	cactus	235	24	2	stimuli\cactus\cactus_03s.jpg	2	-1	2	0	cactus_03s.jpg	0	0	0	248.569798983997	248.619775773339	0.0499767893415992
119033	50	643	0	0	grasshopper	706	25	2	stimuli\grasshopper\grasshopper_10s.jpg	9	-1	2	0	grasshopper_10s.jpg	0	0	0	248.669799130283	248.719782014861	0.0499828845786396
119133	50	644	0	0	stove1	1563	26	2	stimuli\stove1\stove1_10s.jpg	9	-1	2	0	stove1_10s.jpg	0	0	0	248.769801714665	248.819783136387	0.0499814217218955
119233	50	645	0	0	duck	525	27	2	stimuli\duck\duck_02s.jpg	1	-1	2	0	duck_02s.jpg	0	0	0	248.869803567617	248.919787671242	0.0499841036253201
119333	50	646	0	0	tulip	1726	28	2	stimuli\tulip\tulip_08s.jpg	7	-1	2	0	tulip_08s.jpg	0	0	0	248.969806639616	249.019785623241	0.0499789836248965
119433	50	647	0	0	can_opener	251	29	2	stimuli\can_opener\can_opener_09s.jpg	8	-1	2	0	can_opener_09s.jpg	0	0	0	249.069809955425	249.119791133337	0.0499811779118318
119533	50	648	0	0	fishing_pole	603	30	2	stimuli\fishing_pole\fishing_pole_10s.jpg	9	-1	2	0	fishing_pole_10s.jpg	0	0	0	249.16981351504	249.219796887239	0.049983372198767
119633	50	649	0	0	snow	1479	31	2	stimuli\snow\snow_02s.jpg	1	-1	2	0	snow_02s.jpg	0	0	0	249.269816830849	249.319794595427	0.049977764578216
119733	50	650	0	0	scooter	1382	32	2	stimuli\scooter\scooter_08s.jpg	7	-1	2	0	scooter_08s.jpg	0	0	0	249.369826241895	249.419798398856	0.049972156961303
119833	50	651	0	0	scarecrow	1376	33	2	stimuli\scarecrow\scarecrow_09s.jpg	8	-1	2	0	scarecrow_09s.jpg	0	0	0	249.469817123419	249.519803665138	0.0499865417186811
119933	50	652	0	0	eye	564	34	2	stimuli\eye\eye_08s.jpg	7	-1	2	0	eye_08s.jpg	0	0	0	249.569820926848	249.619802836187	0.0499819093383849
120033	50	653	0	0	rocket	1320	35	2	stimuli\rocket\rocket_01b.jpg	0	-1	2	0	rocket_01b.jpg	0	0	0	249.669824974084	249.719802738662	0.049977764578216
120133	50	654	0	0	foam	624	36	2	stimuli\foam\foam_09s.jpg	8	-1	2	0	foam_09s.jpg	0	0	0	249.769828533703	249.819806785901	0.0499782521983434
120233	50	655	0	0	hot_tub	804	37	2	stimuli\hot_tub\hot_tub_07s.jpg	6	-1	2	0	hot_tub_07s.jpg	0	0	0	249.869832580938	249.91981790361	0.0499853226720006
