onset	duration	eventnumber	blocksequencenumber	isteststim	object	objectnumber	presentationnumber	sequencenumber	stim	stimnumber	teststimnumber	withinsequencenumber	istarget	stimname	response	rt	correct	time_stimon	time_stimoff	stimdur
24477	50	0	0	0	enchilada	556	0	0	stimuli\enchilada\enchilada_12s.jpg	11	-1	0	0	enchilada_12s.jpg	1	0	0	158.202472081874	158.252446689177	0.0499746073037386
24577	50	1	0	0	juicer1	855	1	0	stimuli\juicer1\juicer1_04s.jpg	3	-1	0	0	juicer1_04s.jpg	0	0	0	158.302473715506	158.352445884608	0.0499721691012383
24677	50	2	0	0	microscope	999	2	0	stimuli\microscope\microscope_04s.jpg	3	-1	0	0	microscope_04s.jpg	0	0	0	158.402495097369	158.452454344835	0.0499592474661767
24777	50	3	0	0	duct	527	3	0	stimuli\duct\duct_07s.jpg	6	-1	0	0	duct_07s.jpg	0	0	0	158.502492098603	158.552452565171	0.0499604665674269
24877	50	4	0	0	bookshelf	167	4	0	stimuli\bookshelf\bookshelf_09s.jpg	8	-1	0	0	bookshelf_09s.jpg	0	0	0	158.602478128392	158.652458587196	0.0499804588034749
24977	50	5	0	0	flute	620	5	0	stimuli\flute\flute_05s.jpg	4	-1	0	0	flute_05s.jpg	0	0	0	158.702482687775	158.752976365387	0.0504936776123941
25077	50	6	0	0	goose	693	6	0	stimuli\goose\goose_12s.jpg	11	-1	0	0	goose_12s.jpg	0	0	0	158.802485052496	158.852464779746	0.0499797272495925
25177	50	7	0	0	awning	44	7	0	stimuli\awning\awning_01b.jpg	0	-1	0	0	awning_01b.jpg	0	0	0	158.902487173676	158.952462268528	0.0499750948511064
25277	50	8	0	0	blowtorch	148	8	0	stimuli\blowtorch\blowtorch_01b.jpg	0	-1	0	0	blowtorch_01b.jpg	0	0	0	159.002494658809	159.052469997201	0.0499753383919597
25377	50	9	0	0	medal	991	9	0	stimuli\medal\medal_12s.jpg	11	-1	0	0	medal_12s.jpg	0	0	0	159.102493366692	159.152475288138	0.0499819214455783
25477	50	10	0	0	ankle	22	10	0	stimuli\ankle\ankle_03s.jpg	2	-1	0	0	ankle_03s.jpg	0	0	0	159.20249597542	159.252471557818	0.0499755823984742
25577	50	11	0	0	cactus	235	11	0	stimuli\cactus\cactus_11s.jpg	10	-1	0	0	cactus_11s.jpg	0	0	0	159.302495658398	159.352473678999	0.0499780206009746
25677	50	12	0	0	fig	581	12	0	stimuli\fig\fig_11s.jpg	10	-1	0	0	fig_11s.jpg	0	0	0	159.402499729767	159.452475800179	0.0499760704115033
25777	50	13	0	0	thumbtack	1654	13	0	stimuli\thumbtack\thumbtack_09s.jpg	8	-1	0	0	thumbtack_09s.jpg	0	0	0	159.502499656752	159.552476458251	0.0499768014997244
25877	50	14	0	0	calf1	241	14	0	stimuli\calf1\calf1_10s.jpg	9	-1	0	0	calf1_10s.jpg	0	0	0	159.602500802837	159.652481992729	0.049981189891696
25977	50	15	0	0	fountain_pen	637	15	0	stimuli\fountain_pen\fountain_pen_05s.jpg	4	-1	0	0	fountain_pen_05s.jpg	0	0	0	159.702504874207	159.752484357916	0.0499794837087393
26077	50	16	0	0	valve	1751	16	0	stimuli\valve\valve_12s.jpg	11	-1	0	0	valve_12s.jpg	0	0	0	159.802504313644	159.852490867488	0.0499865538440645
26177	50	17	0	0	springboard	1522	17	0	stimuli\springboard\springboard_03s.jpg	2	-1	0	0	springboard_03s.jpg	0	0	0	159.902510335669	159.952487624716	0.0499772890470922
26277	50	18	0	0	roof_rack	1329	18	0	stimuli\roof_rack\roof_rack_09s.jpg	8	-1	0	0	roof_rack_09s.jpg	0	0	0	160.00251367595	160.05249632895	0.0499826529994607
26377	50	19	0	0	barcode	73	19	0	stimuli\barcode\barcode_07s.jpg	6	-1	0	0	barcode_07s.jpg	0	0	0	160.102514090482	160.152494792826	0.0499807023443282
26477	50	20	0	0	raincoat	1279	20	0	stimuli\raincoat\raincoat_02s.jpg	1	-1	0	0	raincoat_02s.jpg	0	0	0	160.202520356048	160.252498133108	0.0499777770601213
26577	50	21	0	0	blanket	136	21	0	stimuli\blanket\blanket_05s.jpg	4	-1	0	0	blanket_05s.jpg	0	0	0	160.302520283032	160.352499522734	0.0499792397022247
26677	50	22	0	0	carriage	276	22	0	stimuli\carriage\carriage_09s.jpg	8	-1	0	0	carriage_09s.jpg	0	0	0	160.402522648219	160.452505544759	0.049982896540314
26777	50	23	0	0	zucchini	1853	23	0	stimuli\zucchini\zucchini_07s.jpg	6	-1	0	0	zucchini_07s.jpg	0	0	0	160.502526719589	160.552502301987	0.0499755823984742
26877	50	24	0	0	tarp	1628	24	0	stimuli\tarp\tarp_08s.jpg	7	-1	0	0	tarp_08s.jpg	0	0	0	160.60253005987	160.652509543113	0.049979483243078
26977	50	25	0	0	speaker	1509	25	0	stimuli\speaker\speaker_11s.jpg	10	-1	0	0	speaker_11s.jpg	0	0	0	160.702530474402	160.752513127401	0.0499826529994607
27077	50	26	0	0	cheetah	315	26	0	stimuli\cheetah\cheetah_01b.jpg	0	-1	0	0	cheetah_01b.jpg	0	0	0	160.802536740433	160.85251597967	0.0499792392365634
27177	50	27	0	0	crank	432	27	0	stimuli\crank\crank_02s.jpg	1	-1	0	1	crank_02s.jpg	0	0	0	160.902541299351	160.952517857309	0.0499765579588711
27277	50	28	0	0	turtle	1736	28	0	stimuli\turtle\turtle_02s.jpg	1	-1	0	0	turtle_02s.jpg	0	0	0	161.002540494781	161.052519490942	0.0499789961613715
27377	50	29	0	0	stir_fry	1557	29	0	stimuli\stir_fry\stir_fry_11s.jpg	10	-1	0	0	stir_fry_11s.jpg	0	0	0	161.102542859968	161.152519417461	0.0499765574932098
27477	50	30	0	0	slot	1469	30	0	stimuli\slot\slot_05s.jpg	4	-1	0	0	slot_05s.jpg	1	0.341919410042465	1	161.202547906898	161.252526902594	0.0499789956957102
27577	50	31	0	0	knee	877	31	0	stimuli\knee\knee_10s.jpg	9	-1	0	0	knee_10s.jpg	0	0	0	161.30254856497	161.352526829578	0.0499782646074891
27677	50	32	0	0	board_game	153	32	0	stimuli\board_game\board_game_09s.jpg	8	-1	0	0	board_game_09s.jpg	0	0	0	161.402550198603	161.452530657407	0.0499804588034749
27777	50	33	0	0	punch2	1255	33	0	stimuli\punch2\punch2_06s.jpg	5	-1	0	0	punch2_06s.jpg	0	0	0	161.502553051338	161.55252838973	0.0499753383919597
27877	50	34	0	0	jack	835	34	0	stimuli\jack\jack_07s.jpg	6	-1	0	0	jack_07s.jpg	0	0	0	161.602557122707	161.652541482355	0.0499843596480787
27977	50	35	0	0	cello	292	35	0	stimuli\cello\cello_12s.jpg	11	-1	0	0	cello_12s.jpg	0	0	0	161.702558999881	161.752536289394	0.0499772895127535
28077	50	36	0	0	shower_cap	1434	36	0	stimuli\shower_cap\shower_cap_04s.jpg	3	-1	0	0	shower_cap_04s.jpg	0	0	0	161.802561852615	161.852540360764	0.0499785081483424
28177	50	37	0	0	bell_pepper	117	37	0	stimuli\bell_pepper\bell_pepper_02s.jpg	1	-1	0	0	bell_pepper_02s.jpg	0	0	0	161.90256202314	161.952540043741	0.0499780206009746
28277	50	38	0	0	banana_split	65	38	0	stimuli\banana_split\banana_split_09s.jpg	8	-1	0	0	banana_split_09s.jpg	0	0	0	162.002568045165	162.052545334678	0.0499772895127535
28377	50	39	0	0	clay	352	39	0	stimuli\clay\clay_12s.jpg	11	-1	0	0	clay_12s.jpg	0	0	0	162.102568459697	162.152545017656	0.0499765579588711
28477	50	40	0	0	garbage_truck	656	40	0	stimuli\garbage_truck\garbage_truck_10s.jpg	9	-1	0	0	garbage_truck_10s.jpg	0	0	0	162.202571068425	162.252550064586	0.0499789961613715
28577	50	41	0	0	drain	515	41	0	stimuli\drain\drain_11s.jpg	10	-1	0	0	drain_11s.jpg	0	0	0	162.302574652713	162.352552185766	0.0499775330536067
28677	50	42	0	0	gyro	730	42	0	stimuli\gyro\gyro_06s.jpg	5	-1	0	0	gyro_06s.jpg	0	0	0	162.402577992994	162.452557720244	0.0499797272495925
28777	50	43	0	0	surfboard	1587	43	0	stimuli\surfboard\surfboard_03s.jpg	2	-1	0	0	surfboard_03s.jpg	0	0	0	162.502578895073	162.552559841424	0.0499809463508427
28877	50	44	0	0	snowshoe	1485	44	0	stimuli\snowshoe\snowshoe_01b.jpg	0	-1	0	0	snowshoe_01b.jpg	0	0	0	162.602581259795	162.652565863449	0.0499846036545932
28977	50	45	0	0	garbage	655	45	0	stimuli\garbage\garbage_12s.jpg	11	-1	0	0	garbage_12s.jpg	0	0	0	162.702586062718	162.752565546427	0.0499794837087393
29077	50	46	0	0	branch	192	46	0	stimuli\branch\branch_07s.jpg	6	-1	0	0	branch_07s.jpg	0	0	0	162.802587940358	162.852569861803	0.0499819214455783
29177	50	47	0	0	jeans	842	47	0	stimuli\jeans\jeans_08s.jpg	7	-1	0	0	jeans_08s.jpg	0	0	0	162.902605177369	162.952568813227	0.0499636358581483
29277	50	48	0	0	boxing_gloves	183	48	0	stimuli\boxing_gloves\boxing_gloves_02s.jpg	1	-1	0	0	boxing_gloves_02s.jpg	0	0	0	163.002595839556	163.052572641056	0.0499768014997244
29377	50	49	0	0	avocado	43	49	0	stimuli\avocado\avocado_05s.jpg	4	-1	0	0	avocado_05s.jpg	0	0	0	163.102594303899	163.15256964229	0.0499753383919597
29477	50	50	0	0	staple_gun	1538	50	0	stimuli\staple_gun\staple_gun_02s.jpg	1	-1	0	0	staple_gun_02s.jpg	0	0	0	163.202597643714	163.252582003362	0.0499843596480787
29577	50	51	0	0	gift	672	51	0	stimuli\gift\gift_03s.jpg	2	-1	0	0	gift_03s.jpg	0	0	0	163.302599277347	163.352579248603	0.0499799712561071
29677	50	52	0	0	funnel	649	52	0	stimuli\funnel\funnel_10s.jpg	9	-1	0	0	funnel_10s.jpg	0	0	0	163.402604080271	163.452585758176	0.0499816779047251
29777	50	53	0	0	syrup	1605	53	0	stimuli\syrup\syrup_07s.jpg	6	-1	0	0	syrup_07s.jpg	0	0	0	163.502607420553	163.55258275941	0.049975338857621
29877	50	54	0	0	hoodie	792	54	0	stimuli\hoodie\hoodie_01b.jpg	0	-1	0	0	hoodie_01b.jpg	0	0	0	163.602609541733	163.652588537429	0.0499789956957102
29977	50	55	0	0	shoulder	1431	55	0	stimuli\shoulder\shoulder_06s.jpg	5	-1	0	0	shoulder_06s.jpg	0	0	0	163.702614101116	163.752589683514	0.0499755823984742
30077	50	56	0	0	waterwheel	1794	56	0	stimuli\waterwheel\waterwheel_09s.jpg	8	-1	0	0	waterwheel_09s.jpg	0	0	0	163.802618172485	163.852598143741	0.0499799712561071
30177	50	57	0	0	squeegee	1527	57	0	stimuli\squeegee\squeegee_02s.jpg	1	-1	0	0	squeegee_02s.jpg	0	0	0	163.902617367916	163.952594657429	0.0499772895127535
30277	50	58	0	0	ottoman	1086	58	0	stimuli\ottoman\ottoman_05s.jpg	4	-1	0	0	ottoman_05s.jpg	0	0	0	164.002618514001	164.052599703893	0.049981189891696
30377	50	59	0	0	sandbag	1353	59	0	stimuli\sandbag\sandbag_06s.jpg	5	-1	0	0	sandbag_06s.jpg	0	0	0	164.102620635182	164.152599874884	0.0499792397022247
30477	50	60	0	0	pajamas	1099	60	0	stimuli\pajamas\pajamas_10s.jpg	9	-1	0	0	pajamas_10s.jpg	0	0	0	164.202626901213	164.252603702713	0.0499768014997244
30577	50	61	0	0	wallet	1776	61	0	stimuli\wallet\wallet_12s.jpg	11	-1	0	0	wallet_12s.jpg	0	0	0	164.30262853438	164.352605823893	0.0499772895127535
30677	50	62	0	0	recliner	1294	62	0	stimuli\recliner\recliner_11s.jpg	10	-1	0	0	recliner_11s.jpg	0	0	0	164.402628705371	164.452611845918	0.0499831405468285
30777	50	63	0	0	soup	1499	63	0	stimuli\soup\soup_11s.jpg	10	-1	0	0	soup_11s.jpg	0	0	0	164.502633020747	164.552608603146	0.0499755823984742
30877	50	64	0	0	radar	1271	64	0	stimuli\radar\radar_01s.jpg	0	-1	0	0	radar_01s.jpg	0	0	0	164.602636117022	164.652617306914	0.049981189891696
30977	50	65	0	0	tiger	1659	65	0	stimuli\tiger\tiger_09s.jpg	8	-1	0	0	tiger_09s.jpg	0	0	0	164.70263872575	164.752615039703	0.0499763139523566
31077	50	66	0	0	shrimp	1438	66	0	stimuli\shrimp\shrimp_04s.jpg	3	-1	0	0	shrimp_04s.jpg	0	0	0	164.802640115377	164.852610577829	0.0499704624526203
31177	50	67	0	0	robe	1317	67	0	stimuli\robe\robe_06s.jpg	5	-1	0	0	robe_06s.jpg	0	0	0	164.902636629064	164.952608798165	0.0499721691012383
31277	50	68	0	0	drill	520	68	0	stimuli\drill\drill_09s.jpg	8	-1	0	0	drill_09s.jpg	0	0	0	165.002634361386	165.052616526838	0.0499821654520929
31377	50	69	0	0	police_car	1214	69	0	stimuli\police_car\police_car_10s.jpg	9	-1	0	0	police_car_10s.jpg	0	0	0	165.102638433222	165.152614990715	0.0499765574932098
31477	50	70	0	0	sarcophagus	1358	70	0	stimuli\sarcophagus\sarcophagus_11s.jpg	10	-1	0	0	sarcophagus_11s.jpg	0	0	0	165.202637628652	165.252618818544	0.049981189891696
31577	50	71	0	0	bib	122	71	0	stimuli\bib\bib_01n.jpg	0	-1	0	0	bib_01n.jpg	0	0	0	165.302641456481	165.352619233076	0.04997777659446
31677	50	72	0	0	mixer	1009	72	0	stimuli\mixer\mixer_02s.jpg	1	-1	0	0	mixer_02s.jpg	0	0	0	165.402645040303	165.452624767553	0.0499797272495925
31777	50	73	0	0	headlight	765	73	0	stimuli\headlight\headlight_12s.jpg	11	-1	0	0	headlight_12s.jpg	0	0	0	165.502660814673	165.552624450531	0.0499636358581483
31877	50	74	0	0	cracker	429	74	0	stimuli\cracker\cracker_11s.jpg	10	-1	0	0	cracker_11s.jpg	0	0	0	165.602649526671	165.652632910758	0.0499833840876818
31977	50	75	0	0	guacamole	719	75	0	stimuli\guacamole\guacamole_09s.jpg	8	-1	0	0	guacamole_09s.jpg	0	0	0	165.702654329594	165.752642834093	0.049988504499197
32077	50	76	0	0	chest1	319	76	0	stimuli\chest1\chest1_09s.jpg	8	-1	0	0	chest1_09s.jpg	0	0	0	165.802654500119	165.852639591321	0.049985091201961
32177	50	77	0	0	ram	1282	77	0	stimuli\ram\ram_11s.jpg	10	-1	0	0	ram_11s.jpg	0	0	0	165.902658327948	165.952637080103	0.0499787521548569
32277	50	78	0	0	taffy	1615	78	0	stimuli\taffy\taffy_05s.jpg	4	-1	0	0	taffy_05s.jpg	0	0	0	166.002659717575	166.052642370574	0.0499826529994607
32377	50	79	0	0	aquarium	34	79	0	stimuli\aquarium\aquarium_05s.jpg	4	-1	0	0	aquarium_05s.jpg	0	0	0	166.102663545404	166.152645223308	0.0499816779047251
32477	50	80	0	0	doormat	511	80	0	stimuli\doormat\doormat_06s.jpg	5	-1	0	0	doormat_06s.jpg	0	0	0	166.202669079881	166.252648319583	0.0499792397022247
32577	50	81	0	0	moth	1023	81	0	stimuli\moth\moth_09n.jpg	8	-1	0	0	moth_09n.jpg	0	0	0	166.302670957521	166.35264678346	0.0499758259393275
32677	50	82	0	0	skirt	1457	82	0	stimuli\skirt\skirt_03s.jpg	2	-1	0	0	skirt_03s.jpg	0	0	0	166.402672590688	166.452655487694	0.0499828970059752
32777	50	83	0	0	rag	1276	83	0	stimuli\rag\rag_02s.jpg	1	-1	0	0	rag_02s.jpg	0	0	0	166.502673736773	166.552652488928	0.0499787521548569
32877	50	84	0	0	kettle	868	84	0	stimuli\kettle\kettle_12s.jpg	11	-1	0	0	kettle_12s.jpg	0	0	0	166.602675613947	166.652657535858	0.0499819219112396
32977	50	85	0	0	fishbowl	601	85	0	stimuli\fishbowl\fishbowl_07s.jpg	6	-1	0	0	fishbowl_07s.jpg	0	0	0	166.702677735128	166.752657462377	0.0499797272495925
33077	50	86	0	0	walrus	1779	86	0	stimuli\walrus\walrus_03s.jpg	2	-1	0	0	walrus_03s.jpg	0	0	0	166.802681562956	166.852665679064	0.0499841161072254
33177	50	87	0	0	jetski	848	87	0	stimuli\jetski\jetski_08s.jpg	7	-1	0	0	jetski_08s.jpg	0	0	0	166.902687097434	166.952659510542	0.0499724131077528
33277	50	88	0	0	honey	788	88	0	stimuli\honey\honey_06s.jpg	5	-1	0	0	honey_06s.jpg	0	0	0	167.002690437716	167.052669433411	0.0499789956957102
33377	50	89	0	0	triangle	1710	89	0	stimuli\triangle\triangle_01b.jpg	0	-1	0	0	triangle_01b.jpg	0	0	0	167.102690852247	167.152670091949	0.0499792397022247
33477	50	90	0	0	highlighter	778	90	0	stimuli\highlighter\highlighter_09s.jpg	8	-1	0	0	highlighter_09s.jpg	0	0	0	167.202693948522	167.252672456671	0.0499785081483424
33577	50	91	0	0	cellphone	293	91	0	stimuli\cellphone\cellphone_10s.jpg	9	-1	0	0	cellphone_10s.jpg	0	0	0	167.302695826162	167.352676040959	0.0499802147969604
33677	50	92	0	0	plastic_film	1196	92	0	stimuli\plastic_film\plastic_film_10s.jpg	9	-1	0	0	plastic_film_10s.jpg	0	0	0	167.402698190883	167.452678893227	0.0499807023443282
33777	50	93	0	0	lingerie	932	93	0	stimuli\lingerie\lingerie_08s.jpg	7	-1	0	1	lingerie_08s.jpg	0	0	0	167.50270055607	167.552680039313	0.049979483243078
33877	50	94	0	0	pecan	1135	94	0	stimuli\pecan\pecan_07s.jpg	6	-1	0	0	pecan_07s.jpg	0	0	0	167.602704383433	167.652682892047	0.0499785086140037
33977	50	95	0	0	bow3	176	95	0	stimuli\bow3\bow3_01b.jpg	0	-1	0	0	bow3_01b.jpg	0	0	0	167.702729910612	167.752682575025	0.0499526644125581
34077	50	96	0	0	penlight	1147	96	0	stimuli\penlight\penlight_09s.jpg	8	-1	0	0	penlight_09s.jpg	1	0.341908194124699	1	167.802708138246	167.852692497894	0.0499843596480787
34177	50	97	0	0	home_plate	787	97	0	stimuli\home_plate\home_plate_01b.jpg	0	-1	0	0	home_plate_01b.jpg	0	0	0	167.902709527873	167.952688036021	0.0499785081483424
34277	50	98	0	0	binder	126	98	0	stimuli\binder\binder_03s.jpg	2	-1	0	0	binder_03s.jpg	0	0	0	168.002714331262	168.052697227802	0.049982896540314
34377	50	99	0	0	needle	1055	99	0	stimuli\needle\needle_12s.jpg	11	-1	0	0	needle_12s.jpg	0	0	0	168.102716208436	168.152695935685	0.0499797272495925
34477	50	100	0	0	punch1	1254	100	0	stimuli\punch1\punch1_10s.jpg	9	-1	0	0	punch1_10s.jpg	0	0	0	168.202717598062	168.252697325312	0.0499797272495925
34577	50	101	0	0	ball	59	101	0	stimuli\ball\ball_03s.jpg	2	-1	0	0	ball_03s.jpg	0	0	0	168.302722400986	168.3527009096	0.0499785086140037
34677	50	102	0	0	rain_gauge	1278	102	0	stimuli\rain_gauge\rain_gauge_06s.jpg	5	-1	0	0	rain_gauge_06s.jpg	0	0	0	168.402723791078	168.452706931625	0.0499831405468285
34777	50	103	0	0	paper	1112	103	0	stimuli\paper\paper_06s.jpg	5	-1	0	0	paper_06s.jpg	0	0	0	168.502727862448	168.552703688852	0.0499758264049888
34877	50	104	0	0	salad	1348	104	0	stimuli\salad\salad_11s.jpg	10	-1	0	0	salad_11s.jpg	0	0	0	168.602730715182	168.652710442431	0.0499797272495925
34977	50	105	0	0	razor	1290	105	0	stimuli\razor\razor_10s.jpg	9	-1	0	0	razor_10s.jpg	0	0	0	168.702731860802	168.752711588051	0.0499797272495925
35077	50	106	0	0	nut	1066	106	0	stimuli\nut\nut_01b.jpg	0	-1	0	0	nut_01b.jpg	0	0	0	168.80273544509	168.852717122529	0.0499816774390638
35177	50	107	0	0	suit	1580	107	0	stimuli\suit\suit_09s.jpg	8	-1	0	0	suit_09s.jpg	0	0	0	168.902756583411	168.952727289405	0.0499707059934735
35277	50	108	0	0	fire	590	108	0	stimuli\fire\fire_07s.jpg	6	-1	0	0	fire_07s.jpg	0	0	0	169.002750414889	169.052731604781	0.049981189891696
35377	50	109	0	0	furnace	651	109	0	stimuli\furnace\furnace_02s.jpg	1	-1	0	0	furnace_02s.jpg	0	0	0	169.102754730266	169.152734457515	0.0499797272495925
35477	50	110	0	0	float	616	110	0	stimuli\float\float_03s.jpg	2	-1	0	0	float_03s.jpg	0	0	0	169.202760021202	169.25274340529	0.0499833840876818
35577	50	111	0	0	cigarette	344	111	0	stimuli\cigarette\cigarette_09s.jpg	8	-1	0	0	cigarette_09s.jpg	0	0	0	169.302759216633	169.35273650568	0.0499772890470922
35677	50	112	0	0	cocktail	374	112	0	stimuli\cocktail\cocktail_02s.jpg	1	-1	0	0	cocktail_02s.jpg	0	0	0	169.4027608498	169.4527505734	0.0499897236004472
35777	50	113	0	0	amplifier	20	113	0	stimuli\amplifier\amplifier_02s.jpg	1	-1	0	0	amplifier_02s.jpg	0	0	0	169.502766140737	169.55274074804	0.0499746073037386
35877	50	114	0	0	radish	1274	114	0	stimuli\radish\radish_06n.jpg	5	-1	0	0	radish_06n.jpg	0	0	0	169.60276801791	169.65275067091	0.0499826529994607
35977	50	115	0	0	fast_food	572	115	0	stimuli\fast_food\fast_food_09s.jpg	8	-1	0	0	fast_food_09s.jpg	0	0	0	169.702769895084	169.752748891246	0.0499789961613715
36077	50	116	0	0	beaker	101	116	0	stimuli\beaker\beaker_06s.jpg	5	-1	0	0	beaker_06s.jpg	0	0	0	169.802776892669	169.852753206622	0.0499763139523566
36177	50	117	0	0	icemaker	821	117	0	stimuli\icemaker\icemaker_06s.jpg	5	-1	0	0	icemaker_06s.jpg	0	0	0	169.902777794749	169.952753864694	0.049976069945842
36277	50	118	0	0	buckle	210	118	0	stimuli\buckle\buckle_04s.jpg	3	-1	0	0	buckle_04s.jpg	0	0	0	170.002779671922	170.052761837374	0.0499821654520929
36377	50	119	0	0	air_pump	6	119	0	stimuli\air_pump\air_pump_04s.jpg	3	-1	0	0	air_pump_04s.jpg	0	0	0	170.102778379805	170.152758838609	0.0499804588034749
36477	50	120	0	0	wrap	1837	120	0	stimuli\wrap\wrap_12s.jpg	11	-1	0	0	wrap_12s.jpg	0	0	0	170.202782939188	170.252768273931	0.0499853347428143
36577	50	121	0	0	pincushion	1179	121	0	stimuli\pincushion\pincushion_08s.jpg	7	-1	0	0	pincushion_08s.jpg	0	0	0	170.302787010558	170.352762349416	0.049975338857621
36677	50	122	0	0	sled	1460	122	0	stimuli\sled\sled_12s.jpg	11	-1	0	0	sled_12s.jpg	0	0	0	170.402787912637	170.452772759832	0.0499848471954465
36777	50	123	0	0	hammer	741	123	0	stimuli\hammer\hammer_11n.jpg	10	-1	0	0	hammer_11n.jpg	0	0	0	170.50279247202	170.552768541966	0.049976069945842
36877	50	124	0	0	rack1	1268	124	0	stimuli\rack1\rack1_10s.jpg	9	-1	0	0	rack1_10s.jpg	0	0	0	170.602793861646	170.652773588896	0.0499797272495925
36977	50	125	0	0	face_mask	570	125	0	stimuli\face_mask\face_mask_02s.jpg	1	-1	0	0	face_mask_02s.jpg	0	0	0	170.702796957921	170.75277351588	0.0499765579588711
37077	50	126	0	0	limousine	931	126	0	stimuli\limousine\limousine_11s.jpg	10	-1	0	0	limousine_11s.jpg	0	0	0	170.802801517304	170.852779537905	0.0499780206009746
37177	50	127	0	0	laser_pointer	899	127	0	stimuli\laser_pointer\laser_pointer_01b.jpg	0	-1	0	0	laser_pointer_01b.jpg	0	0	0	170.902799981181	170.952779464889	0.0499794837087393
37277	50	128	0	0	corkboard	410	128	0	stimuli\corkboard\corkboard_10s.jpg	9	-1	0	0	corkboard_10s.jpg	0	0	0	171.002804540563	171.052787925117	0.0499833845533431
37377	50	129	0	0	gingerbread_man	674	129	0	stimuli\gingerbread_man\gingerbread_man_10s.jpg	9	-1	0	0	gingerbread_man_10s.jpg	0	0	0	171.102805199102	171.152784926351	0.0499797272495925
37477	50	130	0	0	elephant	554	130	0	stimuli\elephant\elephant_12n.jpg	11	-1	0	0	elephant_12n.jpg	0	0	0	171.202811952215	171.252791191917	0.0499792397022247
37577	50	131	0	0	dogfood	496	131	0	stimuli\dogfood\dogfood_10s.jpg	9	-1	0	0	dogfood_10s.jpg	0	0	0	171.302811635658	171.352793313097	0.0499816774390638
37677	50	132	0	0	rocket	1320	132	0	stimuli\rocket\rocket_03s.jpg	2	-1	0	0	rocket_03s.jpg	0	0	0	171.402816682123	171.452799579129	0.0499828970059752
37777	50	133	0	0	rat	1285	133	0	stimuli\rat\rat_11s.jpg	10	-1	0	0	rat_11s.jpg	0	0	0	171.502819534857	171.552795604803	0.049976069945842
37877	50	134	0	0	noose	1062	134	0	stimuli\noose\noose_08s.jpg	7	-1	0	0	noose_08s.jpg	0	0	0	171.602820924483	171.652799920179	0.0499789956957102
37977	50	135	0	0	washcloth	1783	135	0	stimuli\washcloth\washcloth_08s.jpg	7	-1	0	1	washcloth_08s.jpg	0	0	0	171.702825727873	171.752801797818	0.049976069945842
38077	50	136	0	0	cup	460	136	0	stimuli\cup\cup_02s.jpg	1	-1	0	0	cup_02s.jpg	0	0	0	171.80283028679	171.852807575837	0.0499772890470922
38177	50	137	0	0	modem	1011	137	0	stimuli\modem\modem_07s.jpg	6	-1	0	0	modem_07s.jpg	1	0.256234757136554	1	171.902833871078	171.952807746828	0.0499738757498562
38277	50	138	0	0	bagpipe	56	138	0	stimuli\bagpipe\bagpipe_09s.jpg	8	-1	0	0	bagpipe_09s.jpg	0	0	0	172.002833310049	172.052811574657	0.0499782646074891
38377	50	139	0	0	champagne	304	139	0	stimuli\champagne\champagne_03s.jpg	2	-1	0	0	champagne_03s.jpg	0	0	0	172.102834456135	172.152814183384	0.0499797272495925
38477	50	140	0	0	baby	46	140	0	stimuli\baby\baby_10s.jpg	9	-1	0	0	baby_10s.jpg	0	0	0	172.202838283964	172.252819473855	0.049981189891696
38578	50	141	0	0	popcorn	1223	141	0	stimuli\popcorn\popcorn_02n.jpg	1	-1	0	0	popcorn_02n.jpg	1	0.592176933307201	1	172.302840648685	172.352819156833	0.0499785081483424
38677	50	142	0	0	eagle	537	142	0	stimuli\eagle\eagle_06s.jpg	5	-1	0	0	eagle_06s.jpg	0	0	0	172.402839844115	172.452823960222	0.0499841161072254
38778	50	143	0	0	mat	982	143	0	stimuli\mat\mat_07s.jpg	6	-1	0	0	mat_07s.jpg	0	0	0	172.502844647039	172.552821449004	0.0499768019653857
38878	50	144	0	0	bread	194	144	0	stimuli\bread\bread_01b.jpg	0	-1	0	0	bread_01b.jpg	0	0	0	172.602848962881	172.652827471029	0.0499785081483424
38978	50	145	0	0	cloak	358	145	0	stimuli\cloak\cloak_03s.jpg	2	-1	0	0	cloak_03s.jpg	0	0	0	172.702850840054	172.752830567304	0.0499797272495925
39078	50	146	0	0	pulley	1250	146	0	stimuli\pulley\pulley_12s.jpg	11	-1	0	0	pulley_12s.jpg	0	0	0	172.802852473687	172.852832932025	0.0499804583378136
39178	50	147	0	0	creme_brulee	439	147	0	stimuli\creme_brulee\creme_brulee_05s.jpg	4	-1	0	0	creme_brulee_05s.jpg	0	0	0	172.902854594868	172.952832127456	0.0499775325879455
39278	50	148	0	0	tab	1607	148	0	stimuli\tab\tab_12s.jpg	11	-1	0	0	tab_12s.jpg	0	0	0	173.002856472041	173.052839612588	0.0499831405468285
39378	50	149	0	0	birdbath	129	149	0	stimuli\birdbath\birdbath_01b.jpg	0	-1	0	0	birdbath_01b.jpg	0	0	0	173.102863957174	173.152839052025	0.0499750948511064
39478	50	150	0	0	bracelet1	187	150	0	stimuli\bracelet1\bracelet1_01s.jpg	0	-1	0	0	bracelet1_01s.jpg	0	0	0	173.202864127699	173.252842879854	0.0499787521548569
39578	50	151	0	0	birthday_cake	132	151	0	stimuli\birthday_cake\birthday_cake_05s.jpg	4	-1	0	0	birthday_cake_05s.jpg	0	0	0	173.302865517326	173.352847682778	0.0499821654520929
39678	50	152	0	0	shell2	1418	152	0	stimuli\shell2\shell2_09s.jpg	8	-1	0	0	shell2_09s.jpg	0	0	0	173.402867638506	173.452849559952	0.0499819214455783
39778	50	153	0	0	caramel	270	153	0	stimuli\caramel\caramel_03s.jpg	2	-1	0	0	caramel_03s.jpg	0	0	0	173.502871953882	173.552849242929	0.0499772890470922
39878	50	154	0	0	hot_chocolate	803	154	0	stimuli\hot_chocolate\hot_chocolate_07s.jpg	6	-1	0	0	hot_chocolate_07s.jpg	0	0	0	173.602874806616	173.652861604001	0.0499867973849177
39978	50	155	0	0	target	1627	155	0	stimuli\target\target_07s.jpg	6	-1	0	0	target_07s.jpg	0	0	0	173.702874733135	173.752855435945	0.0499807028099895
40078	50	156	0	0	potpie	1234	156	0	stimuli\potpie\potpie_12s.jpg	11	-1	0	0	potpie_12s.jpg	0	0	0	173.802879780065	173.852861945517	0.0499821654520929
40178	50	157	0	0	chips	335	157	0	stimuli\chips\chips_04s.jpg	3	-1	0	0	chips_04s.jpg	0	0	0	173.902883851901	173.952863091603	0.0499792397022247
40278	50	158	0	0	boot	169	158	0	stimuli\boot\boot_04s.jpg	3	-1	0	0	boot_04s.jpg	0	0	0	174.002886460628	174.052867894527	0.0499814338982105
40378	50	159	0	0	satellite_dish	1361	159	0	stimuli\satellite_dish\satellite_dish_09s.jpg	8	-1	0	0	satellite_dish_09s.jpg	0	0	0	174.102890288457	174.152865383308	0.0499750948511064
40478	50	160	0	0	shoe_polish	1424	160	0	stimuli\shoe_polish\shoe_polish_12s.jpg	11	-1	0	0	shoe_polish_12s.jpg	0	0	0	174.202888752334	174.252869211137	0.0499804588034749
40578	50	161	0	0	sandal	1352	161	0	stimuli\sandal\sandal_08s.jpg	7	-1	0	0	sandal_08s.jpg	0	0	0	174.302890385967	174.352869625669	0.0499792397022247
40678	50	162	0	0	steamroller	1545	162	0	stimuli\steamroller\steamroller_06s.jpg	5	-1	0	0	steamroller_06s.jpg	0	0	0	174.402896895539	174.452877110336	0.0499802147969604
40778	50	163	0	0	skeleton	1450	163	0	stimuli\skeleton\skeleton_01b.jpg	0	-1	0	0	skeleton_01b.jpg	0	0	0	174.502899016719	174.552873624023	0.0499746073037386
40878	50	164	0	0	lemonade	915	164	0	stimuli\lemonade\lemonade_11s.jpg	10	-1	0	0	lemonade_11s.jpg	0	0	0	174.602903332096	174.652880133595	0.0499768014997244
40978	50	165	0	0	hopscotch	796	165	0	stimuli\hopscotch\hopscotch_01b.jpg	0	-1	0	0	hopscotch_01b.jpg	0	0	0	174.702900577337	174.752879816573	0.0499792392365634
41078	50	166	0	0	rooster	1330	166	0	stimuli\rooster\rooster_01b.jpg	0	-1	0	0	rooster_01b.jpg	0	0	0	174.802906599361	174.852889739908	0.0499831405468285
41178	50	167	0	0	eyepiece	568	167	0	stimuli\eyepiece\eyepiece_10s.jpg	9	-1	0	0	eyepiece_10s.jpg	0	0	0	174.902908964083	174.952890885528	0.0499819214455783
41278	50	168	0	0	hobbyhorse	782	168	0	stimuli\hobbyhorse\hobbyhorse_12s.jpg	11	-1	0	0	hobbyhorse_12s.jpg	0	0	0	175.002915961668	175.052893250715	0.0499772890470922
41378	50	169	0	0	straw2	1569	169	0	stimuli\straw2\straw2_10s.jpg	9	-1	0	0	straw2_10s.jpg	0	0	0	175.102912962902	175.152889520396	0.0499765574932098
41478	50	170	0	0	iceskate	823	170	0	stimuli\iceskate\iceskate_05s.jpg	4	-1	0	0	iceskate_05s.jpg	0	0	0	175.202917034272	175.252896761522	0.0499797272495925
41578	50	171	0	0	heater	772	171	0	stimuli\heater\heater_06s.jpg	5	-1	0	0	heater_06s.jpg	0	0	0	175.30291769281	175.352898882702	0.049981189891696
41678	50	172	0	0	chip	333	172	0	stimuli\chip\chip_11n.jpg	10	-1	0	0	chip_11n.jpg	0	0	0	175.402922983281	175.45290149143	0.0499785081483424
41778	50	173	0	0	ski_boots	1453	173	0	stimuli\ski_boots\ski_boots_04s.jpg	3	-1	0	1	ski_boots_04s.jpg	0	0	0	175.502923641354	175.552904831711	0.0499811903573573
41878	50	174	0	0	omelet	1076	174	0	stimuli\omelet\omelet_01b.jpg	0	-1	0	0	omelet_01b.jpg	0	0	0	175.602928688284	175.652911341283	0.0499826529994607
41978	50	175	0	0	ballot_box	61	175	0	stimuli\ballot_box\ballot_box_01b.jpg	0	-1	0	0	ballot_box_01b.jpg	0	0	0	175.70293300366	175.752906635869	0.049973632209003
42078	50	176	0	0	blowgun	147	176	0	stimuli\blowgun\blowgun_03s.jpg	2	-1	0	0	blowgun_03s.jpg	1	0.309136054012924	1	175.802930979989	175.85291485209	0.0499838721007109
42178	50	177	0	0	gargoyle	657	177	0	stimuli\gargoyle\gargoyle_06s.jpg	5	-1	0	0	gargoyle_06s.jpg	0	0	0	175.902933832724	175.952910146676	0.0499763139523566
42278	50	178	0	0	pogo_stick	1208	178	0	stimuli\pogo_stick\pogo_stick_10s.jpg	9	-1	0	0	pogo_stick_10s.jpg	0	0	0	176.002940830309	176.052919094451	0.0499782641418278
42378	50	179	0	0	rim	1312	179	0	stimuli\rim\rim_07s.jpg	6	-1	0	0	rim_07s.jpg	0	0	0	176.102940756828	176.152919752989	0.0499789961613715
42478	50	180	0	0	shell1	1417	180	0	stimuli\shell1\shell1_09s.jpg	8	-1	0	0	shell1_09s.jpg	0	0	0	176.20294531621	176.25292504346	0.0499797272495925
42578	50	181	0	0	jewel	849	181	0	stimuli\jewel\jewel_05s.jpg	4	-1	0	0	jewel_05s.jpg	0	0	0	176.302950606681	176.352922044694	0.0499714380130172
42678	50	182	0	0	deodorant	479	182	0	stimuli\deodorant\deodorant_03s.jpg	2	-1	0	0	deodorant_03s.jpg	0	0	0	176.402950290125	176.452928798273	0.0499785081483424
42778	50	183	0	0	garlic	658	183	0	stimuli\garlic\garlic_08n.jpg	7	-1	0	0	garlic_08n.jpg	0	0	0	176.502942414954	176.55295091169	0.050008496735245
42878	50	184	0	0	handcuff	746	184	0	stimuli\handcuff\handcuff_04s.jpg	3	-1	0	0	handcuff_04s.jpg	0	0	0	176.602943317033	176.65292353183	0.0499802147969604
42978	50	185	0	0	lanyard	896	185	0	stimuli\lanyard\lanyard_06s.jpg	5	-1	0	0	lanyard_06s.jpg	0	0	0	176.702945925761	176.752980266232	0.0500343404710293
43078	50	186	0	0	pin	1177	186	0	stimuli\pin\pin_07s.jpg	6	-1	0	0	pin_07s.jpg	0	0	0	176.802945365198	176.852927530184	0.0499821649864316
43178	50	187	0	0	crib	441	187	0	stimuli\crib\crib_06s.jpg	5	-1	0	0	crib_06s.jpg	0	0	0	176.902949680574	176.95293769706	0.0499880164861679
43278	50	188	0	0	toad	1664	188	0	stimuli\toad\toad_07s.jpg	6	-1	0	0	toad_07s.jpg	0	0	0	177.002952776849	177.052932991646	0.0499802147969604
43378	50	189	0	0	hot-water_bottle	802	189	0	stimuli\hot-water_bottle\hot-water_bottle_12s.jpg	11	-1	0	0	hot-water_bottle_12s.jpg	0	0	0	177.102957092226	177.152964613866	0.0500075216405094
43478	50	190	0	0	notepad	1065	190	0	stimuli\notepad\notepad_05s.jpg	4	-1	0	0	notepad_05s.jpg	0	0	0	177.202958481852	177.252938940655	0.0499804588034749
43578	50	191	0	0	pan	1103	191	0	stimuli\pan\pan_06s.jpg	5	-1	0	0	pan_06s.jpg	0	0	0	177.302960847039	177.353005671408	0.0500448243692517
43678	50	192	0	0	toucan	1690	192	0	stimuli\toucan\toucan_02s.jpg	1	-1	0	0	toucan_02s.jpg	0	0	0	177.402963943314	177.452942451462	0.0499785081483424
43778	50	193	0	0	accordion	2	193	0	stimuli\accordion\accordion_09s.jpg	8	-1	0	0	accordion_09s.jpg	0	0	0	177.502968014684	177.552966515534	0.0499985008500516
43878	50	194	0	0	seagull	1395	194	0	stimuli\seagull\seagull_07s.jpg	6	-1	0	0	seagull_07s.jpg	0	0	0	177.602967210114	177.652948644012	0.0499814338982105
43978	50	195	0	0	jellyfish	845	195	0	stimuli\jellyfish\jellyfish_11s.jpg	10	-1	0	0	jellyfish_11s.jpg	0	0	0	177.702972013503	177.752952471841	0.0499804583378136
44078	50	196	0	0	poinsettia	1209	196	0	stimuli\poinsettia\poinsettia_12s.jpg	11	-1	0	0	poinsettia_12s.jpg	0	0	0	177.802993395366	177.852958006319	0.049964610952884
44178	50	197	0	0	banjo	68	197	0	stimuli\banjo\banjo_04s.jpg	3	-1	0	0	banjo_04s.jpg	0	0	0	177.902977718506	177.952962078154	0.0499843596480787
44278	50	198	0	0	rifle	1311	198	0	stimuli\rifle\rifle_06s.jpg	5	-1	0	0	rifle_06s.jpg	0	0	0	178.00297764549	178.052962492686	0.0499848471954465
44378	50	199	0	0	magnet	956	199	0	stimuli\magnet\magnet_07s.jpg	6	-1	0	0	magnet_07s.jpg	0	0	0	178.102980741765	178.152962907217	0.0499821654520929
44478	50	200	0	0	rose	1334	200	0	stimuli\rose\rose_09s.jpg	8	-1	0	0	rose_09s.jpg	0	0	0	178.202982862946	178.252965271939	0.0499824089929461
44578	50	201	0	0	thimble	1649	201	0	stimuli\thimble\thimble_03n.jpg	2	-1	0	0	thimble_03n.jpg	0	0	0	178.302984496579	178.352967149112	0.0499826525337994
44678	50	202	0	0	plum	1203	202	0	stimuli\plum\plum_12s.jpg	11	-1	0	0	plum_12s.jpg	0	0	0	178.402993200347	178.452970489394	0.0499772890470922
44778	50	203	0	0	sauerkraut	1364	203	0	stimuli\sauerkraut\sauerkraut_10s.jpg	9	-1	0	0	sauerkraut_10s.jpg	0	0	0	178.502990445122	178.55297480477	0.0499843596480787
44878	50	204	0	0	bell	116	204	0	stimuli\bell\bell_07s.jpg	6	-1	0	0	bell_07s.jpg	0	0	0	178.602994760964	178.652975706849	0.0499809458851814
44978	50	205	0	0	defibrillator	477	205	0	stimuli\defibrillator\defibrillator_10s.jpg	9	-1	0	0	defibrillator_10s.jpg	0	0	0	178.703000051435	178.752976608928	0.0499765574932098
45078	50	206	0	0	pillow	1176	206	0	stimuli\pillow\pillow_06s.jpg	5	-1	0	1	pillow_06s.jpg	0	0	0	178.802999734413	178.852980436757	0.0499807023443282
45178	50	207	0	0	dagger	469	207	0	stimuli\dagger\dagger_04s.jpg	3	-1	0	0	dagger_04s.jpg	0	0	0	178.903004049789	178.952985240147	0.0499811903573573
45278	50	208	0	0	cupcake	461	208	0	stimuli\cupcake\cupcake_06s.jpg	5	-1	0	0	cupcake_06s.jpg	1	0.260051595047116	1	179.003004708327	179.052985654678	0.0499809463508427
45378	50	209	0	0	veil	1755	209	0	stimuli\veil\veil_04s.jpg	3	-1	0	0	veil_04s.jpg	0	0	0	179.103014875203	179.152990457602	0.0499755823984742
45478	50	210	0	0	bead	100	210	0	stimuli\bead\bead_12s.jpg	11	-1	0	0	bead_12s.jpg	0	0	0	179.203011388425	179.253005256876	0.0499938684515655
45578	50	211	0	0	bow1	174	211	0	stimuli\bow1\bow1_12s.jpg	11	-1	0	0	bow1_12s.jpg	0	0	0	179.303012290504	179.352994943503	0.0499826529994607
45678	50	212	0	0	radiator	1272	212	0	stimuli\radiator\radiator_06s.jpg	5	-1	0	0	radiator_06s.jpg	0	0	0	179.403015874792	179.45299730869	0.0499814338982105
45778	50	213	0	0	tackle	1612	213	0	stimuli\tackle\tackle_05s.jpg	4	-1	0	0	tackle_05s.jpg	0	0	0	179.503021165263	179.553003574256	0.0499824089929461
45878	50	214	0	0	hatbox	758	214	0	stimuli\hatbox\hatbox_03s.jpg	2	-1	0	0	hatbox_03s.jpg	0	0	0	179.603023042902	179.653001551051	0.0499785081483424
45978	50	215	0	0	pickle	1167	215	0	stimuli\pickle\pickle_07s.jpg	6	-1	0	0	pickle_07s.jpg	0	0	0	179.703023700975	179.753009523265	0.0499858222901821
46078	50	216	0	0	router	1336	216	0	stimuli\router\router_05s.jpg	4	-1	0	0	router_05s.jpg	0	0	0	179.803028503899	179.853008962702	0.0499804588034749
46178	50	217	0	0	fern	577	217	0	stimuli\fern\fern_05s.jpg	4	-1	0	0	fern_05s.jpg	0	0	0	179.90302891843	179.953010352328	0.0499814338982105
46278	50	218	0	0	frog	644	218	0	stimuli\frog\frog_06s.jpg	5	-1	0	0	frog_06s.jpg	0	0	0	180.003031771164	180.053011254407	0.049979483243078
46378	50	219	0	0	license_plate	921	219	0	stimuli\license_plate\license_plate_10s.jpg	9	-1	0	0	license_plate_10s.jpg	0	0	0	180.103035111446	180.153028004337	0.0499928928911686
46478	50	220	0	0	onion	1077	220	0	stimuli\onion\onion_01b.jpg	0	-1	0	0	onion_01b.jpg	0	0	0	180.203042840119	180.253018178511	0.0499753383919597
46578	50	221	0	0	shell3	1419	221	0	stimuli\shell3\shell3_10s.jpg	9	-1	0	0	shell3_10s.jpg	0	0	0	180.303041791543	180.353029076941	0.0499872853979468
46678	50	222	0	0	hip	780	222	0	stimuli\hip\hip_08s.jpg	7	-1	0	0	hip_08s.jpg	0	0	0	180.403045619372	180.453024615068	0.0499789956957102
46778	50	223	0	0	polisher	1215	223	0	stimuli\polisher\polisher_10s.jpg	9	-1	0	0	polisher_10s.jpg	0	0	0	180.503045789897	180.5530438032	0.0499980133026838
46878	50	224	0	0	bed	108	224	0	stimuli\bed\bed_12s.jpg	11	-1	0	0	bed_12s.jpg	0	0	0	180.603045716882	180.653027882334	0.0499821654520929
46978	50	225	0	0	slipper	1468	225	0	stimuli\slipper\slipper_03s.jpg	2	-1	0	0	slipper_03s.jpg	0	0	0	180.703052470461	180.753031953704	0.049979483243078
47078	50	226	0	0	stuffing	1575	226	0	stimuli\stuffing\stuffing_10s.jpg	9	-1	0	0	stuffing_10s.jpg	0	0	0	180.803052640986	180.853033831343	0.0499811903573573
47178	50	227	0	0	inhaler	828	227	0	stimuli\inhaler\inhaler_12s.jpg	11	-1	0	0	inhaler_12s.jpg	0	0	0	180.903056468815	180.953037902713	0.0499814338982105
47278	50	228	0	0	saltshaker	1350	228	0	stimuli\saltshaker\saltshaker_06s.jpg	5	-1	0	0	saltshaker_06s.jpg	0	0	0	181.003059565555	181.053036854602	0.0499772890470922
47378	50	229	0	0	luggage	948	229	0	stimuli\luggage\luggage_10s.jpg	9	-1	0	0	luggage_10s.jpg	0	0	0	181.103063149378	181.153042876627	0.0499797272495925
47478	50	230	0	0	sprinkler	1523	230	0	stimuli\sprinkler\sprinkler_08s.jpg	7	-1	0	0	sprinkler_08s.jpg	0	0	0	181.203063563909	181.25304646045	0.049982896540314
47578	50	231	0	0	hedge	773	231	0	stimuli\hedge\hedge_07s.jpg	6	-1	0	0	hedge_07s.jpg	0	0	0	181.303067879286	181.353050775826	0.049982896540314
47678	50	232	0	0	petal	1158	232	0	stimuli\petal\petal_01b.jpg	0	-1	0	0	petal_01b.jpg	0	0	0	181.403069756459	181.453049727716	0.0499799712561071
47778	50	233	0	0	bathmat	89	233	0	stimuli\bathmat\bathmat_01b.jpg	0	-1	0	0	bathmat_01b.jpg	0	0	0	181.503070414998	181.553051117342	0.0499807023443282
47878	50	234	0	0	honeycomb	789	234	0	stimuli\honeycomb\honeycomb_01b.jpg	0	-1	0	0	honeycomb_01b.jpg	0	0	0	181.603080825415	181.653057139367	0.0499763139523566
47978	50	235	0	0	domino	503	235	0	stimuli\domino\domino_01b.jpg	0	-1	0	0	domino_01b.jpg	0	0	0	181.703078314196	181.753060723655	0.0499824094586074
48078	50	236	0	0	hippopotamus	781	236	0	stimuli\hippopotamus\hippopotamus_01b.jpg	0	-1	0	0	hippopotamus_01b.jpg	0	0	0	181.803077266086	181.85306381993	0.0499865538440645
48178	50	237	0	0	binoculars	127	237	0	stimuli\binoculars\binoculars_08s.jpg	7	-1	0	0	binoculars_08s.jpg	0	0	0	181.903084019199	181.953062527813	0.0499785086140037
48278	50	238	0	0	bottle	170	238	0	stimuli\bottle\bottle_11s.jpg	10	-1	0	0	bottle_11s.jpg	0	0	0	182.003086871933	182.053064648528	0.04997777659446
48378	50	239	0	0	hammock	742	239	0	stimuli\hammock\hammock_10s.jpg	9	-1	0	0	hammock_10s.jpg	0	0	0	182.103090212215	182.153070671018	0.0499804588034749
48478	50	240	0	0	shoehorn	1425	240	0	stimuli\shoehorn\shoehorn_08s.jpg	7	-1	0	0	shoehorn_08s.jpg	0	0	0	182.20309623424	182.253069622442	0.0499733882024884
48578	50	241	0	0	eclair	544	241	0	stimuli\eclair\eclair_05s.jpg	4	-1	0	0	eclair_05s.jpg	0	0	0	182.303096404765	182.353076863568	0.0499804588034749
48678	50	242	0	0	yoke	1849	242	0	stimuli\yoke\yoke_04s.jpg	3	-1	0	0	yoke_04s.jpg	0	0	0	182.403095844202	182.453076790553	0.0499809463508427
48778	50	243	0	0	pearl	1134	243	0	stimuli\pearl\pearl_11s.jpg	10	-1	0	0	pearl_11s.jpg	0	0	0	182.503097477835	182.553081349935	0.0499838721007109
48878	50	244	0	0	chalk	302	244	0	stimuli\chalk\chalk_04s.jpg	3	-1	0	0	chalk_04s.jpg	0	0	0	182.603100818116	182.653082739562	0.0499819214455783
48978	50	245	0	0	tostada	1688	245	0	stimuli\tostada\tostada_07s.jpg	6	-1	0	0	tostada_07s.jpg	0	0	0	182.703104401939	182.753083641641	0.0499792397022247
49078	50	246	0	0	generator	671	246	0	stimuli\generator\generator_09s.jpg	8	-1	0	0	generator_09s.jpg	0	0	0	182.803106035572	182.853091614321	0.0499855787493289
49178	50	247	0	0	cruise_ship	450	247	0	stimuli\cruise_ship\cruise_ship_02s.jpg	1	-1	0	0	cruise_ship_02s.jpg	0	0	0	182.9031098634	182.953090565745	0.0499807023443282
49278	50	248	0	0	aluminum_foil	17	248	0	stimuli\aluminum_foil\aluminum_foil_10s.jpg	9	-1	0	0	aluminum_foil_10s.jpg	0	0	0	183.003109302372	183.053096343763	0.0499870413914323
49378	50	249	0	0	iron	832	249	0	stimuli\iron\iron_03s.jpg	2	-1	0	0	iron_03s.jpg	0	0	0	183.10311581241	183.153097977396	0.0499821649864316
49478	50	250	0	0	tray	1705	250	0	stimuli\tray\tray_08s.jpg	7	-1	0	0	tray_08s.jpg	1	0	0	183.203124516178	183.253097660374	0.0499731441959739
49578	50	251	0	0	worm	1836	251	0	stimuli\worm\worm_05n.jpg	4	-1	0	0	worm_05n.jpg	0	0	0	183.303120785858	183.353102951311	0.0499821654520929
49678	50	252	0	0	cardigan	273	252	0	stimuli\cardigan\cardigan_09s.jpg	8	-1	0	0	cardigan_09s.jpg	0	0	0	183.403124369681	183.453105803579	0.0499814338982105
49778	50	253	0	0	scallion	1372	253	0	stimuli\scallion\scallion_05s.jpg	4	-1	0	0	scallion_05s.jpg	0	0	0	183.50312624732	183.553105487023	0.0499792397022247
49878	50	254	0	0	woman	1832	254	0	stimuli\woman\woman_01b.jpg	0	-1	0	0	woman_01b.jpg	0	0	0	183.603126417845	183.653111752588	0.0499853347428143
49978	50	255	0	0	polar_bear	1211	255	0	stimuli\polar_bear\polar_bear_05s.jpg	4	-1	0	0	polar_bear_05s.jpg	0	0	0	183.70312927058	183.753112898674	0.0499836280941963
50078	50	256	0	0	purse	1259	256	0	stimuli\purse\purse_03s.jpg	2	-1	0	0	purse_03s.jpg	0	0	0	183.8031304162	183.853114044759	0.0499836285598576
50178	50	257	0	0	suspenders	1589	257	0	stimuli\suspenders\suspenders_11s.jpg	10	-1	0	0	suspenders_11s.jpg	0	0	0	183.903137901332	183.953115190379	0.0499772890470922
50278	50	258	0	0	tape_measure	1623	258	0	stimuli\tape_measure\tape_measure_04s.jpg	3	-1	0	0	tape_measure_04s.jpg	0	0	0	184.003136121668	184.053120481316	0.0499843596480787
50378	50	259	0	0	jalapeno	838	259	0	stimuli\jalapeno\jalapeno_02s.jpg	1	-1	0	0	jalapeno_02s.jpg	0	0	0	184.103142875247	184.153122846037	0.0499799707904458
50478	50	260	0	0	puck	1245	260	0	stimuli\puck\puck_12s.jpg	11	-1	0	0	puck_12s.jpg	0	0	0	184.203140364029	184.253125942312	0.0499855782836676
50578	50	261	0	0	pistachio	1188	261	0	stimuli\pistachio\pistachio_12s.jpg	11	-1	0	0	pistachio_12s.jpg	0	0	0	184.3031456545	184.353126844391	0.049981189891696
50678	50	262	0	0	broom	203	262	0	stimuli\broom\broom_11s.jpg	10	-1	0	0	broom_11s.jpg	0	0	0	184.403148994781	184.453133841977	0.0499848471954465
50778	50	263	0	0	sand	1351	263	0	stimuli\sand\sand_09s.jpg	8	-1	0	0	sand_09s.jpg	0	0	0	184.503150627948	184.553134012502	0.0499833845533431
50878	50	264	0	0	watermelon	1793	264	0	stimuli\watermelon\watermelon_04s.jpg	3	-1	0	0	watermelon_04s.jpg	0	0	0	184.603158844635	184.653138815425	0.0499799707904458
50978	50	265	0	0	saw	1366	265	0	stimuli\saw\saw_10s.jpg	9	-1	0	0	saw_10s.jpg	0	0	0	184.703156576958	184.753138498869	0.0499819219112396
51078	50	266	0	0	carrot	277	266	0	stimuli\carrot\carrot_11s.jpg	10	-1	0	0	carrot_11s.jpg	0	0	0	184.803160648793	184.853139644489	0.0499789956957102
51178	50	267	0	0	watering_can	1792	267	0	stimuli\watering_can\watering_can_12s.jpg	11	-1	0	0	watering_can_12s.jpg	0	0	0	184.903163745068	184.953144203871	0.0499804588034749
51278	50	268	0	0	starfish	1541	268	0	stimuli\starfish\starfish_11s.jpg	10	-1	0	0	starfish_11s.jpg	0	0	0	185.003165134694	185.053147787694	0.0499826529994607
51378	50	269	0	0	doghouse	497	269	0	stimuli\doghouse\doghouse_12s.jpg	11	-1	0	0	doghouse_12s.jpg	0	0	0	185.103169938084	185.153148933779	0.0499789956957102
51478	50	270	0	0	boomerang	168	270	0	stimuli\boomerang\boomerang_08s.jpg	7	-1	0	0	boomerang_08s.jpg	0	0	0	185.203171815258	185.253152761608	0.0499809463508427
51578	50	271	0	0	snowball	1480	271	0	stimuli\snowball\snowball_04s.jpg	3	-1	0	0	snowball_04s.jpg	0	0	0	185.303182957228	185.353157076985	0.0499741197563708
51678	50	272	0	0	xylophone	1843	272	0	stimuli\xylophone\xylophone_07s.jpg	6	-1	0	0	xylophone_07s.jpg	0	0	0	185.403176057618	185.453157979064	0.0499819214455783
51778	50	273	0	0	car_seat	269	273	0	stimuli\car_seat\car_seat_01b.jpg	0	-1	0	0	car_seat_01b.jpg	0	0	0	185.503178422339	185.553160100244	0.0499816779047251
51878	50	274	0	0	rug	1340	274	0	stimuli\rug\rug_03s.jpg	2	-1	0	0	rug_03s.jpg	0	0	0	185.603181275073	185.653162952978	0.0499816779047251
51978	50	275	0	0	fossil	636	275	0	stimuli\fossil\fossil_09s.jpg	8	-1	0	0	fossil_09s.jpg	0	0	0	185.703183639795	185.753166780341	0.0499831405468285
52078	50	276	0	0	tortellini	1686	276	0	stimuli\tortellini\tortellini_07s.jpg	6	-1	0	0	tortellini_07s.jpg	0	0	0	185.80318478588	185.85316768242	0.049982896540314
52178	50	277	0	0	watch	1786	277	0	stimuli\watch\watch_12s.jpg	11	-1	0	0	watch_12s.jpg	0	0	0	185.903188857716	185.953170779161	0.0499819214455783
52278	50	278	0	0	scaffolding	1370	278	0	stimuli\scaffolding\scaffolding_02s.jpg	1	-1	0	0	scaffolding_02s.jpg	0	0	0	186.003189515788	186.053171437234	0.0499819214455783
52378	50	279	0	0	tablet	1610	279	0	stimuli\tablet\tablet_09s.jpg	8	-1	0	0	tablet_09s.jpg	0	0	0	186.103191636968	186.153175509069	0.0499838721007109
52478	50	280	0	0	raspberry	1284	280	0	stimuli\raspberry\raspberry_06s.jpg	5	-1	0	0	raspberry_06s.jpg	0	0	0	186.203197903	186.253179580439	0.0499816774390638
52578	50	281	0	0	chain	298	281	0	stimuli\chain\chain_01b.jpg	0	-1	0	0	chain_01b.jpg	0	0	0	186.303206119221	186.353180238977	0.0499741197563708
52678	50	282	0	0	railing	1277	282	0	stimuli\railing\railing_06s.jpg	5	-1	0	0	railing_06s.jpg	0	0	0	186.403202144895	186.453183091246	0.0499809463508427
52778	50	283	0	0	pet_food	1157	283	0	stimuli\pet_food\pet_food_08s.jpg	7	-1	0	1	pet_food_08s.jpg	0	0	0	186.503203534987	186.553186675534	0.0499831405468285
52878	50	284	0	0	spool	1518	284	0	stimuli\spool\spool_01b.jpg	0	-1	0	0	spool_01b.jpg	0	0	0	186.603209313005	186.653186602052	0.0499772890470922
52978	50	285	0	0	gourd	696	285	0	stimuli\gourd\gourd_09s.jpg	8	-1	0	0	gourd_09s.jpg	0	0	0	186.703206558246	186.753189211246	0.0499826529994607
53078	50	286	0	0	ice_cream	818	286	0	stimuli\ice_cream\ice_cream_09s.jpg	8	-1	0	0	ice_cream_09s.jpg	1	0.341925504617393	1	186.803230378311	186.853196695913	0.0499663176015019
53178	50	287	0	0	pine_needle	1180	287	0	stimuli\pine_needle\pine_needle_08s.jpg	7	-1	0	0	pine_needle_08s.jpg	0	0	0	186.903216164093	186.953194428701	0.0499782646074891
53278	50	288	0	0	easel	542	288	0	stimuli\easel\easel_11s.jpg	10	-1	0	0	easel_11s.jpg	0	0	0	187.00322047947	187.053202644922	0.0499821654520929
53378	50	289	0	0	taillight	1617	289	0	stimuli\taillight\taillight_10s.jpg	9	-1	0	0	taillight_10s.jpg	0	0	0	187.103218699805	187.153203302994	0.0499846031889319
53478	50	290	0	0	test_tube	1645	290	0	stimuli\test_tube\test_tube_09s.jpg	8	-1	0	0	test_tube_09s.jpg	0	0	0	187.203224478289	187.253205180634	0.0499807023443282
53578	50	291	0	0	artichoke	39	291	0	stimuli\artichoke\artichoke_12s.jpg	11	-1	0	0	artichoke_12s.jpg	0	0	0	187.303225867916	187.353207789361	0.0499819214455783
53678	50	292	0	0	coyote	427	292	0	stimuli\coyote\coyote_08s.jpg	7	-1	0	0	coyote_08s.jpg	0	0	0	187.403228476644	187.453208447434	0.0499799707904458
53778	50	293	0	0	camper	249	293	0	stimuli\camper\camper_12s.jpg	11	-1	0	0	camper_12s.jpg	0	0	0	187.503230353817	187.553211544175	0.0499811903573573
53878	50	294	0	0	breakfast	197	294	0	stimuli\breakfast\breakfast_06s.jpg	5	-1	0	0	breakfast_06s.jpg	0	0	0	187.603233694099	187.653213665355	0.0499799712561071
53978	50	295	0	0	palm_tree	1102	295	0	stimuli\palm_tree\palm_tree_04s.jpg	3	-1	0	0	palm_tree_04s.jpg	0	0	0	187.703234352171	187.753220174927	0.0499858227558434
54078	50	296	0	0	baton3	94	296	0	stimuli\baton3\baton3_07s.jpg	6	-1	0	0	baton3_07s.jpg	0	0	0	187.803244275507	187.853220833	0.0499765574932098
54178	50	297	0	0	milk	1001	297	0	stimuli\milk\milk_09s.jpg	8	-1	0	0	milk_09s.jpg	0	0	0	187.903239570092	187.953222466633	0.049982896540314
54278	50	298	0	0	beachball	99	298	0	stimuli\beachball\beachball_08s.jpg	7	-1	0	0	beachball_08s.jpg	0	0	0	188.003246323206	188.053226782009	0.0499804588034749
54378	50	299	0	0	puppet	1257	299	0	stimuli\puppet\puppet_03s.jpg	2	-1	0	0	puppet_03s.jpg	0	0	0	188.103247713298	188.153228903189	0.049981189891696
54478	50	300	0	0	jeep	843	300	0	stimuli\jeep\jeep_08s.jpg	7	-1	0	0	jeep_08s.jpg	0	0	0	188.203249346465	188.253228586167	0.0499792397022247
54578	50	301	0	0	peanut_butter	1132	301	0	stimuli\peanut_butter\peanut_butter_06s.jpg	5	-1	0	0	peanut_butter_06s.jpg	0	0	0	188.303254149854	188.353233877104	0.0499797272495925
54678	50	302	0	0	gopher	694	302	0	stimuli\gopher\gopher_08s.jpg	7	-1	0	0	gopher_08s.jpg	0	0	0	188.403253588825	188.453235754278	0.0499821654520929
54778	50	303	0	0	girl	676	303	0	stimuli\girl\girl_05s.jpg	4	-1	0	0	girl_05s.jpg	0	0	0	188.503259123303	188.553237875458	0.0499787521548569
54878	50	304	0	0	lava	903	304	0	stimuli\lava\lava_01b.jpg	0	-1	0	0	lava_01b.jpg	0	0	0	188.603260025382	188.653240728192	0.0499807028099895
54978	50	305	0	0	string_cheese	1573	305	0	stimuli\string_cheese\string_cheese_01b.jpg	0	-1	0	0	string_cheese_01b.jpg	0	0	0	188.703263853211	188.75324333692	0.0499794837087393
55078	50	306	0	0	mousetrap	1029	306	0	stimuli\mousetrap\mousetrap_11s.jpg	10	-1	0	0	mousetrap_11s.jpg	0	0	0	188.803266949486	188.853248871397	0.0499819219112396
55178	50	307	0	0	straightjacket	1565	307	0	stimuli\straightjacket\straightjacket_04s.jpg	3	-1	0	0	straightjacket_04s.jpg	0	0	0	188.903269558679	188.95324952947	0.0499799707904458
55278	50	308	0	0	wok	1830	308	0	stimuli\wok\wok_07s.jpg	6	-1	0	0	wok_07s.jpg	0	0	0	189.0032719234	189.053250675555	0.0499787521548569
69812	50	309	0	0	engine	557	0	1	stimuli\engine\engine_06s.jpg	5	-1	1	0	engine_06s.jpg	1	0	0	203.536992848851	203.586985741742	0.0499928928911686
69912	50	310	0	0	ant	24	1	1	stimuli\ant\ant_09s.jpg	8	-1	1	0	ant_09s.jpg	0	0	0	203.637002284173	203.68697664747	0.049974363297224
70012	50	311	0	0	visor	1766	2	1	stimuli\visor\visor_08s.jpg	7	-1	1	0	visor_08s.jpg	0	0	0	203.737000748049	203.786974624265	0.0499738762155175
70112	50	312	0	0	ham	739	3	1	stimuli\ham\ham_05s.jpg	4	-1	1	0	ham_05s.jpg	0	0	0	203.837002138142	203.886979670729	0.0499775325879455
70212	50	313	0	0	candy_cane	257	4	1	stimuli\candy_cane\candy_cane_06s.jpg	5	-1	1	0	candy_cane_06s.jpg	0	0	0	203.936998651363	203.986993738916	0.0499950875528157
70312	50	314	0	0	meatloaf	990	5	1	stimuli\meatloaf\meatloaf_08s.jpg	7	-1	1	0	meatloaf_08s.jpg	0	0	0	204.037001504097	204.086985619739	0.0499841156415641
70412	50	315	0	0	padlock	1095	6	1	stimuli\padlock\padlock_06s.jpg	5	-1	1	0	padlock_06s.jpg	0	0	0	204.137021423317	204.186998224817	0.0499768014997244
70512	50	316	0	0	ferris_wheel	579	7	1	stimuli\ferris_wheel\ferris_wheel_02s.jpg	1	-1	1	0	ferris_wheel_02s.jpg	0	0	0	204.237018668093	204.286990349647	0.0499716815538704
70612	50	317	0	0	dial	483	8	1	stimuli\dial\dial_10s.jpg	9	-1	1	0	dial_10s.jpg	0	0	0	204.337020545732	204.386994665023	0.0499741192907095
70712	50	318	0	0	sparkler	1507	9	1	stimuli\sparkler\sparkler_03s.jpg	2	-1	1	0	sparkler_03s.jpg	0	0	0	204.437026811298	204.487011414953	0.0499846036545932
70812	50	319	0	0	stockings	1559	10	1	stimuli\stockings\stockings_07s.jpg	6	-1	1	0	stockings_07s.jpg	0	0	0	204.537029420026	204.587011585478	0.0499821654520929
70912	50	320	0	0	ukulele	1742	11	1	stimuli\ukulele\ukulele_02s.jpg	1	-1	1	0	ukulele_02s.jpg	0	0	0	204.637031541206	204.686999565922	0.0499680247157812
71012	50	321	0	0	tapestry	1625	12	1	stimuli\tapestry\tapestry_04s.jpg	3	-1	1	0	tapestry_04s.jpg	0	0	0	204.737018546555	204.787003393751	0.0499848471954465
71112	50	322	0	0	projector	1242	13	1	stimuli\projector\projector_05s.jpg	4	-1	1	1	projector_05s.jpg	0	0	0	204.837022861931	204.887016486377	0.049993624445051
71212	50	323	0	0	lip_balm	934	14	1	stimuli\lip_balm\lip_balm_10s.jpg	9	-1	1	0	lip_balm_10s.jpg	0	0	0	204.93702863995	204.987008854747	0.0499802147969604
71312	50	324	0	0	otter	1085	15	1	stimuli\otter\otter_09s.jpg	8	-1	1	0	otter_09s.jpg	0	0	0	205.037030029576	205.087021703832	0.0499916742555797
71412	50	325	0	0	machete	953	16	1	stimuli\machete\machete_09s.jpg	8	-1	1	0	machete_09s.jpg	1	0.300199947785586	1	205.137041415554	205.187025531661	0.0499841161072254
71512	50	326	0	0	bun	220	17	1	stimuli\bun\bun_11s.jpg	10	-1	1	0	bun_11s.jpg	0	0	0	205.237047437578	205.287025702186	0.0499782646074891
71612	50	327	0	0	book	165	18	1	stimuli\book\book_12s.jpg	11	-1	1	0	book_12s.jpg	0	0	0	205.337049071211	205.387031968217	0.0499828970059752
71712	50	328	0	0	pinecone	1183	19	1	stimuli\pinecone\pinecone_09s.jpg	8	-1	1	0	pinecone_09s.jpg	0	0	0	205.437042659149	205.48702092329	0.0499782641418278
71812	50	329	0	0	mulch	1038	20	1	stimuli\mulch\mulch_09s.jpg	8	-1	1	0	mulch_09s.jpg	0	0	0	205.537055020221	205.587034503464	0.049979483243078
71912	50	330	0	0	juicer2	856	21	1	stimuli\juicer2\juicer2_07s.jpg	6	-1	1	0	juicer2_07s.jpg	0	0	0	205.637046901509	205.687027359847	0.0499804583378136
72012	50	331	0	0	green_beans	712	22	1	stimuli\green_beans\green_beans_06s.jpg	5	-1	1	0	green_beans_06s.jpg	0	0	0	205.737059994135	205.787030944135	0.0499709499999881
72112	50	332	0	0	confetti	396	23	1	stimuli\confetti\confetti_11s.jpg	10	-1	1	0	confetti_11s.jpg	0	0	0	205.837061871309	205.887031358667	0.0499694873578846
72212	50	333	0	0	tiramisu	1663	24	1	stimuli\tiramisu\tiramisu_06s.jpg	5	-1	1	0	tiramisu_06s.jpg	0	0	0	205.937064724043	205.987033723388	0.0499689993448555
72312	50	334	0	0	golf_cart	689	25	1	stimuli\golf_cart\golf_cart_07s.jpg	6	-1	1	0	golf_cart_07s.jpg	0	0	0	206.037055873778	206.087039501872	0.0499836280941963
72412	50	335	0	0	cauliflower	288	26	1	stimuli\cauliflower\cauliflower_05s.jpg	4	-1	1	0	cauliflower_05s.jpg	0	0	0	206.137062870897	206.187040403951	0.0499775330536067
72512	50	336	0	0	jelly_bean	844	27	1	stimuli\jelly_bean\jelly_bean_08s.jpg	7	-1	1	0	jelly_bean_08s.jpg	0	0	0	206.237061822321	206.287041793577	0.0499799712561071
72612	50	337	0	0	camcorder	244	28	1	stimuli\camcorder\camcorder_03s.jpg	2	-1	1	0	camcorder_03s.jpg	0	0	0	206.337063455954	206.387044646312	0.0499811903573573
72712	50	338	0	0	odometer	1071	29	1	stimuli\odometer\odometer_12s.jpg	11	-1	1	0	odometer_12s.jpg	0	0	0	206.437067040242	206.487045791931	0.0499787516891956
72812	50	339	0	0	mitten	1008	30	1	stimuli\mitten\mitten_10s.jpg	9	-1	1	0	mitten_10s.jpg	0	0	0	206.53706867341	206.587050838862	0.0499821654520929
72912	50	340	0	0	red_carpet	1298	31	1	stimuli\red_carpet\red_carpet_09s.jpg	8	-1	1	0	red_carpet_09s.jpg	0	0	0	206.637069575489	206.6870514974	0.0499819219112396
73012	50	341	0	0	cheesecake	314	32	1	stimuli\cheesecake\cheesecake_11s.jpg	10	-1	1	0	cheesecake_11s.jpg	0	0	0	206.737074866425	206.787055812776	0.0499809463508427
73112	50	342	0	0	shirt	1422	33	1	stimuli\shirt\shirt_07s.jpg	6	-1	1	0	shirt_07s.jpg	0	0	0	206.837075524498	206.887060859241	0.0499853347428143
73212	50	343	0	0	tie	1658	34	1	stimuli\tie\tie_04s.jpg	3	-1	1	0	tie_04s.jpg	0	0	0	206.937097394373	206.987070782576	0.0499733882024884
73312	50	344	0	0	comb	389	35	1	stimuli\comb\comb_07s.jpg	6	-1	1	0	comb_07s.jpg	0	0	0	207.037081717514	207.087062419858	0.0499807023443282
73412	50	345	0	0	hourglass	807	36	1	stimuli\hourglass\hourglass_02s.jpg	1	-1	1	0	hourglass_02s.jpg	0	0	0	207.137096516788	207.187065516133	0.0499689993448555
73512	50	346	0	0	clothespin	363	37	1	stimuli\clothespin\clothespin_01b.jpg	0	-1	1	0	clothespin_01b.jpg	0	0	0	207.237098637968	207.287069831509	0.0499711935408413
73612	50	347	0	0	drumstick	523	38	1	stimuli\drumstick\drumstick_06s.jpg	5	-1	1	0	drumstick_06s.jpg	0	0	0	207.337091494352	207.387068051845	0.0499765574932098
73712	50	348	0	0	streetlight	1571	39	1	stimuli\streetlight\streetlight_03s.jpg	2	-1	1	0	streetlight_03s.jpg	0	0	0	207.437092396431	207.487075780518	0.0499833840876818
73812	50	349	0	0	roller	1324	40	1	stimuli\roller\roller_09s.jpg	8	-1	1	0	roller_09s.jpg	0	0	0	207.537098418456	207.587088629603	0.049990211147815
73912	50	350	0	0	trigger	1713	41	1	stimuli\trigger\trigger_03s.jpg	2	-1	1	0	trigger_03s.jpg	0	0	0	207.637112486176	207.687079778872	0.0499672926962376
74012	50	351	0	0	gumball	725	42	1	stimuli\gumball\gumball_01b.jpg	0	-1	1	0	gumball_01b.jpg	0	0	0	207.737100466155	207.787085069809	0.0499846036545932
74112	50	352	0	0	baseball	78	43	1	stimuli\baseball\baseball_09s.jpg	8	-1	1	0	baseball_09s.jpg	0	0	0	207.837113802787	207.887094992679	0.049981189891696
74212	50	353	0	0	bucket	209	44	1	stimuli\bucket\bucket_09n.jpg	8	-1	1	0	bucket_09n.jpg	0	0	0	207.937118605711	207.987087117974	0.049968512263149
74312	50	354	0	0	detonator	482	45	1	stimuli\detonator\detonator_09s.jpg	8	-1	1	0	detonator_09s.jpg	0	0	0	208.037125603296	208.087089482695	0.0499638793990016
74412	50	355	0	0	taxi	1630	46	1	stimuli\taxi\taxi_01s.jpg	0	-1	1	0	taxi_01s.jpg	0	0	0	208.13712455472	208.187103550415	0.0499789956957102
74512	50	356	0	0	rocking_horse	1322	47	1	stimuli\rocking_horse\rocking_horse_03s.jpg	2	-1	1	0	rocking_horse_03s.jpg	0	0	0	208.237114485353	208.287095431704	0.0499809463508427
74612	50	357	0	0	wagon	1772	48	1	stimuli\wagon\wagon_06s.jpg	5	-1	1	0	wagon_06s.jpg	0	0	0	208.337117825635	208.387098527979	0.0499807023443282
74712	50	358	0	0	oilcan	1073	49	1	stimuli\oilcan\oilcan_10s.jpg	9	-1	1	0	oilcan_10s.jpg	0	0	0	208.437119459268	208.487099674065	0.0499802147969604
74812	50	359	0	0	ski_pole	1455	50	1	stimuli\ski_pole\ski_pole_05s.jpg	4	-1	1	0	ski_pole_05s.jpg	0	0	0	208.537122799084	208.587112522684	0.0499897236004472
74912	50	360	0	0	lawnmower	905	51	1	stimuli\lawnmower\lawnmower_07s.jpg	6	-1	1	0	lawnmower_07s.jpg	0	0	0	208.637137598358	208.687119032256	0.0499814338982105
75012	50	361	0	0	gravestone	710	52	1	stimuli\gravestone\gravestone_03s.jpg	2	-1	1	0	gravestone_03s.jpg	0	0	0	208.73713898845	208.787107744254	0.0499687558040023
75112	50	362	0	0	cardinal	274	53	1	stimuli\cardinal\cardinal_01b.jpg	0	-1	1	0	cardinal_01b.jpg	0	0	0	208.837130625732	208.887110596523	0.0499799707904458
75212	50	363	0	0	handlebar	749	54	1	stimuli\handlebar\handlebar_04s.jpg	3	-1	1	0	handlebar_04s.jpg	0	0	0	208.937134697102	208.987112474162	0.0499777770601213
75312	50	364	0	0	tank1	1620	55	1	stimuli\tank1\tank1_02s.jpg	1	-1	1	0	tank1_02s.jpg	0	0	0	209.037146814633	209.087117520627	0.0499707059934735
75412	50	365	0	0	granite	700	56	1	stimuli\granite\granite_09s.jpg	8	-1	1	0	granite_09s.jpg	0	0	0	209.137150642462	209.187131588813	0.0499809463508427
75512	50	366	0	0	snorkel	1478	57	1	stimuli\snorkel\snorkel_07s.jpg	6	-1	1	0	snorkel_07s.jpg	0	0	0	209.237152763642	209.287122494541	0.0499697308987379
75612	50	367	0	0	vulture	1768	58	1	stimuli\vulture\vulture_06s.jpg	5	-1	1	0	vulture_06s.jpg	0	0	0	209.337144400924	209.387122177519	0.04997777659446
75712	50	368	0	0	pill	1174	59	1	stimuli\pill\pill_06s.jpg	5	-1	1	0	pill_06s.jpg	0	0	0	209.437144327443	209.487126736902	0.0499824094586074
75812	50	369	0	0	coin	385	60	1	stimuli\coin\coin_07s.jpg	6	-1	1	0	coin_07s.jpg	0	0	0	209.537148886826	209.587126175873	0.0499772890470922
75912	50	370	0	0	chicken_wire	324	61	1	stimuli\chicken_wire\chicken_wire_07s.jpg	6	-1	1	0	chicken_wire_07s.jpg	0	0	0	209.6371636861	209.687135611661	0.049971925560385
76012	50	371	0	0	paperclip	1116	62	1	stimuli\paperclip\paperclip_07s.jpg	6	-1	1	0	paperclip_07s.jpg	0	0	0	209.737154104281	209.787136025727	0.0499819214455783
76112	50	372	0	0	umbrella	1743	63	1	stimuli\umbrella\umbrella_04s.jpg	3	-1	1	0	umbrella_04s.jpg	0	0	0	209.837155737914	209.887137415819	0.0499816779047251
76212	50	373	0	0	bassoon	86	64	1	stimuli\bassoon\bassoon_12s.jpg	11	-1	1	0	bassoon_12s.jpg	0	0	0	209.937169562094	209.987140755635	0.0499711935408413
76312	50	374	0	0	file2	584	65	1	stimuli\file2\file2_06s.jpg	5	-1	1	0	file2_06s.jpg	0	0	0	210.037159492727	210.087140195072	0.0499807023443282
76412	50	375	0	0	margarita	973	66	1	stimuli\margarita\margarita_12s.jpg	11	-1	1	0	margarita_12s.jpg	0	0	0	210.137164783198	210.187154994346	0.049990211147815
76512	50	376	0	0	rhubarb	1307	67	1	stimuli\rhubarb\rhubarb_04s.jpg	3	-1	1	0	rhubarb_04s.jpg	0	0	0	210.23716812348	210.28715979727	0.0499916737899184
76612	50	377	0	0	nest	1056	68	1	stimuli\nest\nest_12s.jpg	11	-1	1	0	nest_12s.jpg	0	0	0	210.337181703653	210.387153872754	0.0499721691012383
76712	50	378	0	0	oven	1089	69	1	stimuli\oven\oven_07s.jpg	6	-1	1	0	oven_07s.jpg	0	0	0	210.437188944779	210.487151605543	0.0499626607634127
76812	50	379	0	0	propeller	1243	70	1	stimuli\propeller\propeller_02s.jpg	1	-1	1	0	propeller_02s.jpg	0	0	0	210.537187652662	210.58715714002	0.0499694873578846
76912	50	380	0	0	clipboard	355	71	1	stimuli\clipboard\clipboard_10s.jpg	9	-1	1	0	clipboard_10s.jpg	0	0	0	210.637181728147	210.687160479836	0.0499787516891956
77012	50	381	0	0	gondola	691	72	1	stimuli\gondola\gondola_07s.jpg	6	-1	1	0	gondola_07s.jpg	0	0	0	210.737180923577	210.78716040682	0.049979483243078
77112	50	382	0	0	sweater	1592	73	1	stimuli\sweater\sweater_01b.jpg	0	-1	1	0	sweater_01b.jpg	0	0	0	210.837183532305	210.887164234649	0.0499807023443282
77212	50	383	0	0	raft	1275	74	1	stimuli\raft\raft_04s.jpg	3	-1	1	0	raft_04s.jpg	0	0	0	210.937186384574	210.987165380735	0.0499789961613715
77312	50	384	0	0	fingerprint	589	75	1	stimuli\fingerprint\fingerprint_10s.jpg	9	-1	1	0	fingerprint_10s.jpg	0	0	0	211.037194844801	211.087169939652	0.0499750948511064
77412	50	385	0	0	kazoo	864	76	1	stimuli\kazoo\kazoo_01s.jpg	0	-1	1	0	kazoo_01s.jpg	0	0	0	211.137193552684	211.187170354184	0.0499768014997244
77512	50	386	0	0	briefcase	200	77	1	stimuli\briefcase\briefcase_03s.jpg	2	-1	1	0	briefcase_03s.jpg	0	0	0	211.237192992121	211.287179545965	0.0499865538440645
77612	50	387	0	0	clipper1	356	78	1	stimuli\clipper1\clipper1_01s.jpg	0	-1	1	0	clipper1_01s.jpg	0	0	0	211.337196088396	211.387177766301	0.0499816779047251
77712	50	388	0	0	chinaware	331	79	1	stimuli\chinaware\chinaware_07s.jpg	6	-1	1	0	chinaware_07s.jpg	0	0	0	211.43720186688	211.487179887481	0.0499780206009746
77812	50	389	0	0	bulletproof_vest	218	80	1	stimuli\bulletproof_vest\bulletproof_vest_01s.jpg	0	-1	1	0	bulletproof_vest_01s.jpg	0	0	0	211.537200818304	211.587183227297	0.0499824089929461
77912	50	390	0	0	seaweed	1400	81	1	stimuli\seaweed\seaweed_10s.jpg	9	-1	1	0	seaweed_10s.jpg	0	0	0	211.637203427032	211.687185348477	0.0499819214455783
78012	50	391	0	0	hotdog	805	82	1	stimuli\hotdog\hotdog_12s.jpg	11	-1	1	0	hotdog_12s.jpg	0	0	0	211.737205792218	211.787191858515	0.0499860662966967
78112	50	392	0	0	headscarf	768	83	1	stimuli\headscarf\headscarf_05s.jpg	4	-1	1	0	headscarf_05s.jpg	0	0	0	211.837221810129	211.887190322392	0.049968512263149
78212	50	393	0	0	tuning_fork	1728	84	1	stimuli\tuning_fork\tuning_fork_05s.jpg	4	-1	1	0	tuning_fork_05s.jpg	0	0	0	211.937214910518	211.987192931119	0.0499780206009746
78312	50	394	0	0	figurine	582	85	1	stimuli\figurine\figurine_11s.jpg	10	-1	1	0	figurine_11s.jpg	0	0	0	212.037226052489	212.08720699884	0.0499809463508427
78412	50	395	0	0	bubble_wrap	208	86	1	stimuli\bubble_wrap\bubble_wrap_02s.jpg	1	-1	1	0	bubble_wrap_02s.jpg	0	0	0	212.137227686122	212.187211070675	0.0499833845533431
78512	50	396	0	0	clove	365	87	1	stimuli\clove\clove_07s.jpg	6	-1	1	0	clove_07s.jpg	0	0	0	212.237232976593	212.287199538201	0.0499665616080165
78612	50	397	0	0	jug	853	88	1	stimuli\jug\jug_11s.jpg	10	-1	1	0	jug_11s.jpg	0	0	0	212.337222663686	212.387219701428	0.0499970377422869
78712	50	398	0	0	harp	755	89	1	stimuli\harp\harp_01b.jpg	0	-1	1	0	harp_01b.jpg	0	0	0	212.437225272413	212.487205731217	0.0499804588034749
78812	50	399	0	0	window	1818	90	1	stimuli\window\window_08s.jpg	7	-1	1	0	window_08s.jpg	0	0	0	212.537230319344	212.587210778147	0.0499804588034749
78912	50	400	0	0	turkey	1733	91	1	stimuli\turkey\turkey_03s.jpg	2	-1	1	0	turkey_03s.jpg	0	0	0	212.637245606165	212.687213386875	0.0499677807092667
79012	50	401	0	0	lemon	914	92	1	stimuli\lemon\lemon_04s.jpg	3	-1	1	0	lemon_04s.jpg	0	0	0	212.737249921542	212.787215751596	0.0499658300541341
79112	50	402	0	0	shopping_cart	1428	93	1	stimuli\shopping_cart\shopping_cart_03s.jpg	2	-1	1	0	shopping_cart_03s.jpg	0	0	0	212.83724765433	212.887217872776	0.0499702184461057
79212	50	403	0	0	leash	907	94	1	stimuli\leash\leash_07s.jpg	6	-1	1	0	leash_07s.jpg	0	0	0	212.937237340957	212.987221213058	0.0499838721007109
79312	50	404	0	0	tea	1631	95	1	stimuli\tea\tea_03s.jpg	2	-1	1	0	tea_03s.jpg	0	0	0	213.037240681238	213.087220408488	0.0499797272495925
79412	50	405	0	0	quilt	1264	96	1	stimuli\quilt\quilt_12s.jpg	11	-1	1	0	quilt_12s.jpg	0	0	0	213.137245728169	213.187237889506	0.0499921613372862
79512	50	406	0	0	nail_clippers	1047	97	1	stimuli\nail_clippers\nail_clippers_11s.jpg	10	-1	1	0	nail_clippers_11s.jpg	0	0	0	213.237246630248	213.287230014335	0.0499833840876818
79612	50	407	0	0	shutter	1440	98	1	stimuli\shutter\shutter_07s.jpg	6	-1	1	0	shutter_07s.jpg	0	0	0	213.337254114915	213.387230185326	0.0499760704115033
79712	50	408	0	0	stove2	1564	99	1	stimuli\stove2\stove2_09s.jpg	8	-1	1	0	stove2_09s.jpg	0	0	0	213.437251847703	213.487237669993	0.0499858222901821
79812	50	409	0	0	cement_mixer	294	100	1	stimuli\cement_mixer\cement_mixer_07s.jpg	6	-1	1	0	cement_mixer_07s.jpg	0	0	0	213.537257138174	213.587247593328	0.0499904551543295
79912	50	410	0	0	mold2	1013	101	1	stimuli\mold2\mold2_06s.jpg	5	-1	1	0	mold2_06s.jpg	0	0	0	213.637269743253	213.687238011509	0.0499682682566345
80012	50	411	0	0	tree_trunk	1709	102	1	stimuli\tree_trunk\tree_trunk_09s.jpg	8	-1	1	0	tree_trunk_09s.jpg	0	0	0	213.737261624541	213.787242814433	0.049981189891696
80112	50	412	0	0	fan	571	103	1	stimuli\fan\fan_05s.jpg	4	-1	1	0	fan_05s.jpg	0	0	0	213.837263745721	213.887243960518	0.0499802147969604
80212	50	413	0	0	camera1	246	104	1	stimuli\camera1\camera1_04s.jpg	3	-1	1	0	camera1_04s.jpg	0	0	0	213.937278544996	213.987247544341	0.0499689993448555
80312	50	414	0	0	egg_roll	547	105	1	stimuli\egg_roll\egg_roll_12n.jpg	11	-1	1	0	egg_roll_12n.jpg	0	0	0	214.03728042217	214.087247227319	0.0499668051488698
80412	50	415	0	0	bra	185	106	1	stimuli\bra\bra_07s.jpg	6	-1	1	0	bra_07s.jpg	0	0	0	214.137280836701	214.18726251414	0.0499816774390638
80512	50	416	0	0	flan	609	107	1	stimuli\flan\flan_02s.jpg	1	-1	1	0	flan_02s.jpg	0	0	0	214.237273449078	214.287257565185	0.0499841161072254
80612	50	417	0	0	telescope	1640	108	1	stimuli\telescope\telescope_05n.jpg	4	-1	1	0	telescope_05n.jpg	0	0	0	214.337275570258	214.387256516609	0.0499809463508427
80712	50	418	0	0	boa	150	109	1	stimuli\boa\boa_10s.jpg	9	-1	1	0	boa_10s.jpg	0	0	0	214.437280617189	214.48726180708	0.049981189891696
80812	50	419	0	0	charger	308	110	1	stimuli\charger\charger_01b.jpg	0	-1	1	0	charger_01b.jpg	0	0	0	214.53728298191	214.587272217963	0.0499892360530794
80912	50	420	0	0	axe	45	111	1	stimuli\axe\axe_06n.jpg	5	-1	1	0	axe_06n.jpg	0	0	0	214.63729388034	214.687308228575	0.0500143482349813
81012	50	421	0	0	overalls	1090	112	1	stimuli\overalls\overalls_02s.jpg	1	-1	1	0	overalls_02s.jpg	0	0	0	214.737298439723	214.78728182381	0.0499833840876818
81112	50	422	0	0	cockroach	373	113	1	stimuli\cockroach\cockroach_04n.jpg	3	-1	1	0	cockroach_04n.jpg	0	0	0	214.837301291991	214.887282725889	0.0499814338982105
81212	50	423	0	0	reindeer	1301	114	1	stimuli\reindeer\reindeer_02s.jpg	1	-1	1	0	reindeer_02s.jpg	0	0	0	214.937305851374	214.987283871975	0.0499780206009746
81312	50	424	0	0	wrench	1841	115	1	stimuli\wrench\wrench_09s.jpg	8	-1	1	0	wrench_09s.jpg	0	0	0	215.037306753453	215.087288674898	0.0499819214455783
81412	50	425	0	0	stopwatch	1562	116	1	stimuli\stopwatch\stopwatch_06s.jpg	5	-1	1	0	stopwatch_06s.jpg	0	0	0	215.137309362181	215.187291283626	0.0499819214455783
81512	50	426	0	0	space_shuttle	1501	117	1	stimuli\space_shuttle\space_shuttle_05s.jpg	4	-1	1	0	space_shuttle_05s.jpg	0	0	0	215.237315872218	215.287293892819	0.0499780206009746
81612	50	427	0	0	sundial	1583	118	1	stimuli\sundial\sundial_02s.jpg	1	-1	1	0	sundial_02s.jpg	0	0	0	215.337315555196	215.387296257541	0.0499807023443282
81712	50	428	0	0	shark	1409	119	1	stimuli\shark\shark_11s.jpg	10	-1	1	0	shark_11s.jpg	0	0	0	215.43733230466	215.48729715962	0.0499648549593985
81812	50	429	0	0	tile	1660	120	1	stimuli\tile\tile_06s.jpg	5	-1	1	0	tile_06s.jpg	0	0	0	215.537319309544	215.587299524806	0.0499802152626216
81912	50	430	0	0	lamb_chop	890	121	1	stimuli\lamb_chop\lamb_chop_07s.jpg	6	-1	1	0	lamb_chop_07s.jpg	0	0	0	215.637322649825	215.687300670426	0.0499780206009746
82012	50	431	0	0	dirt_bike	488	122	1	stimuli\dirt_bike\dirt_bike_02s.jpg	1	-1	1	0	dirt_bike_02s.jpg	0	0	0	215.737325990107	215.787305717357	0.0499797272495925
82112	50	432	0	0	leotard	918	123	1	stimuli\leotard\leotard_02s.jpg	1	-1	1	0	leotard_02s.jpg	0	0	0	215.837326404639	215.887308813632	0.0499824089929461
82212	50	433	0	0	pony	1220	124	1	stimuli\pony\pony_02s.jpg	1	-1	1	0	pony_02s.jpg	0	0	0	215.937330964021	215.987316054758	0.0499850907362998
82312	50	434	0	0	wheel	1806	125	1	stimuli\wheel\wheel_06s.jpg	5	-1	1	0	wheel_06s.jpg	0	0	0	216.037335035391	216.087302328553	0.0499672931618989
82412	50	435	0	0	coffin	383	126	1	stimuli\coffin\coffin_11s.jpg	10	-1	1	0	coffin_11s.jpg	0	0	0	216.137323746923	216.187307375483	0.0499836285598576
82512	50	436	0	0	mouse2	1027	127	1	stimuli\mouse2\mouse2_07s.jpg	6	-1	1	0	mouse2_07s.jpg	0	0	0	216.23732903786	216.287307058461	0.0499780206009746
82612	50	437	0	0	mousse	1030	128	1	stimuli\mousse\mousse_04s.jpg	3	-1	1	0	mousse_04s.jpg	0	0	0	216.33732823329	216.387311129831	0.049982896540314
82712	50	438	0	0	stiletto	1554	129	1	stimuli\stiletto\stiletto_08s.jpg	7	-1	1	0	stiletto_08s.jpg	0	0	0	216.437334255315	216.487323247362	0.0499889920465648
82812	50	439	0	0	submarine	1577	130	1	stimuli\submarine\submarine_07s.jpg	6	-1	1	0	submarine_07s.jpg	0	0	0	216.537345641293	216.587354869116	0.0500092278234661
82912	50	440	0	0	gyroscope	731	131	1	stimuli\gyroscope\gyroscope_01b.jpg	0	-1	1	0	gyroscope_01b.jpg	0	0	0	216.637339716777	216.687318956014	0.0499792392365634
83012	50	441	0	0	sifter	1443	132	1	stimuli\sifter\sifter_12s.jpg	11	-1	1	0	sifter_12s.jpg	0	0	0	216.737340618856	216.787321808748	0.049981189891696
83112	50	442	0	0	roadsweeper	1316	133	1	stimuli\roadsweeper\roadsweeper_12s.jpg	11	-1	1	0	roadsweeper_12s.jpg	0	0	0	216.837346640881	216.887323442381	0.0499768014997244
83212	50	443	0	0	scissors	1379	134	1	stimuli\scissors\scissors_06s.jpg	5	-1	1	0	scissors_06s.jpg	0	0	0	216.937347055413	216.987328732852	0.0499816774390638
83312	50	444	0	0	beetle	115	135	1	stimuli\beetle\beetle_08n.jpg	7	-1	1	0	beetle_08n.jpg	0	0	0	217.037348445039	217.087331098039	0.0499826529994607
83412	50	445	0	0	floss	617	136	1	stimuli\floss\floss_11s.jpg	10	-1	1	0	floss_11s.jpg	0	0	0	217.137350078672	217.187332243659	0.0499821649864316
83512	50	446	0	0	coil	384	137	1	stimuli\coil\coil_02s.jpg	1	-1	1	0	coil_02s.jpg	0	0	0	217.237352930941	217.287337047048	0.0499841161072254
83612	50	447	0	0	jump_rope	858	138	1	stimuli\jump_rope\jump_rope_10s.jpg	9	-1	1	0	jump_rope_10s.jpg	0	0	0	217.337355783675	217.387336242478	0.0499804588034749
83712	50	448	0	0	llama	938	139	1	stimuli\llama\llama_02s.jpg	1	-1	1	0	llama_02s.jpg	0	0	0	217.437359123956	217.487339826301	0.0499807023443282
83812	50	449	0	0	trombone	1716	140	1	stimuli\trombone\trombone_05s.jpg	4	-1	1	0	trombone_05s.jpg	0	0	0	217.537362220231	217.587341459934	0.0499792397022247
83912	50	450	0	0	oyster	1092	141	1	stimuli\oyster\oyster_01b.jpg	0	-1	1	0	oyster_01b.jpg	0	0	0	217.637364341412	217.687346994411	0.0499826529994607
84012	50	451	0	0	bush	227	142	1	stimuli\bush\bush_12s.jpg	11	-1	1	0	bush_12s.jpg	0	0	0	217.737364999484	217.78734984668	0.0499848471954465
84112	50	452	0	0	teepee	1637	143	1	stimuli\teepee\teepee_04s.jpg	3	-1	1	0	teepee_04s.jpg	0	0	0	217.837369558867	217.887348554563	0.0499789956957102
84212	50	453	0	0	poppy	1224	144	1	stimuli\poppy\poppy_07s.jpg	6	-1	1	0	poppy_07s.jpg	0	0	0	217.93737411825	217.987354333047	0.0499802147969604
84312	50	454	0	0	clam	349	145	1	stimuli\clam\clam_10s.jpg	9	-1	1	0	clam_10s.jpg	0	0	0	218.037377458066	218.087355478667	0.0499780206009746
84412	50	455	0	0	squid	1528	146	1	stimuli\squid\squid_02s.jpg	1	-1	1	0	squid_02s.jpg	0	0	0	218.137378116604	218.187357843854	0.0499797272495925
84512	50	456	0	0	straw1	1568	147	1	stimuli\straw1\straw1_04s.jpg	3	-1	1	0	straw1_04s.jpg	0	0	0	218.237384870183	218.287359477486	0.0499746073037386
84612	50	457	0	0	grinder	716	148	1	stimuli\grinder\grinder_10s.jpg	9	-1	1	0	grinder_10s.jpg	0	0	0	218.337382602505	218.387365255505	0.0499826529994607
84712	50	458	0	0	headrest	767	149	1	stimuli\headrest\headrest_05s.jpg	4	-1	1	0	headrest_05s.jpg	0	0	0	218.437383992597	218.487363475841	0.049979483243078
84812	50	459	0	0	contact_lens	397	150	1	stimuli\contact_lens\contact_lens_04s.jpg	3	-1	1	0	contact_lens_04s.jpg	0	0	0	218.537387820426	218.587368522771	0.0499807023443282
84912	50	460	0	0	granola	701	151	1	stimuli\granola\granola_12s.jpg	11	-1	1	0	granola_12s.jpg	0	0	0	218.637390429154	218.6873723506	0.0499819214455783
85012	50	461	0	0	hubcap	809	152	1	stimuli\hubcap\hubcap_12s.jpg	11	-1	1	0	hubcap_12s.jpg	0	0	0	218.73739376897	218.787375202868	0.0499814338982105
85112	50	462	0	0	wire	1828	153	1	stimuli\wire\wire_12s.jpg	11	-1	1	0	wire_12s.jpg	0	0	0	218.837395402603	218.88737854315	0.0499831405468285
85212	50	463	0	0	ferret	578	154	1	stimuli\ferret\ferret_05s.jpg	4	-1	1	0	ferret_05s.jpg	0	0	0	218.937398011331	218.987379932776	0.0499819214455783
85312	50	464	0	0	t-shirt	1606	155	1	stimuli\t-shirt\t-shirt_11s.jpg	10	-1	1	0	t-shirt_11s.jpg	0	0	0	219.037399644963	219.087381566409	0.0499819214455783
85412	50	465	0	0	cart	278	156	1	stimuli\cart\cart_09s.jpg	8	-1	1	0	cart_09s.jpg	0	0	0	219.137404447887	219.187386369333	0.0499819214455783
85512	50	466	0	0	seed	1401	157	1	stimuli\seed\seed_02s.jpg	1	-1	1	0	seed_02s.jpg	0	0	0	219.237408763263	219.287386296317	0.0499775330536067
85612	50	467	0	0	cantaloupe	263	158	1	stimuli\cantaloupe\cantaloupe_04s.jpg	3	-1	1	0	cantaloupe_04s.jpg	0	0	0	219.337406252045	219.387387198396	0.0499809463508427
85712	50	468	0	0	air_conditioner	4	159	1	stimuli\air_conditioner\air_conditioner_03s.jpg	2	-1	1	0	air_conditioner_03s.jpg	0	0	0	219.437412762083	219.487391757779	0.0499789956957102
85812	50	469	0	0	cat	284	160	1	stimuli\cat\cat_07s.jpg	6	-1	1	0	cat_07s.jpg	0	0	0	219.53741439525	219.58739704825	0.0499826529994607
85912	50	470	0	0	leggings	912	161	1	stimuli\leggings\leggings_04s.jpg	3	-1	1	0	leggings_04s.jpg	0	0	0	219.637418710627	219.687397706788	0.0499789961613715
86012	50	471	0	0	electric_chair	553	162	1	stimuli\electric_chair\electric_chair_03s.jpg	2	-1	1	0	electric_chair_03s.jpg	0	0	0	219.73741839407	219.787400315516	0.0499819214455783
86112	50	472	0	0	mannequin	968	163	1	stimuli\mannequin\mannequin_05s.jpg	4	-1	1	0	mannequin_05s.jpg	0	0	0	219.83742246544	219.887402436696	0.0499799712561071
86212	50	473	0	0	school_bus	1378	164	1	stimuli\school_bus\school_bus_03s.jpg	2	-1	1	0	school_bus_03s.jpg	0	0	0	219.937427268364	219.987409921363	0.0499826529994607
86312	50	474	0	0	palette	1100	165	1	stimuli\palette\palette_01b.jpg	0	-1	1	0	palette_01b.jpg	0	0	0	220.03742963355	220.087410823442	0.049981189891696
86412	50	475	0	0	windshield	1820	166	1	stimuli\windshield\windshield_09s.jpg	8	-1	1	0	windshield_09s.jpg	0	0	0	220.137428584974	220.187413188629	0.0499846036545932
86512	50	476	0	0	guinea_pig	722	167	1	stimuli\guinea_pig\guinea_pig_06s.jpg	5	-1	1	0	guinea_pig_06s.jpg	0	0	0	220.237435338553	220.287414578255	0.0499792397022247
86612	50	477	0	0	exerciser	561	168	1	stimuli\exerciser\exerciser_08s.jpg	7	-1	1	0	exerciser_08s.jpg	0	0	0	220.337434533983	220.387416211888	0.0499816779047251
86712	50	478	0	0	slide	1464	169	1	stimuli\slide\slide_08s.jpg	7	-1	1	0	slide_08s.jpg	0	0	0	220.437438605819	220.487421258818	0.0499826529994607
86812	50	479	0	0	bow2	175	170	1	stimuli\bow2\bow2_11s.jpg	10	-1	1	0	bow2_11s.jpg	0	0	0	220.537441214547	220.587419235148	0.0499780206009746
86912	50	480	0	0	pencil_sharpener	1143	171	1	stimuli\pencil_sharpener\pencil_sharpener_06s.jpg	5	-1	1	0	pencil_sharpener_06s.jpg	0	0	0	220.637445773929	220.687425257172	0.049979483243078
87012	50	481	0	0	toaster	1666	172	1	stimuli\toaster\toaster_11s.jpg	10	-1	1	0	toaster_11s.jpg	0	0	0	220.737445944455	220.787426403258	0.0499804588034749
87112	50	482	0	0	headband	762	173	1	stimuli\headband\headband_10s.jpg	9	-1	1	0	headband_10s.jpg	0	0	0	220.837449528277	220.887429255527	0.0499797272495925
87212	50	483	0	0	goalpost	683	174	1	stimuli\goalpost\goalpost_02s.jpg	1	-1	1	0	goalpost_02s.jpg	0	0	0	220.937451893464	220.987430889159	0.0499789956957102
87312	50	484	0	0	rubber_band	1337	175	1	stimuli\rubber_band\rubber_band_03s.jpg	2	-1	1	0	rubber_band_03s.jpg	0	0	0	221.037455477286	221.087437398732	0.0499819214455783
87412	50	485	0	0	leopard	917	176	1	stimuli\leopard\leopard_10s.jpg	9	-1	1	0	leopard_10s.jpg	0	0	0	221.137458573561	221.187437569723	0.0499789961613715
87512	50	486	0	0	duckling	526	177	1	stimuli\duckling\duckling_12s.jpg	11	-1	1	0	duckling_12s.jpg	0	0	0	221.237459963653	221.287442372646	0.0499824089929461
87612	50	487	0	0	dessert	481	178	1	stimuli\dessert\dessert_01b.jpg	0	-1	1	0	dessert_01b.jpg	0	0	0	221.337463303469	221.387444006279	0.0499807028099895
87712	50	488	0	0	trampoline	1701	179	1	stimuli\trampoline\trampoline_10s.jpg	9	-1	1	0	trampoline_10s.jpg	0	0	0	221.437466887757	221.487445883453	0.0499789956957102
87812	50	489	0	0	knob	882	180	1	stimuli\knob\knob_01b.jpg	0	-1	1	0	knob_01b.jpg	0	0	0	221.537466570735	221.587447517086	0.0499809463508427
87912	50	490	0	0	peppermint	1152	181	1	stimuli\peppermint\peppermint_07s.jpg	6	-1	1	0	peppermint_07s.jpg	0	0	0	221.637470398564	221.687449881807	0.049979483243078
88012	50	491	0	0	cummerbund	459	182	1	stimuli\cummerbund\cummerbund_04s.jpg	3	-1	1	0	cummerbund_04s.jpg	0	0	0	221.737473007292	221.787453466095	0.0499804588034749
88112	50	492	0	0	phone_booth	1162	183	1	stimuli\phone_booth\phone_booth_06s.jpg	5	-1	1	1	phone_booth_06s.jpg	0	0	0	221.837479029316	221.887454611715	0.0499755823984742
88212	50	493	0	0	kneepad	878	184	1	stimuli\kneepad\kneepad_08s.jpg	7	-1	1	0	kneepad_08s.jpg	0	0	0	221.937476518098	221.98745770799	0.049981189891696
88312	50	494	0	0	nacho	1045	185	1	stimuli\nacho\nacho_08s.jpg	7	-1	1	0	nacho_08s.jpg	0	0	0	222.037479614373	222.087464705575	0.049985091201961
88412	50	495	0	0	computer	394	186	1	stimuli\computer\computer_04s.jpg	3	-1	1	0	computer_04s.jpg	1	0.34191063279286	1	222.137483686209	222.1874648761	0.049981189891696
88512	50	496	0	0	cape	266	187	1	stimuli\cape\cape_05s.jpg	4	-1	1	0	cape_05s.jpg	0	0	0	222.23748702649	222.287469435483	0.0499824089929461
88612	50	497	0	0	fox	638	188	1	stimuli\fox\fox_12s.jpg	11	-1	1	0	fox_12s.jpg	0	0	0	222.337488659658	222.387469362468	0.0499807028099895
88712	50	498	0	0	whistle	1812	189	1	stimuli\whistle\whistle_11s.jpg	10	-1	1	0	whistle_11s.jpg	0	0	0	222.437490780838	222.487470995635	0.0499802147969604
88812	50	499	0	0	shredder	1437	190	1	stimuli\shredder\shredder_03s.jpg	2	-1	1	0	shredder_03s.jpg	0	0	0	222.537497046869	222.587473604362	0.0499765574932098
88912	50	500	0	0	harmonica	753	191	1	stimuli\harmonica\harmonica_05s.jpg	4	-1	1	0	harmonica_05s.jpg	0	0	0	222.637498436496	222.68747913884	0.0499807023443282
89012	50	501	0	0	alpaca	15	192	1	stimuli\alpaca\alpaca_03s.jpg	2	-1	1	0	alpaca_03s.jpg	0	0	0	222.73750128923	222.787479553372	0.0499782641418278
89112	50	502	0	0	moose	1018	193	1	stimuli\moose\moose_09s.jpg	8	-1	1	0	moose_09s.jpg	0	0	0	222.83750341041	222.887481431011	0.0499780206009746
89212	50	503	0	0	snail	1476	194	1	stimuli\snail\snail_12s.jpg	11	-1	1	0	snail_12s.jpg	0	0	0	222.937504068483	222.987484770827	0.0499807023443282
89312	50	504	0	0	arm	36	195	1	stimuli\arm\arm_07s.jpg	6	-1	1	0	arm_07s.jpg	0	0	0	223.037507896312	223.08748738002	0.0499794837087393
89412	50	505	0	0	cleat	353	196	1	stimuli\cleat\cleat_09s.jpg	8	-1	1	0	cleat_09s.jpg	0	0	0	223.137510505039	223.187491695397	0.0499811903573573
89512	50	506	0	0	maggot	955	197	1	stimuli\maggot\maggot_05s.jpg	4	-1	1	0	maggot_05s.jpg	0	0	0	223.23751262622	223.287493328564	0.0499807023443282
89612	50	507	0	0	mouth	1031	198	1	stimuli\mouth\mouth_10s.jpg	9	-1	1	0	mouth_10s.jpg	0	0	0	223.337515478954	223.387495449744	0.0499799707904458
89712	50	508	0	0	balance_beam	58	199	1	stimuli\balance_beam\balance_beam_05s.jpg	4	-1	1	0	balance_beam_05s.jpg	0	0	0	223.437516624574	223.48749952158	0.0499828970059752
89812	50	509	0	0	gramophone	699	200	1	stimuli\gramophone\gramophone_01b.jpg	0	-1	1	0	gramophone_01b.jpg	0	0	0	223.537520208862	223.587500423659	0.0499802147969604
89912	50	510	0	0	corset	418	201	1	stimuli\corset\corset_06s.jpg	5	-1	1	0	corset_06s.jpg	0	0	0	223.637524767779	223.687505226582	0.0499804588034749
90012	50	511	0	0	graffiti	697	202	1	stimuli\graffiti\graffiti_03s.jpg	2	-1	1	0	graffiti_03s.jpg	0	0	0	223.73752786452	223.787509785965	0.0499819214455783
90112	50	512	0	0	nail	1046	203	1	stimuli\nail\nail_01b.jpg	0	-1	1	0	nail_01b.jpg	0	0	0	223.837526328396	223.887508981396	0.0499826529994607
90212	50	513	0	0	duster	534	204	1	stimuli\duster\duster_06s.jpg	5	-1	1	0	duster_06s.jpg	0	0	0	223.937529668678	223.987511833664	0.0499821649864316
90312	50	514	0	0	wheat	1805	205	1	stimuli\wheat\wheat_11s.jpg	10	-1	1	0	wheat_11s.jpg	0	0	0	224.037533740047	224.087511517107	0.0499777770601213
90412	50	515	0	0	curry	464	206	1	stimuli\curry\curry_03s.jpg	2	-1	1	0	curry_03s.jpg	0	0	0	224.13753829943	224.187517782673	0.049979483243078
90512	50	516	0	0	metronome	997	207	1	stimuli\metronome\metronome_04s.jpg	3	-1	1	0	metronome_04s.jpg	0	0	0	224.237538713962	224.287519660313	0.0499809463508427
90612	50	517	0	0	cream	436	208	1	stimuli\cream\cream_01b.jpg	0	-1	1	0	cream_01b.jpg	0	0	0	224.337542541791	224.387523731682	0.049981189891696
90712	50	518	0	0	pesto	1156	209	1	stimuli\pesto\pesto_01b.jpg	0	-1	1	0	pesto_01b.jpg	0	0	0	224.43754929537	224.487523902673	0.0499746073037386
90812	50	519	0	0	lizard	937	210	1	stimuli\lizard\lizard_01b.jpg	0	-1	1	0	lizard_01b.jpg	0	0	0	224.53754751524	224.587526754942	0.0499792397022247
90912	50	520	0	0	ruby	1338	211	1	stimuli\ruby\ruby_03s.jpg	2	-1	1	0	ruby_03s.jpg	0	0	0	224.637547198683	224.687529120129	0.0499819214455783
91012	50	521	0	0	flypaper	622	212	1	stimuli\flypaper\flypaper_09s.jpg	8	-1	1	0	flypaper_09s.jpg	0	0	0	224.737554195803	224.787535385694	0.049981189891696
91112	50	522	0	0	panda	1105	213	1	stimuli\panda\panda_01b.jpg	0	-1	1	0	panda_01b.jpg	0	0	0	224.837553391233	224.887536775786	0.0499833845533431
91212	50	523	0	0	smoke_alarm	1473	214	1	stimuli\smoke_alarm\smoke_alarm_02s.jpg	1	-1	1	0	smoke_alarm_02s.jpg	0	0	0	224.937555999961	224.987537433859	0.0499814338982105
91312	50	524	0	0	cuckoo_clock	456	215	1	stimuli\cuckoo_clock\cuckoo_clock_10s.jpg	9	-1	1	0	cuckoo_clock_10s.jpg	0	0	0	225.037570311688	225.087542968336	0.0499726566486061
91412	50	525	0	0	pita	1189	216	1	stimuli\pita\pita_02s.jpg	1	-1	1	0	pita_02s.jpg	0	0	0	225.137568775564	225.187545089517	0.0499763139523566
91512	50	526	0	0	chili	327	217	1	stimuli\chili\chili_11s.jpg	10	-1	1	0	chili_11s.jpg	0	0	0	225.237565776799	225.287547454238	0.0499816774390638
91612	50	527	0	0	pickax	1166	218	1	stimuli\pickax\pickax_11s.jpg	10	-1	1	0	pickax_11s.jpg	0	0	0	225.337571554817	225.387551526073	0.0499799712561071
91712	50	528	0	0	chocolate	338	219	1	stimuli\chocolate\chocolate_06s.jpg	5	-1	1	0	chocolate_06s.jpg	0	0	0	225.43757318845	225.487552672159	0.0499794837087393
91812	50	529	0	0	moss	1022	220	1	stimuli\moss\moss_09s.jpg	8	-1	1	0	moss_09s.jpg	0	0	0	225.537574578077	225.587557475083	0.0499828970059752
91912	50	530	0	0	refrigerator	1300	221	1	stimuli\refrigerator\refrigerator_08s.jpg	7	-1	1	0	refrigerator_08s.jpg	0	0	0	225.637577430811	225.687556670513	0.0499792397022247
92012	50	531	0	0	cashew	281	222	1	stimuli\cashew\cashew_03s.jpg	2	-1	1	0	cashew_03s.jpg	0	0	0	225.737581990194	225.787560741883	0.0499787516891956
92112	50	532	0	0	dandelion	472	223	1	stimuli\dandelion\dandelion_03s.jpg	2	-1	1	0	dandelion_03s.jpg	0	0	0	225.837583135813	225.887562619522	0.0499794837087393
92212	50	533	0	0	film	586	224	1	stimuli\film\film_09s.jpg	8	-1	1	0	film_09s.jpg	0	0	0	225.937585988548	225.987564253155	0.0499782646074891
92312	50	534	0	0	puddle	1247	225	1	stimuli\puddle\puddle_11s.jpg	10	-1	1	0	puddle_11s.jpg	0	0	0	226.037587622181	226.087566617876	0.0499789956957102
92412	50	535	0	0	soap	1487	226	1	stimuli\soap\soap_01b.jpg	0	-1	1	0	soap_01b.jpg	0	0	0	226.137587792706	226.187568739057	0.0499809463508427
92512	50	536	0	0	yacht	1844	227	1	stimuli\yacht\yacht_01b.jpg	0	-1	1	0	yacht_01b.jpg	0	0	0	226.237596252933	226.287572810426	0.0499765574932098
92612	50	537	0	0	lightbulb	927	228	1	stimuli\lightbulb\lightbulb_09s.jpg	8	-1	1	0	lightbulb_09s.jpg	0	0	0	226.337599105667	226.387581027113	0.0499819214455783
92712	50	538	0	0	tape	1622	229	1	stimuli\tape\tape_10s.jpg	9	-1	1	0	tape_10s.jpg	0	0	0	226.43759683799	226.487579490989	0.0499826529994607
92812	50	539	0	0	rope	1332	230	1	stimuli\rope\rope_06s.jpg	5	-1	1	0	rope_06s.jpg	0	0	0	226.537599446718	226.587579417974	0.0499799712561071
92912	50	540	0	0	shelf	1416	231	1	stimuli\shelf\shelf_09s.jpg	8	-1	1	0	shelf_09s.jpg	0	0	0	226.63761863485	226.68758373335	0.0499650985002518
93012	50	541	0	0	pheasant	1160	232	1	stimuli\pheasant\pheasant_06s.jpg	5	-1	1	0	pheasant_06s.jpg	0	0	0	226.737605883274	226.78758780472	0.0499819214455783
93112	50	542	0	0	jet	847	233	1	stimuli\jet\jet_11s.jpg	10	-1	1	0	jet_11s.jpg	0	0	0	226.837614343502	226.88759090146	0.0499765579588711
93212	50	543	0	0	lab_coat	885	234	1	stimuli\lab_coat\lab_coat_11s.jpg	10	-1	1	0	lab_coat_11s.jpg	0	0	0	226.937609882094	226.987593266182	0.0499833840876818
93312	50	544	0	0	dalmatian	471	235	1	stimuli\dalmatian\dalmatian_07s.jpg	6	-1	1	0	dalmatian_07s.jpg	0	0	0	227.037612246815	227.087594655808	0.0499824089929461
93412	50	545	0	0	skateboard	1449	236	1	stimuli\skateboard\skateboard_11s.jpg	10	-1	1	0	skateboard_11s.jpg	0	0	0	227.137623145245	227.18759799609	0.0499748508445919
93512	50	546	0	0	dynamite	536	237	1	stimuli\dynamite\dynamite_12s.jpg	11	-1	1	0	dynamite_12s.jpg	0	0	0	227.237625753973	227.287598654628	0.0499729006551206
93612	50	547	0	0	aircraft_carrier	9	238	1	stimuli\aircraft_carrier\aircraft_carrier_02s.jpg	1	-1	1	0	aircraft_carrier_02s.jpg	0	0	0	227.337622511201	227.3876051642	0.0499826529994607
93712	50	548	0	0	leek	910	239	1	stimuli\leek\leek_12s.jpg	11	-1	1	0	leek_12s.jpg	0	0	0	227.437625851482	227.487604847178	0.0499789956957102
93812	50	549	0	0	paper_plate	1114	240	1	stimuli\paper_plate\paper_plate_01b.jpg	0	-1	1	0	paper_plate_01b.jpg	0	0	0	227.537626509555	227.587607212365	0.0499807028099895
93912	50	550	0	0	snack	1475	241	1	stimuli\snack\snack_06s.jpg	5	-1	1	1	snack_06s.jpg	0	0	0	227.637628630735	227.687613965478	0.0499853347428143
94012	50	551	0	0	marker	975	242	1	stimuli\marker\marker_09s.jpg	8	-1	1	0	marker_09s.jpg	0	0	0	227.737633921672	227.787613892462	0.0499799707904458
94112	50	552	0	0	beer	113	243	1	stimuli\beer\beer_01s.jpg	0	-1	1	0	beer_01s.jpg	0	0	0	227.83763677394	227.887618451845	0.0499816779047251
94212	50	553	0	0	minivan	1003	244	1	stimuli\minivan\minivan_01b.jpg	0	-1	1	0	minivan_01b.jpg	0	0	0	227.937639139127	227.987617647275	0.0499785081483424
94312	50	554	0	0	sunflower	1584	245	1	stimuli\sunflower\sunflower_02s.jpg	1	-1	1	0	sunflower_02s.jpg	1	0.450171312782913	1	228.037639309652	228.087623913307	0.0499846036545932
94412	50	555	0	0	fur_coat	650	246	1	stimuli\fur_coat\fur_coat_02s.jpg	1	-1	1	0	fur_coat_02s.jpg	0	0	0	228.137657522224	228.187627009582	0.0499694873578846
94512	50	556	0	0	record_player	1296	247	1	stimuli\record_player\record_player_09s.jpg	8	-1	1	0	record_player_09s.jpg	0	0	0	228.237643308006	228.287627180107	0.0499838721007109
94612	50	557	0	0	oil	1072	248	1	stimuli\oil\oil_10s.jpg	9	-1	1	0	oil_10s.jpg	0	0	0	228.337647379842	228.387631007936	0.0499836280941963
94712	50	558	0	0	okra	1074	249	1	stimuli\okra\okra_08s.jpg	7	-1	1	0	okra_08s.jpg	0	0	0	228.43765315786	228.48763581086	0.0499826529994607
94812	50	559	0	0	warthog	1781	250	1	stimuli\warthog\warthog_02s.jpg	1	-1	1	0	warthog_02s.jpg	0	0	0	228.537654547952	228.587637444492	0.049982896540314
94912	50	560	0	0	jumpsuit	859	251	1	stimuli\jumpsuit\jumpsuit_02s.jpg	1	-1	1	0	jumpsuit_02s.jpg	0	0	0	228.637658131775	228.687633714173	0.0499755823984742
95012	50	561	0	0	typewriter	1741	252	1	stimuli\typewriter\typewriter_12s.jpg	11	-1	1	0	typewriter_12s.jpg	0	0	0	228.737657083198	228.787639492657	0.0499824094586074
95112	50	562	0	0	grasshopper	706	253	1	stimuli\grasshopper\grasshopper_05s.jpg	4	-1	1	0	grasshopper_05s.jpg	0	0	0	228.837664812338	228.887642344926	0.0499775325879455
95212	50	563	0	0	knot	883	254	1	stimuli\knot\knot_11s.jpg	10	-1	1	0	knot_11s.jpg	0	0	0	228.937664007768	228.987647148315	0.0499831405468285
95312	50	564	0	0	golf_club	690	255	1	stimuli\golf_club\golf_club_09s.jpg	8	-1	1	0	golf_club_09s.jpg	0	0	0	229.037667104043	229.087646587286	0.049979483243078
95412	50	565	0	0	rice	1309	256	1	stimuli\rice\rice_01b.jpg	0	-1	1	0	rice_01b.jpg	0	0	0	229.137677026913	229.187651634216	0.0499746073037386
95512	50	566	0	0	banana	63	257	1	stimuli\banana\banana_05s.jpg	4	-1	1	0	banana_05s.jpg	0	0	0	229.237673296593	229.287664726842	0.0499914302490652
95612	50	567	0	0	joystick	852	258	1	stimuli\joystick\joystick_04s.jpg	3	-1	1	0	joystick_04s.jpg	0	0	0	229.337676149327	229.387655876577	0.0499797272495925
95712	50	568	0	0	screen2	1389	259	1	stimuli\screen2\screen2_11s.jpg	10	-1	1	0	screen2_11s.jpg	0	0	0	229.43767778296	229.487659460399	0.0499816774390638
95812	50	569	0	0	torch	1683	260	1	stimuli\torch\torch_11s.jpg	10	-1	1	0	torch_11s.jpg	0	0	0	229.537679416128	229.587659874931	0.0499804588034749
95912	50	570	0	0	turntable	1735	261	1	stimuli\turntable\turntable_12s.jpg	11	-1	1	0	turntable_12s.jpg	0	0	0	229.637687876355	229.687667116057	0.0499792397022247
96012	50	571	0	0	nutcracker	1067	262	1	stimuli\nutcracker\nutcracker_05s.jpg	4	-1	1	0	nutcracker_05s.jpg	0	0	0	229.737688534893	229.787670456339	0.0499819214455783
96112	50	572	0	0	baklava	57	263	1	stimuli\baklava\baklava_03s.jpg	2	-1	1	0	baklava_03s.jpg	0	0	0	229.837690899614	229.887675503269	0.0499846036545932
96212	50	573	0	0	pump	1252	264	1	stimuli\pump\pump_07s.jpg	6	-1	1	0	pump_07s.jpg	0	0	0	229.937691558152	229.987675186247	0.0499836280941963
96312	50	574	0	0	column	388	265	1	stimuli\column\column_03s.jpg	2	-1	1	0	column_03s.jpg	0	0	0	230.03769611707	230.087682427373	0.0499863103032112
96412	50	575	0	0	dough	513	266	1	stimuli\dough\dough_04s.jpg	3	-1	1	0	dough_04s.jpg	0	0	0	230.137711891904	230.18768186681	0.0499699749052525
96512	50	576	0	0	sheet	1415	267	1	stimuli\sheet\sheet_11s.jpg	10	-1	1	0	sheet_11s.jpg	0	0	0	230.237702310085	230.287684231531	0.0499819214455783
96612	50	577	0	0	viewfinder	1763	268	1	stimuli\viewfinder\viewfinder_02s.jpg	1	-1	1	0	viewfinder_02s.jpg	0	0	0	230.337705893908	230.387686108705	0.0499802147969604
96712	50	578	0	0	guillotine	721	269	1	stimuli\guillotine\guillotine_05s.jpg	4	-1	1	0	guillotine_05s.jpg	0	0	0	230.437706552446	230.487688717898	0.0499821654520929
96812	50	579	0	0	solar_panel	1493	270	1	stimuli\solar_panel\solar_panel_04s.jpg	3	-1	1	0	solar_panel_04s.jpg	0	0	0	230.537707210518	230.587692057714	0.0499848471954465
96912	50	580	0	0	dashboard	475	271	1	stimuli\dashboard\dashboard_03s.jpg	2	-1	1	0	dashboard_03s.jpg	0	0	0	230.637712257449	230.687698323745	0.0499860662966967
97012	50	581	0	0	shortbread	1429	272	1	stimuli\shortbread\shortbread_04s.jpg	3	-1	1	0	shortbread_04s.jpg	0	0	0	230.737726812717	230.787696300074	0.0499694873578846
97112	50	582	0	0	pedometer	1137	273	1	stimuli\pedometer\pedometer_11s.jpg	10	-1	1	0	pedometer_11s.jpg	0	0	0	230.837720400654	230.887700615451	0.0499802147969604
97212	50	583	0	0	motherboard	1024	274	1	stimuli\motherboard\motherboard_04s.jpg	3	-1	1	0	motherboard_04s.jpg	0	0	0	230.937719840091	230.987713220529	0.0499933804385364
97312	50	584	0	0	makeup	961	275	1	stimuli\makeup\makeup_07s.jpg	6	-1	1	0	makeup_07s.jpg	0	0	0	231.037723423913	231.087703151163	0.0499797272495925
97412	50	585	0	0	eye	564	276	1	stimuli\eye\eye_06s.jpg	5	-1	1	0	eye_06s.jpg	0	0	0	231.137727983296	231.187707710546	0.0499797272495925
97512	50	586	0	0	credit_card	438	277	1	stimuli\credit_card\credit_card_08s.jpg	7	-1	1	0	credit_card_08s.jpg	0	0	0	231.237728641368	231.287710075267	0.0499814338982105
97612	50	587	0	0	torpedo	1684	278	1	stimuli\torpedo\torpedo_04s.jpg	3	-1	1	0	torpedo_04s.jpg	0	0	0	231.337732469197	231.387713415548	0.0499809463508427
97712	50	588	0	0	grille	715	279	1	stimuli\grille\grille_05s.jpg	4	-1	1	0	grille_05s.jpg	0	0	0	231.43773410283	231.487712854985	0.0499787521548569
97812	50	589	0	0	sauce	1362	280	1	stimuli\sauce\sauce_10s.jpg	9	-1	1	0	sauce_10s.jpg	0	0	0	231.537737930659	231.587715463713	0.0499775330536067
97912	50	590	0	0	cake_mix	238	281	1	stimuli\cake_mix\cake_mix_09s.jpg	8	-1	1	0	cake_mix_09s.jpg	0	0	0	231.63774029538	231.687719291542	0.0499789961613715
98012	50	591	0	0	sawhorse	1367	282	1	stimuli\sawhorse\sawhorse_06s.jpg	5	-1	1	0	sawhorse_06s.jpg	0	0	0	231.737743635662	231.787721412722	0.0499777770601213
98112	50	592	0	0	undershirt	1744	283	1	stimuli\undershirt\undershirt_07s.jpg	6	-1	1	0	undershirt_07s.jpg	0	0	0	231.837745269295	231.887725728098	0.0499804588034749
98212	50	593	0	0	gauze	664	284	1	stimuli\gauze\gauze_02s.jpg	1	-1	1	0	gauze_02s.jpg	0	0	0	231.937748122029	231.987728336826	0.0499802147969604
98312	50	594	0	0	badger	53	285	1	stimuli\badger\badger_02s.jpg	1	-1	1	0	badger_02s.jpg	0	0	0	232.037750974298	232.087732408196	0.0499814338982105
98412	50	595	0	0	panties	1107	286	1	stimuli\panties\panties_05s.jpg	4	-1	1	0	panties_05s.jpg	0	0	0	232.13775260793	232.187734285835	0.0499816779047251
98512	50	596	0	0	car	267	287	1	stimuli\car\car_03s.jpg	2	-1	1	0	car_03s.jpg	0	0	0	232.237755460665	232.28773738211	0.0499819214455783
98612	50	597	0	0	log	943	288	1	stimuli\log\log_05s.jpg	4	-1	1	0	log_05s.jpg	0	0	0	232.337758069392	232.387738284189	0.0499802147969604
98712	50	598	0	0	file1	583	289	1	stimuli\file1\file1_03s.jpg	2	-1	1	0	file1_03s.jpg	0	0	0	232.437761409674	232.48774040537	0.0499789956957102
98812	50	599	0	0	canister	259	290	1	stimuli\canister\canister_11s.jpg	10	-1	1	0	canister_11s.jpg	0	0	0	232.537763042841	232.587743257638	0.0499802147969604
98912	50	600	0	0	cake	237	291	1	stimuli\cake\cake_01b.jpg	0	-1	1	0	cake_01b.jpg	0	0	0	232.637771747075	232.68774659792	0.0499748508445919
99012	50	601	0	0	pole	1213	292	1	stimuli\pole\pole_07s.jpg	6	-1	1	0	pole_07s.jpg	0	0	0	232.737771186046	232.78774969466	0.0499785086140037
99112	50	602	0	0	sewage	1405	293	1	stimuli\sewage\sewage_01b.jpg	0	-1	1	0	sewage_01b.jpg	0	0	0	232.837773063686	232.887751327828	0.0499782641418278
99212	50	603	0	0	roll	1323	294	1	stimuli\roll\roll_04s.jpg	3	-1	1	0	roll_04s.jpg	0	0	0	232.937773478217	232.98775588721	0.0499824089929461
99312	50	604	0	0	brownie	204	295	1	stimuli\brownie\brownie_02s.jpg	1	-1	1	0	brownie_02s.jpg	0	0	0	233.037778281141	233.087757033296	0.0499787521548569
99412	50	605	0	0	eggplant	550	296	1	stimuli\eggplant\eggplant_07s.jpg	6	-1	1	0	eggplant_07s.jpg	0	0	0	233.137783084065	233.187760861125	0.0499777770601213
99512	50	606	0	0	papaya	1111	297	1	stimuli\papaya\papaya_08s.jpg	7	-1	1	0	papaya_08s.jpg	0	0	0	233.2377813044	233.287761763204	0.0499804588034749
99612	50	607	0	0	thread	1651	298	1	stimuli\thread\thread_03s.jpg	2	-1	1	0	thread_03s.jpg	0	0	0	233.337783425581	233.387764127925	0.0499807023443282
99712	50	608	0	0	diskette	493	299	1	stimuli\diskette\diskette_10s.jpg	9	-1	1	0	diskette_10s.jpg	0	0	0	233.437793592457	233.487767468207	0.0499738757498562
99812	50	609	0	0	airboat	8	300	1	stimuli\airboat\airboat_01s.jpg	0	-1	1	0	airboat_01s.jpg	0	0	0	233.537788155489	233.587770076934	0.0499819214455783
99912	50	610	0	0	spoon	1519	301	1	stimuli\spoon\spoon_09s.jpg	8	-1	1	0	spoon_09s.jpg	0	0	0	233.637791739311	233.687775123864	0.0499833845533431
100012	50	611	0	0	speedboat	1511	302	1	stimuli\speedboat\speedboat_01s.jpg	0	-1	1	0	speedboat_01s.jpg	0	0	0	233.737795323599	233.787774319295	0.0499789956957102
100112	50	612	0	0	blazer	137	303	1	stimuli\blazer\blazer_11s.jpg	10	-1	1	0	blazer_11s.jpg	0	0	0	233.837797200773	233.887776684016	0.049979483243078
100212	50	613	0	0	chessboard	318	304	1	stimuli\chessboard\chessboard_08s.jpg	7	-1	1	0	chessboard_08s.jpg	0	0	0	233.937800541054	233.987787582446	0.0499870413914323
100312	50	614	0	0	baton4	95	305	1	stimuli\baton4\baton4_04s.jpg	3	-1	1	0	baton4_04s.jpg	0	0	0	234.037802905776	234.08778458368	0.0499816779047251
100412	50	615	0	0	horn	797	306	1	stimuli\horn\horn_07s.jpg	6	-1	1	0	horn_07s.jpg	0	0	0	234.137805270962	234.18778963061	0.0499843596480787
100512	50	616	0	0	gravy	711	307	1	stimuli\gravy\gravy_12s.jpg	11	-1	1	0	gravy_12s.jpg	0	0	0	234.23780787969	234.287789801136	0.0499819214455783
100612	50	617	0	0	soda_fountain	1491	308	1	stimuli\soda_fountain\soda_fountain_11s.jpg	10	-1	1	0	soda_fountain_11s.jpg	0	0	0	234.33781195106	234.387790703215	0.0499787521548569
113746	50	618	0	0	screen1	1388	0	2	stimuli\screen1\screen1_02s.jpg	1	-1	2	0	screen1_02s.jpg	0	0	0	247.471494891215	247.521470473614	0.0499755823984742
113846	50	619	0	0	hot-air_balloon	801	1	2	stimuli\hot-air_balloon\hot-air_balloon_03s.jpg	2	-1	2	0	hot-air_balloon_03s.jpg	0	0	0	247.571493599098	247.621473082341	0.049979483243078
113946	50	620	0	0	parsley	1122	2	2	stimuli\parsley\parsley_11n.jpg	10	-1	2	0	parsley_11n.jpg	0	0	0	247.671493769623	247.721476178616	0.0499824089929461
114046	50	621	0	0	block	143	3	2	stimuli\block\block_01b.jpg	0	-1	2	0	block_01b.jpg	0	0	0	247.771496134344	247.82148098154	0.0499848471954465
114146	50	622	0	0	pine_tree	1181	4	2	stimuli\pine_tree\pine_tree_07s.jpg	6	-1	2	0	pine_tree_07s.jpg	0	0	0	247.871500937734	247.921485784929	0.0499848471954465
114246	50	623	0	0	clipper2	357	5	2	stimuli\clipper2\clipper2_05s.jpg	4	-1	2	0	clipper2_05s.jpg	0	0	0	247.971504521556	248.021484248806	0.0499797272495925
114346	50	624	0	0	silverware	1445	6	2	stimuli\silverware\silverware_11s.jpg	10	-1	2	0	silverware_11s.jpg	0	0	0	248.071506886743	248.121489051729	0.0499821649864316
114446	50	625	0	0	tennis_ball	1642	7	2	stimuli\tennis_ball\tennis_ball_04s.jpg	3	-1	2	0	tennis_ball_04s.jpg	0	0	0	248.171509983018	248.221487516072	0.0499775330536067
114546	50	626	0	0	clock	359	8	2	stimuli\clock\clock_07n.jpg	6	-1	2	0	clock_07n.jpg	0	0	0	248.271512347739	248.321491831448	0.0499794837087393
114646	50	627	0	0	lobster	939	9	2	stimuli\lobster\lobster_03s.jpg	2	-1	2	0	lobster_03s.jpg	0	0	0	248.37151251873	248.421494683716	0.0499821649864316
114746	50	628	0	0	gearshift	668	10	2	stimuli\gearshift\gearshift_11n.jpg	10	-1	2	0	gearshift_11n.jpg	0	0	0	248.471514639445	248.521502900403	0.0499882609583437
114846	50	629	0	0	pendulum	1144	11	2	stimuli\pendulum\pendulum_06s.jpg	5	-1	2	0	pendulum_06s.jpg	0	0	0	248.571519930381	248.621499657631	0.0499797272495925
114946	50	630	0	0	wand	1780	12	2	stimuli\wand\wand_12s.jpg	11	-1	2	1	wand_12s.jpg	0	0	0	248.671521564014	248.721503729001	0.0499821649864316
115046	50	631	0	0	mailbox	960	13	2	stimuli\mailbox\mailbox_02s.jpg	1	-1	2	0	mailbox_02s.jpg	0	0	0	248.771524416283	248.821505119093	0.0499807028099895
115146	50	632	0	0	horseshoe	799	14	2	stimuli\horseshoe\horseshoe_12s.jpg	11	-1	2	0	horseshoe_12s.jpg	0	0	0	248.871530438308	248.921507483814	0.0499770455062389
115246	50	633	0	0	pipe1	1186	15	2	stimuli\pipe1\pipe1_07s.jpg	6	-1	2	0	pipe1_07s.jpg	0	0	0	248.971529633738	249.021509849001	0.0499802152626216
115346	50	634	0	0	chute	342	16	2	stimuli\chute\chute_09s.jpg	8	-1	2	0	chute_09s.jpg	1	0.392229498829693	1	249.071530779824	249.12151392037	0.0499831405468285
115446	50	635	0	0	slug	1472	17	2	stimuli\slug\slug_12s.jpg	11	-1	2	0	slug_12s.jpg	0	0	0	249.171535339206	249.221516529098	0.049981189891696
115546	50	636	0	0	sausage	1365	18	2	stimuli\sausage\sausage_04s.jpg	3	-1	2	0	sausage_04s.jpg	0	0	0	249.271538679488	249.321518894285	0.0499802147969604
115646	50	637	0	0	mustache	1043	19	2	stimuli\mustache\mustache_07s.jpg	6	-1	2	0	mustache_07s.jpg	0	0	0	249.371540069114	249.421523697209	0.0499836280941963
115746	50	638	0	0	eraser	559	20	2	stimuli\eraser\eraser_11s.jpg	10	-1	2	0	eraser_11s.jpg	0	0	0	249.471541702282	249.521522405092	0.0499807028099895
115846	50	639	0	0	anteater	25	21	2	stimuli\anteater\anteater_12s.jpg	11	-1	2	0	anteater_12s.jpg	0	0	0	249.571546018124	249.621526720468	0.0499807023443282
115946	50	640	0	0	chopsticks	339	22	2	stimuli\chopsticks\chopsticks_05s.jpg	4	-1	2	0	chopsticks_05s.jpg	0	0	0	249.67154935794	249.721528354101	0.0499789961613715
116046	50	641	0	0	pennant	1148	23	2	stimuli\pennant\pennant_04s.jpg	3	-1	2	0	pennant_04s.jpg	0	0	0	249.77155245468	249.821533157025	0.0499807023443282
116146	50	642	0	0	pudding	1246	24	2	stimuli\pudding\pudding_07s.jpg	6	-1	2	0	pudding_07s.jpg	0	0	0	249.871552625205	249.921536009759	0.0499833845533431
116246	50	643	0	0	muffin	1035	25	2	stimuli\muffin\muffin_12n.jpg	11	-1	2	0	muffin_12n.jpg	0	0	0	249.971556696575	250.021537886932	0.0499811903573573
116346	50	644	0	0	washing_machine	1784	26	2	stimuli\washing_machine\washing_machine_11s.jpg	10	-1	2	0	washing_machine_11s.jpg	0	0	0	250.071580273099	250.121539764106	0.04995949100703
116446	50	645	0	0	mop	1019	27	2	stimuli\mop\mop_07s.jpg	6	-1	2	0	mop_07s.jpg	0	0	0	250.17156167049	250.221544811036	0.0499831405468285
116546	50	646	0	0	panther	1106	28	2	stimuli\panther\panther_06s.jpg	5	-1	2	0	panther_06s.jpg	0	0	0	250.271564766765	250.321547907311	0.0499831405468285
116646	50	647	0	0	revolver	1304	29	2	stimuli\revolver\revolver_05s.jpg	4	-1	2	0	revolver_05s.jpg	0	0	0	250.371564693749	250.421550516039	0.0499858222901821
116746	50	648	0	0	turf	1732	30	2	stimuli\turf\turf_11s.jpg	10	-1	2	0	turf_11s.jpg	0	0	0	250.471569740679	250.521549467929	0.0499797272495925
116846	50	649	0	0	cleaver	354	31	2	stimuli\cleaver\cleaver_06s.jpg	5	-1	2	0	cleaver_06s.jpg	0	0	0	250.57157503115	250.62155280821	0.0499777770601213
116946	50	650	0	0	sunroof	1586	32	2	stimuli\sunroof\sunroof_01b.jpg	0	-1	2	0	sunroof_01b.jpg	0	0	0	250.671576420777	250.721556392033	0.0499799712561071
117046	50	651	0	0	oatmeal	1069	33	2	stimuli\oatmeal\oatmeal_08s.jpg	7	-1	2	0	oatmeal_08s.jpg	0	0	0	250.771578785963	250.821559732314	0.0499809463508427
117146	50	652	0	0	tinsel	1662	34	2	stimuli\tinsel\tinsel_12s.jpg	11	-1	2	0	tinsel_12s.jpg	0	0	0	250.871579932049	250.921561609488	0.0499816774390638
117246	50	653	0	0	flower	619	35	2	stimuli\flower\flower_02s.jpg	1	-1	2	0	flower_02s.jpg	0	0	0	250.971582784317	251.021564218216	0.0499814338982105
117346	50	654	0	0	rocking_chair	1321	36	2	stimuli\rocking_chair\rocking_chair_08s.jpg	7	-1	2	0	rocking_chair_08s.jpg	0	0	0	251.071585880592	251.121566826943	0.0499809463508427
117446	50	655	0	0	paddle	1094	37	2	stimuli\paddle\paddle_04s.jpg	3	-1	2	0	paddle_04s.jpg	0	0	0	251.171587514225	251.221568948124	0.0499814338982105
117546	50	656	0	0	gazelle	666	38	2	stimuli\gazelle\gazelle_03s.jpg	2	-1	2	0	gazelle_03s.jpg	0	0	0	251.271597681101	251.321573019959	0.049975338857621
117646	50	657	0	0	cooler	403	39	2	stimuli\cooler\cooler_05s.jpg	4	-1	2	0	cooler_05s.jpg	0	0	0	251.371592975687	251.42157538468	0.0499824089929461
117746	50	658	0	0	antenna	27	40	2	stimuli\antenna\antenna_04n.jpg	3	-1	2	0	antenna_04n.jpg	0	0	0	251.471594365314	251.52158335736	0.0499889920465648
