onset	duration	eventnumber	blocksequencenumber	isteststim	object	objectnumber	presentationnumber	sequencenumber	stim	stimnumber	teststimnumber	withinsequencenumber	istarget	stimname	response	rt	correct	time_stimon	time_stimoff	stimdur
251892	50	0	0	0	pie	1168	0	0	stimuli\pie\pie_04s.jpg	3	-1	0	0	pie_04s.jpg	1	0	0	223.825509202201	223.875480152201	0.0499709499999881
251992	50	1	0	0	chute	342	1	0	stimuli\chute\chute_05s.jpg	4	-1	0	0	chute_05s.jpg	0	0	0	223.925508641172	223.975483248476	0.0499746073037386
252092	50	2	0	0	recliner	1294	2	0	stimuli\recliner\recliner_03s.jpg	2	-1	0	0	recliner_03s.jpg	0	0	0	224.025507836603	224.075487807859	0.0499799712561071
252192	50	3	0	0	defibrillator	477	3	0	stimuli\defibrillator\defibrillator_06s.jpg	5	-1	0	0	defibrillator_06s.jpg	0	0	0	224.125517759938	224.175489685033	0.0499719250947237
252292	50	4	0	0	tomato_sauce	1673	4	0	stimuli\tomato_sauce\tomato_sauce_12s.jpg	11	-1	0	0	tomato_sauce_12s.jpg	0	0	0	224.225513298064	224.275494731963	0.0499814338982105
252392	50	5	0	0	trumpet	1721	5	0	stimuli\trumpet\trumpet_06s.jpg	5	-1	0	0	trumpet_06s.jpg	0	0	0	224.325520782731	224.376144655049	0.0506238723173738
252492	50	6	0	0	eyeliner	567	6	0	stimuli\eyeliner\eyeliner_04s.jpg	3	-1	0	0	eyeliner_04s.jpg	0	0	0	224.425515102223	224.475498242769	0.0499831405468285
252592	50	7	0	0	mask	980	7	0	stimuli\mask\mask_12s.jpg	11	-1	0	0	mask_12s.jpg	0	0	0	224.525505032856	224.575474032667	0.0499689998105168
252692	50	8	0	0	roulette_wheel	1335	8	0	stimuli\roulette_wheel\roulette_wheel_07s.jpg	6	-1	0	0	roulette_wheel_07s.jpg	0	0	0	224.625499595888	224.675477616489	0.0499780206009746
252792	50	9	0	0	weed	1802	9	0	stimuli\weed\weed_02s.jpg	1	-1	0	0	weed_02s.jpg	0	0	0	224.725499522872	224.775514602195	0.0500150793232024
252892	50	10	0	0	wine_bottle	1824	10	0	stimuli\wine_bottle\wine_bottle_05s.jpg	4	-1	0	0	wine_bottle_05s.jpg	0	0	0	224.825533582829	224.875512822531	0.0499792397022247
252992	50	11	0	0	overalls	1090	11	0	stimuli\overalls\overalls_11s.jpg	10	-1	0	0	overalls_11s.jpg	0	0	0	224.925516930874	224.975489587523	0.0499726566486061
253092	50	12	0	0	orangutan	1080	12	0	stimuli\orangutan\orangutan_05s.jpg	4	-1	0	0	orangutan_05s.jpg	0	0	0	225.025508080609	225.075492683798	0.0499846031889319
253192	50	13	0	0	coffee_table	381	13	0	stimuli\coffee_table\coffee_table_01b.jpg	0	-1	0	1	coffee_table_01b.jpg	0	0	0	225.125510689337	225.17549017258	0.049979483243078
253292	50	14	0	0	rose	1334	14	0	stimuli\rose\rose_06s.jpg	5	-1	0	0	rose_06s.jpg	0	0	0	225.225543042645	225.2755217948	0.0499787521548569
253392	50	15	0	0	quill	1263	15	0	stimuli\quill\quill_03s.jpg	2	-1	0	0	quill_03s.jpg	0	0	0	225.32555004023	225.375524159521	0.0499741192907095
253492	50	16	0	0	mousse	1030	16	0	stimuli\mousse\mousse_06s.jpg	5	-1	0	0	mousse_06s.jpg	0	0	0	225.425546065904	225.475510920864	0.0499648549593985
253592	50	17	0	0	gargoyle	657	17	0	stimuli\gargoyle\gargoyle_08s.jpg	7	-1	0	0	gargoyle_08s.jpg	0	0	0	225.525550625287	225.575568142813	0.0500175175257027
253692	50	18	0	0	sewing_machine	1407	18	0	stimuli\sewing_machine\sewing_machine_05s.jpg	4	-1	0	0	sewing_machine_05s.jpg	0	0	0	225.625554940663	225.67553198617	0.0499770455062389
253792	50	19	0	0	orchid	1081	19	0	stimuli\orchid\orchid_09s.jpg	8	-1	0	0	orchid_09s.jpg	0	0	0	225.725551210344	225.775532644242	0.0499814338982105
253892	50	20	0	0	mattress	985	20	0	stimuli\mattress\mattress_07s.jpg	6	-1	0	0	mattress_07s.jpg	0	0	0	225.825552843977	225.875535984524	0.0499831405468285
253992	50	21	0	0	leg	911	21	0	stimuli\leg\leg_10s.jpg	9	-1	0	0	leg_10s.jpg	0	0	0	225.925556427799	225.975522014312	0.0499655865132809
254092	50	22	0	0	fern	577	22	0	stimuli\fern\fern_09n.jpg	8	-1	0	0	fern_09n.jpg	0	0	0	226.025544408243	226.075532668736	0.0499882604926825
254192	50	23	0	0	school_bus	1378	23	0	stimuli\school_bus\school_bus_10s.jpg	9	-1	0	0	school_bus_10s.jpg	0	0	0	226.125562864356	226.175532839261	0.0499699749052525
254292	50	24	0	0	reindeer	1301	24	0	stimuli\reindeer\reindeer_05s.jpg	4	-1	0	0	reindeer_05s.jpg	0	0	0	226.2255508448	226.275538617745	0.0499877729453146
254392	50	25	0	0	blouse	144	25	0	stimuli\blouse\blouse_04s.jpg	3	-1	0	0	blouse_04s.jpg	0	0	0	226.325554916169	226.375531717669	0.0499768014997244
254492	50	26	0	0	floss	617	26	0	stimuli\floss\floss_06s.jpg	5	-1	0	0	floss_06s.jpg	0	0	0	226.425554843154	226.475537983701	0.0499831405468285
254592	50	27	0	0	jet	847	27	0	stimuli\jet\jet_01b.jpg	0	-1	0	0	jet_01b.jpg	0	0	0	226.525560133625	226.575540104881	0.0499799712561071
254692	50	28	0	0	footrest	633	28	0	stimuli\footrest\footrest_08s.jpg	7	-1	0	0	footrest_08s.jpg	0	0	0	226.625586635899	226.675527353771	0.0499407178722322
254792	50	29	0	0	noodle	1061	29	0	stimuli\noodle\noodle_08s.jpg	7	-1	0	0	noodle_08s.jpg	0	0	0	226.725585099775	226.77556970343	0.0499846036545932
254892	50	30	0	0	mongoose	1016	30	0	stimuli\mongoose\mongoose_06s.jpg	5	-1	0	0	mongoose_06s.jpg	0	0	0	226.825591609813	226.87557182461	0.0499802147969604
254992	50	31	0	0	beaver	107	31	0	stimuli\beaver\beaver_04s.jpg	3	-1	0	0	beaver_04s.jpg	0	0	0	226.925576420501	226.97555809794	0.0499816774390638
255092	50	32	0	0	spring_roll	1521	32	0	stimuli\spring_roll\spring_roll_04s.jpg	3	-1	0	0	spring_roll_04s.jpg	0	0	0	227.025593657512	227.075577529613	0.0499838721007109
255192	50	33	0	0	prune	1244	33	0	stimuli\prune\prune_04s.jpg	3	-1	0	0	prune_04s.jpg	0	0	0	227.125579199754	227.175566241145	0.0499870413914323
255292	50	34	0	0	vial	1760	34	0	stimuli\vial\vial_02s.jpg	1	-1	0	0	vial_02s.jpg	0	0	0	227.225598143879	227.275586404372	0.0499882604926825
255392	50	35	0	0	sparkler	1507	35	0	stimuli\sparkler\sparkler_11s.jpg	10	-1	0	0	sparkler_11s.jpg	0	0	0	227.325601483695	227.375586818904	0.0499853352084756
255492	50	36	0	0	scrambled_egg	1386	36	0	stimuli\scrambled_egg\scrambled_egg_12s.jpg	11	-1	0	0	scrambled_egg_12s.jpg	0	0	0	227.425591414329	227.475566997193	0.0499755828641355
255592	50	37	0	0	kilt	872	37	0	stimuli\kilt\kilt_03s.jpg	2	-1	0	0	kilt_03s.jpg	0	0	0	227.525586221367	227.575564241968	0.0499780206009746
255692	50	38	0	0	toga	1669	38	0	stimuli\toga\toga_12s.jpg	11	-1	0	0	toga_12s.jpg	0	0	0	227.625585660804	227.675571727101	0.0499860662966967
255792	50	39	0	0	turkey	1733	39	0	stimuli\turkey\turkey_02s.jpg	1	-1	0	0	turkey_02s.jpg	0	0	0	227.725590707734	227.775573116727	0.0499824089929461
255892	50	40	0	0	feather	574	40	0	stimuli\feather\feather_01b.jpg	0	-1	0	0	feather_01b.jpg	0	0	0	227.825617941096	227.875572555698	0.0499546146020293
255992	50	41	0	0	game	654	41	0	stimuli\game\game_05s.jpg	4	-1	0	0	game_05s.jpg	0	0	0	227.925592511892	227.975575652439	0.0499831405468285
256092	50	42	0	0	pedometer	1137	42	0	stimuli\pedometer\pedometer_04s.jpg	3	-1	0	0	pedometer_04s.jpg	0	0	0	228.025597314816	228.07557801716	0.0499807023443282
256192	50	43	0	0	strainer	1566	43	0	stimuli\strainer\strainer_12s.jpg	11	-1	0	0	strainer_12s.jpg	0	0	0	228.125598460436	228.175579650793	0.0499811903573573
256292	50	44	0	0	seagull	1395	44	0	stimuli\seagull\seagull_03s.jpg	2	-1	0	0	seagull_03s.jpg	0	0	0	228.225604970474	228.275587379467	0.0499824089929461
256392	50	45	0	0	domino	503	45	0	stimuli\domino\domino_10s.jpg	9	-1	0	0	domino_10s.jpg	0	0	0	228.325612455141	228.375587549992	0.0499750948511064
256492	50	46	0	0	calculator	240	46	0	stimuli\calculator\calculator_02s.jpg	1	-1	0	0	calculator_02s.jpg	0	0	0	228.425609700382	228.475592109375	0.0499824089929461
256592	50	47	0	0	waffle	1770	47	0	stimuli\waffle\waffle_10s.jpg	9	-1	0	0	waffle_10s.jpg	0	0	0	228.525613771752	228.575595449656	0.0499816779047251
256692	50	48	0	0	beet	114	48	0	stimuli\beet\beet_04s.jpg	3	-1	0	0	beet_04s.jpg	0	0	0	228.625619306229	228.67560025258	0.0499809463508427
256792	50	49	0	0	gallows	653	49	0	stimuli\gallows\gallows_07s.jpg	6	-1	0	0	gallows_07s.jpg	0	0	0	228.725618989207	228.775597497821	0.0499785086140037
256892	50	50	0	0	figurine	582	50	0	stimuli\figurine\figurine_10s.jpg	9	-1	0	0	figurine_10s.jpg	0	0	0	228.825646223035	228.875621805433	0.0499755823984742
256992	50	51	0	0	cream	436	51	0	stimuli\cream\cream_12s.jpg	11	-1	0	0	cream_12s.jpg	0	0	0	228.925644199364	228.975617100019	0.0499729006551206
257092	50	52	0	0	blackberry	135	52	0	stimuli\blackberry\blackberry_04s.jpg	3	-1	0	0	blackberry_04s.jpg	0	0	0	229.025652172044	229.075615807902	0.0499636358581483
257192	50	53	0	0	stamp1	1535	53	0	stimuli\stamp1\stamp1_04s.jpg	3	-1	0	0	stamp1_04s.jpg	0	0	0	229.125642346218	229.175627193414	0.0499848471954465
257292	50	54	0	0	handlebar	749	54	0	stimuli\handlebar\handlebar_01b.jpg	0	-1	0	0	handlebar_01b.jpg	0	0	0	229.225642273203	229.275623707101	0.0499814338982105
257392	50	55	0	0	candelabra	252	55	0	stimuli\candelabra\candelabra_02s.jpg	1	-1	0	0	candelabra_02s.jpg	0	0	0	229.325645857025	229.375627290923	0.0499814338982105
257492	50	56	0	0	ruby	1338	56	0	stimuli\ruby\ruby_08s.jpg	7	-1	0	0	ruby_08s.jpg	0	0	0	229.425647978205	229.475632825401	0.0499848471954465
257592	50	57	0	0	garlic	658	57	0	stimuli\garlic\garlic_11s.jpg	10	-1	0	0	garlic_11s.jpg	0	0	0	229.525650830939	229.575624463148	0.049973632209003
257692	50	58	0	0	stump	1576	58	0	stimuli\stump\stump_05s.jpg	4	-1	0	0	stump_05s.jpg	0	0	0	229.625640030019	229.675620488822	0.0499804588034749
257792	50	59	0	0	doghouse	497	59	0	stimuli\doghouse\doghouse_04s.jpg	3	-1	0	0	doghouse_04s.jpg	0	0	0	229.725642151199	229.775627485942	0.0499853347428143
257892	50	60	0	0	napkin	1050	60	0	stimuli\napkin\napkin_07s.jpg	6	-1	0	0	napkin_07s.jpg	0	0	0	229.825670360122	229.875649112277	0.0499787521548569
257992	50	61	0	0	envelope	558	61	0	stimuli\envelope\envelope_12s.jpg	11	-1	0	0	envelope_12s.jpg	0	0	0	229.92565541435	229.975656596944	0.0500011825934052
258092	50	62	0	0	garbage	655	62	0	stimuli\garbage\garbage_10s.jpg	9	-1	0	0	garbage_10s.jpg	0	0	0	230.025653391145	230.075632142834	0.0499787516891956
258192	50	63	0	0	almond	13	63	0	stimuli\almond\almond_07s.jpg	6	-1	0	0	almond_07s.jpg	0	0	0	230.125657950062	230.175657913554	0.0499999634921551
258292	50	64	0	0	gum	724	64	0	stimuli\gum\gum_09s.jpg	8	-1	0	0	gum_09s.jpg	0	0	0	230.225683477242	230.275660034735	0.0499765574932098
258392	50	65	0	0	okra	1074	65	0	stimuli\okra\okra_06s.jpg	5	-1	0	0	okra_06s.jpg	0	0	0	230.325668775477	230.375662399456	0.0499936239793897
258492	50	66	0	0	salad	1348	66	0	stimuli\salad\salad_04s.jpg	3	-1	0	0	salad_04s.jpg	0	0	0	230.425684062298	230.475658913143	0.0499748508445919
258592	50	67	0	0	flyswatter	623	67	0	stimuli\flyswatter\flyswatter_04s.jpg	3	-1	0	0	flyswatter_04s.jpg	0	0	0	230.525688377675	230.575671518221	0.0499831405468285
258692	50	68	0	0	pedal	1136	68	0	stimuli\pedal\pedal_07s.jpg	6	-1	0	0	pedal_07s.jpg	0	0	0	230.625674163457	230.675669007003	0.0499948435463011
258792	50	69	0	0	hourglass	807	69	0	stimuli\hourglass\hourglass_02s.jpg	1	-1	0	0	hourglass_02s.jpg	0	0	0	230.725664581638	230.775674297474	0.0500097158364952
258892	50	70	0	0	hopscotch	796	70	0	stimuli\hopscotch\hopscotch_01b.jpg	0	-1	0	0	hopscotch_01b.jpg	0	0	0	230.825695472304	230.87565471977	0.0499592474661767
258992	50	71	0	0	coffee_filter	379	71	0	stimuli\coffee_filter\coffee_filter_10s.jpg	9	-1	0	0	coffee_filter_10s.jpg	0	0	0	230.925673212856	230.975643187296	0.0499699744395912
259092	50	72	0	0	workbench	1835	72	0	stimuli\workbench\workbench_07s.jpg	6	-1	0	0	workbench_07s.jpg	0	0	0	231.025705078617	231.075682367664	0.0499772890470922
259192	50	73	0	0	burrito	225	73	0	stimuli\burrito\burrito_10s.jpg	9	-1	0	0	burrito_10s.jpg	0	0	0	231.125686476007	231.175669616554	0.0499831405468285
259292	50	74	0	0	bandanna	67	74	0	stimuli\bandanna\bandanna_02s.jpg	1	-1	0	0	bandanna_02s.jpg	0	0	0	231.225722486619	231.275662228931	0.0499397423118353
259392	50	75	0	0	handcuff	746	75	0	stimuli\handcuff\handcuff_03s.jpg	2	-1	0	0	handcuff_03s.jpg	0	0	0	231.325677796267	231.375654841773	0.0499770455062389
259492	50	76	0	0	raspberry	1284	76	0	stimuli\raspberry\raspberry_03n.jpg	2	-1	0	0	raspberry_03n.jpg	0	0	0	231.42567650415	231.475659157149	0.0499826529994607
259592	50	77	0	0	squirt_gun	1530	77	0	stimuli\squirt_gun\squirt_gun_12s.jpg	11	-1	0	0	squirt_gun_12s.jpg	0	0	0	231.525680331979	231.575664935168	0.0499846031889319
259692	50	78	0	0	seaplane	1398	78	0	stimuli\seaplane\seaplane_04s.jpg	3	-1	0	0	seaplane_04s.jpg	0	0	0	231.62568659801	231.675662911497	0.0499763134866953
259792	50	79	0	0	penholder	1146	79	0	stimuli\penholder\penholder_12s.jpg	11	-1	0	0	penholder_12s.jpg	0	0	0	231.725684086327	231.775697459467	0.0500133731402457
259892	50	80	0	0	underwear	1745	80	0	stimuli\underwear\underwear_05s.jpg	4	-1	0	0	underwear_05s.jpg	0	0	0	231.8257222916	231.875679831952	0.0499575403518975
259992	50	81	0	0	candle	253	81	0	stimuli\candle\candle_01b.jpg	0	-1	0	0	candle_01b.jpg	0	0	0	231.925687597599	231.97567171324	0.0499841156415641
260092	50	82	0	0	birdbath	129	82	0	stimuli\birdbath\birdbath_04s.jpg	3	-1	0	0	birdbath_04s.jpg	0	0	0	232.025701177772	232.075674077962	0.0499729001894593
260192	50	83	0	0	chandelier	305	83	0	stimuli\chandelier\chandelier_01b.jpg	0	-1	0	0	chandelier_01b.jpg	0	0	0	232.125694765244	232.175678881351	0.0499841161072254
260292	50	84	0	0	brake	191	84	0	stimuli\brake\brake_11s.jpg	10	-1	0	0	brake_11s.jpg	0	0	0	232.225708345417	232.275710503105	0.0500021576881409
260392	50	85	0	0	camel	245	85	0	stimuli\camel\camel_09s.jpg	8	-1	0	0	camel_09s.jpg	0	0	0	232.325711929705	232.375688243657	0.0499763139523566
260492	50	86	0	0	tiara	1655	86	0	stimuli\tiara\tiara_10s.jpg	9	-1	0	0	tiara_10s.jpg	0	0	0	232.425717464183	232.475719865412	0.0500024012289941
260592	50	87	0	0	fungus	648	87	0	stimuli\fungus\fungus_07s.jpg	6	-1	0	0	fungus_07s.jpg	0	0	0	232.525737383403	232.575703701004	0.0499663176015019
260692	50	88	0	0	air_pump	6	88	0	stimuli\air_pump\air_pump_09s.jpg	8	-1	0	0	air_pump_09s.jpg	0	0	0	232.625743892975	232.675723620225	0.0499797272495925
260792	50	89	0	0	bell_pepper	117	89	0	stimuli\bell_pepper\bell_pepper_10s.jpg	9	-1	0	0	bell_pepper_10s.jpg	0	0	0	232.725745526608	232.775731348898	0.0499858222901821
260892	50	90	0	0	jam	839	90	0	stimuli\jam\jam_06s.jpg	5	-1	0	0	jam_06s.jpg	0	0	0	232.82573131239	232.875712990295	0.0499816779047251
260992	50	91	0	0	eye	564	91	0	stimuli\eye\eye_01b.jpg	0	-1	0	0	eye_01b.jpg	0	0	0	232.925732214469	232.975735835265	0.0500036207959056
261092	50	92	0	0	grenade	713	92	0	stimuli\grenade\grenade_06s.jpg	5	-1	0	0	grenade_06s.jpg	0	0	0	233.025751158595	233.075721377041	0.0499702184461057
261192	50	93	0	0	cornmeal	415	93	0	stimuli\cornmeal\cornmeal_11s.jpg	10	-1	0	0	cornmeal_11s.jpg	0	0	0	233.125741089229	233.175738858525	0.0499977692961693
261292	50	94	0	0	computer	394	94	0	stimuli\computer\computer_11s.jpg	10	-1	0	0	computer_11s.jpg	0	0	0	233.225756620057	233.275726594497	0.0499699744395912
261392	50	95	0	0	wind_chimes	1817	95	0	stimuli\wind_chimes\wind_chimes_03s.jpg	2	-1	0	0	wind_chimes_03s.jpg	0	0	0	233.325763129629	233.375727984589	0.0499648549593985
261492	50	96	0	0	weasel	1797	96	0	stimuli\weasel\weasel_10s.jpg	9	-1	0	0	weasel_10s.jpg	0	0	0	233.425746477209	233.475743027404	0.0499965501949191
261592	50	97	0	0	hookah	795	97	0	stimuli\hookah\hookah_12s.jpg	11	-1	0	0	hookah_12s.jpg	0	0	0	233.525765665341	233.575747099239	0.0499814338982105
261692	50	98	0	0	lizard	937	98	0	stimuli\lizard\lizard_05n.jpg	4	-1	0	0	lizard_05n.jpg	0	0	0	233.625772906467	233.675726789981	0.0499538835138083
261792	50	99	0	0	poppy	1224	99	0	stimuli\poppy\poppy_02s.jpg	1	-1	0	0	poppy_02s.jpg	0	0	0	233.725753572304	233.775734762195	0.049981189891696
261892	50	100	0	0	mantle	969	100	0	stimuli\mantle\mantle_11s.jpg	10	-1	0	0	mantle_11s.jpg	0	0	0	233.825756425038	233.875737127382	0.0499807023443282
261992	50	101	0	0	taillight	1617	101	0	stimuli\taillight\taillight_10s.jpg	9	-1	0	0	taillight_10s.jpg	0	0	0	233.92577463761	233.975740467664	0.0499658300541341
262092	50	102	0	0	hair	733	102	0	stimuli\hair\hair_09s.jpg	8	-1	0	0	hair_09s.jpg	0	0	0	234.025781390723	234.075762093533	0.0499807028099895
262192	50	103	0	0	pocketknife	1207	103	0	stimuli\pocketknife\pocketknife_11s.jpg	10	-1	0	0	pocketknife_11s.jpg	0	0	0	234.125781317707	234.175763970707	0.0499826529994607
262292	50	104	0	0	pan	1103	104	0	stimuli\pan\pan_03s.jpg	2	-1	0	0	pan_03s.jpg	0	0	0	234.225784413982	234.275765360333	0.0499809463508427
262392	50	105	0	0	lime	930	105	0	stimuli\lime\lime_11s.jpg	10	-1	0	0	lime_11s.jpg	0	0	0	234.325768981129	234.375766018871	0.0499970377422869
262492	50	106	0	0	table	1608	106	0	stimuli\table\table_02s.jpg	1	-1	0	0	table_02s.jpg	0	0	0	234.425789631903	234.475757656153	0.0499680242501199
262592	50	107	0	0	football_helmet	630	107	0	stimuli\football_helmet\football_helmet_09s.jpg	8	-1	0	0	football_helmet_09s.jpg	0	0	0	234.525769078638	234.57575124409	0.0499821654520929
262692	50	108	0	0	memory_stick	995	108	0	stimuli\memory_stick\memory_stick_05s.jpg	4	-1	0	0	memory_stick_05s.jpg	0	0	0	234.625772662461	234.675754827913	0.0499821654520929
262792	50	109	0	0	block	143	109	0	stimuli\block\block_01b.jpg	0	-1	0	0	block_01b.jpg	0	0	0	234.725798189174	234.775781330187	0.0499831410124898
262892	50	110	0	0	ambulance	19	110	0	stimuli\ambulance\ambulance_11s.jpg	10	-1	0	0	ambulance_11s.jpg	0	0	0	234.825782024767	234.875783207361	0.0500011825934052
262992	50	111	0	0	wood	1833	111	0	stimuli\wood\wood_06s.jpg	5	-1	0	0	wood_06s.jpg	0	0	0	234.925805113744	234.975770699792	0.0499655860476196
263092	50	112	0	0	highchair	777	112	0	stimuli\highchair\highchair_08s.jpg	7	-1	0	0	highchair_08s.jpg	0	0	0	235.025787242223	235.075784767512	0.0499975252896547
263192	50	113	0	0	helmet	776	113	0	stimuli\helmet\helmet_10s.jpg	9	-1	0	0	helmet_10s.jpg	0	0	0	235.125790338498	235.175770065747	0.0499797272495925
263292	50	114	0	0	stick	1552	114	0	stimuli\stick\stick_08s.jpg	7	-1	0	0	stick_08s.jpg	0	0	0	235.225791972131	235.275797543116	0.0500055709853768
263392	50	115	0	0	swing	1598	115	0	stimuli\swing\swing_01b.jpg	0	-1	0	0	swing_01b.jpg	0	0	0	235.325801651459	235.375789668411	0.0499880169518292
263492	50	116	0	0	hamburger	740	116	0	stimuli\hamburger\hamburger_11s.jpg	10	-1	0	0	hamburger_11s.jpg	0	0	0	235.425812549889	235.4757698467	0.0499572968110442
263592	50	117	0	0	bush	227	117	0	stimuli\bush\bush_08s.jpg	7	-1	0	0	bush_08s.jpg	0	0	0	235.525796141475	235.575767091475	0.0499709499999881
263692	50	118	0	0	sawhorse	1367	118	0	stimuli\sawhorse\sawhorse_04s.jpg	3	-1	0	0	sawhorse_04s.jpg	0	0	0	235.625801431946	235.675781403203	0.0499799712561071
263792	50	119	0	0	doll	499	119	0	stimuli\doll\doll_02s.jpg	1	-1	0	0	doll_02s.jpg	0	0	0	235.725803797133	235.775772796478	0.0499689993448555
263892	50	120	0	0	apple	30	120	0	stimuli\apple\apple_03s.jpg	2	-1	0	0	apple_03s.jpg	0	0	0	235.825795921963	235.87579100905	0.0499950870871544
263992	50	121	0	0	pantyhose	1110	121	0	stimuli\pantyhose\pantyhose_06s.jpg	5	-1	0	1	pantyhose_06s.jpg	0	0	0	235.925807551481	235.975788741838	0.0499811903573573
264092	50	122	0	0	reel	1299	122	0	stimuli\reel\reel_03s.jpg	2	-1	0	0	reel_03s.jpg	0	0	0	236.02583502885	236.075803784654	0.0499687558040023
264192	50	123	0	0	lectern	908	123	0	stimuli\lectern\lectern_07s.jpg	6	-1	0	0	lectern_07s.jpg	0	0	0	236.125811306294	236.1757942033	0.0499828970059752
264292	50	124	0	0	snowball	1480	124	0	stimuli\snowball\snowball_10s.jpg	9	-1	0	0	snowball_10s.jpg	0	0	0	236.22581269592	236.275796080474	0.0499833845533431
264392	50	125	0	0	fruit	645	125	0	stimuli\fruit\fruit_05s.jpg	4	-1	0	0	fruit_05s.jpg	0	0	0	236.325817742851	236.375814780593	0.0499970377422869
264492	50	126	0	0	tumbleweed	1727	126	0	stimuli\tumbleweed\tumbleweed_08n.jpg	7	-1	0	0	tumbleweed_08n.jpg	0	0	0	236.425819376484	236.475822509266	0.0500031327828765
264592	50	127	0	0	shredder	1437	127	0	stimuli\shredder\shredder_02s.jpg	1	-1	0	0	shredder_02s.jpg	0	0	0	236.525830030907	236.57581341546	0.0499833845533431
264692	50	128	0	0	chipmunk	334	128	0	stimuli\chipmunk\chipmunk_01b.jpg	0	-1	0	0	chipmunk_01b.jpg	0	0	0	236.625837272033	236.675813098438	0.0499758264049888
264792	50	129	0	0	mold2	1013	129	0	stimuli\mold2\mold2_04s.jpg	3	-1	0	0	mold2_04s.jpg	0	0	0	236.725841831416	236.775819852017	0.0499780206009746
264892	50	130	0	0	solar_panel	1493	130	0	stimuli\solar_panel\solar_panel_03s.jpg	2	-1	0	0	solar_panel_03s.jpg	0	0	0	236.825837125536	236.875819047447	0.0499819219112396
264992	50	131	0	0	pumpkin	1253	131	0	stimuli\pumpkin\pumpkin_02s.jpg	1	-1	0	0	pumpkin_02s.jpg	0	0	0	236.92583997827	236.975819461979	0.0499794837087393
265092	50	132	0	0	meatball	989	132	0	stimuli\meatball\meatball_12s.jpg	11	-1	0	0	meatball_12s.jpg	0	0	0	237.025844781194	237.075825239997	0.0499804588034749
265192	50	133	0	0	banjo	68	133	0	stimuli\banjo\banjo_05s.jpg	4	-1	0	0	banjo_05s.jpg	0	0	0	237.125837637577	237.175821753684	0.0499841161072254
265292	50	134	0	0	sheep	1414	134	0	stimuli\sheep\sheep_12s.jpg	11	-1	0	0	sheep_12s.jpg	0	0	0	237.225847073365	237.275812415872	0.0499653425067663
265392	50	135	0	0	bowling_ball	179	135	0	stimuli\bowling_ball\bowling_ball_12s.jpg	11	-1	0	0	bowling_ball_12s.jpg	0	0	0	237.325847731438	237.375823557843	0.0499758264049888
265492	50	136	0	0	potholder	1232	136	0	stimuli\potholder\potholder_07s.jpg	6	-1	0	0	potholder_07s.jpg	0	0	0	237.425849852618	237.475805930328	0.049956077709794
265592	50	137	0	0	soldering_iron	1494	137	0	stimuli\soldering_iron\soldering_iron_05s.jpg	4	-1	0	0	soldering_iron_05s.jpg	0	0	0	237.525867577642	237.575848767534	0.049981189891696
265692	50	138	0	0	fencepost	576	138	0	stimuli\fencepost\fencepost_07s.jpg	6	-1	0	0	fencepost_07s.jpg	0	0	0	237.625866285525	237.675848694518	0.0499824089929461
265792	50	139	0	0	loveseat	947	139	0	stimuli\loveseat\loveseat_02s.jpg	1	-1	0	0	loveseat_02s.jpg	0	0	0	237.725870600902	237.775853253901	0.0499826529994607
265892	50	140	0	0	fast_food	572	140	0	stimuli\fast_food\fast_food_05s.jpg	4	-1	0	0	fast_food_05s.jpg	0	0	0	237.825873209629	237.875841233879	0.0499680242501199
265992	50	141	0	0	kazoo	864	141	0	stimuli\kazoo\kazoo_05s.jpg	4	-1	0	0	kazoo_05s.jpg	0	0	0	237.925862652715	237.975844574161	0.0499819214455783
266092	50	142	0	0	mulch	1038	142	0	stimuli\mulch\mulch_04s.jpg	3	-1	0	0	mulch_04s.jpg	0	0	0	238.02586574899	238.075845232233	0.049979483243078
266192	50	143	0	0	iron	832	143	0	stimuli\iron\iron_04s.jpg	3	-1	0	0	iron_04s.jpg	0	0	0	238.125865431968	238.175841258373	0.0499758264049888
266292	50	144	0	0	dumpster	533	144	0	stimuli\dumpster\dumpster_06s.jpg	5	-1	0	1	dumpster_06s.jpg	0	0	0	238.22588071879	238.275849474594	0.0499687558040023
266392	50	145	0	0	manhole	967	145	0	stimuli\manhole\manhole_01b.jpg	0	-1	0	0	manhole_01b.jpg	0	0	0	238.325873331632	238.37585086422	0.0499775325879455
266492	50	146	0	0	radish	1274	146	0	stimuli\radish\radish_04n.jpg	3	-1	0	0	radish_04n.jpg	0	0	0	238.425870332401	238.475859080907	0.0499887485057116
266592	50	147	0	0	stew	1551	147	0	stimuli\stew\stew_08s.jpg	7	-1	0	0	stew_08s.jpg	0	0	0	238.525878792629	238.57585778879	0.0499789961613715
266692	50	148	0	0	measuring_cup	986	148	0	stimuli\measuring_cup\measuring_cup_06s.jpg	5	-1	0	0	measuring_cup_06s.jpg	0	0	0	238.625882864464	238.67585893441	0.049976069945842
266792	50	149	0	0	hook2	794	149	0	stimuli\hook2\hook2_10s.jpg	9	-1	0	0	hook2_10s.jpg	0	0	0	238.725879134145	238.775853497442	0.049974363297224
266892	50	150	0	0	asparagus	42	150	0	stimuli\asparagus\asparagus_11s.jpg	10	-1	0	0	asparagus_11s.jpg	0	0	0	238.825884181075	238.875880974811	0.0499967937357724
266992	50	151	0	0	stiletto	1554	151	0	stimuli\stiletto\stiletto_08s.jpg	7	-1	0	0	stiletto_08s.jpg	0	0	0	238.925904831849	238.975883583538	0.0499787516891956
267092	50	152	0	0	humvee	813	152	0	stimuli\humvee\humvee_08s.jpg	7	-1	0	0	humvee_08s.jpg	0	0	0	239.025909147225	239.075873758178	0.049964610952884
267192	50	153	0	0	fur_coat	650	153	0	stimuli\fur_coat\fur_coat_11s.jpg	10	-1	0	0	fur_coat_11s.jpg	0	0	0	239.125910049304	239.175886363257	0.0499763139523566
267292	50	154	0	0	terrarium	1644	154	0	stimuli\terrarium\terrarium_11s.jpg	10	-1	0	0	terrarium_11s.jpg	0	0	0	239.225892421789	239.275872636586	0.0499802147969604
267392	50	155	0	0	gavel	665	155	0	stimuli\gavel\gavel_05s.jpg	4	-1	0	0	gavel_05s.jpg	0	0	0	239.32589454297	239.375873538665	0.0499789956957102
267492	50	156	0	0	cigar	343	156	0	stimuli\cigar\cigar_07n.jpg	6	-1	0	0	cigar_07n.jpg	0	0	0	239.425902759191	239.475895408541	0.0499926493503153
267592	50	157	0	0	bullet	216	157	0	stimuli\bullet\bullet_01s.jpg	0	-1	0	0	bullet_01s.jpg	0	0	0	239.525920728222	239.575901674107	0.0499809458851814
267692	50	158	0	0	washboard	1782	158	0	stimuli\washboard\washboard_04s.jpg	3	-1	0	0	washboard_04s.jpg	0	0	0	239.625906026457	239.675903795287	0.049997768830508
267792	50	159	0	0	skirt	1457	159	0	stimuli\skirt\skirt_06s.jpg	5	-1	0	0	skirt_06s.jpg	1	0	0	239.725909366738	239.775902015623	0.049992648884654
267892	50	160	0	0	whistle	1812	160	0	stimuli\whistle\whistle_09s.jpg	8	-1	0	0	whistle_09s.jpg	0	0	0	239.825930261053	239.875907794107	0.0499775330536067
267992	50	161	0	0	radio	1273	161	0	stimuli\radio\radio_02s.jpg	1	-1	0	0	radio_02s.jpg	0	0	0	239.925928237382	239.975910646375	0.0499824089929461
268092	50	162	0	0	film	586	162	0	stimuli\film\film_03s.jpg	2	-1	0	0	film_03s.jpg	0	0	0	240.025933040306	240.075898139272	0.0499650989659131
268192	50	163	0	0	railing	1277	163	0	stimuli\railing\railing_07s.jpg	6	-1	0	0	railing_07s.jpg	0	0	0	240.125937843695	240.175899041351	0.049961197655648
268292	50	164	0	0	cleat	353	164	0	stimuli\cleat\cleat_05s.jpg	4	-1	0	0	cleat_05s.jpg	0	0	0	240.225939476863	240.27592066722	0.0499811903573573
268392	50	165	0	0	stir_fry	1557	165	0	stimuli\stir_fry\stir_fry_11s.jpg	10	-1	0	0	stir_fry_11s.jpg	0	0	0	240.325924044009	240.3759040148	0.0499799707904458
268492	50	166	0	0	snowmobile	1483	166	0	stimuli\snowmobile\snowmobile_06s.jpg	5	-1	0	0	snowmobile_06s.jpg	0	0	0	240.425942012575	240.47592100827	0.0499789956957102
268592	50	167	0	0	water_filter	1789	167	0	stimuli\water_filter\water_filter_09s.jpg	8	-1	0	0	water_filter_09s.jpg	0	0	0	240.525943646207	240.575925567653	0.0499819214455783
268692	50	168	0	0	kiwi	876	168	0	stimuli\kiwi\kiwi_05s.jpg	4	-1	0	0	kiwi_05s.jpg	0	0	0	240.625947961584	240.675910865888	0.049962904304266
268792	50	169	0	0	ladybug	888	169	0	stimuli\ladybug\ladybug_01b.jpg	0	-1	0	0	ladybug_01b.jpg	0	0	0	240.725932284724	240.775912743062	0.0499804583378136
268892	50	170	0	0	ticktacktoe	1657	170	0	stimuli\ticktacktoe\ticktacktoe_07s.jpg	6	-1	0	0	ticktacktoe_07s.jpg	0	0	0	240.825950984843	240.875933637843	0.0499826529994607
268992	50	171	0	0	goblet	685	171	0	stimuli\goblet\goblet_08s.jpg	7	-1	0	1	goblet_08s.jpg	0	0	0	240.925939208828	240.975941610523	0.0500024016946554
269092	50	172	0	0	roll	1323	172	0	stimuli\roll\roll_05s.jpg	4	-1	0	0	roll_05s.jpg	0	0	0	241.025961809792	241.075922032353	0.0499602225609124
269192	50	173	0	0	harness	754	173	0	stimuli\harness\harness_04s.jpg	3	-1	0	0	harness_04s.jpg	0	0	0	241.125945157837	241.175929029938	0.0499838721007109
269292	50	174	0	0	stamp2	1536	174	0	stimuli\stamp2\stamp2_09s.jpg	8	-1	0	0	stamp2_09s.jpg	1	0.29220933560282	1	241.225966296159	241.275925055612	0.0499587594531476
269392	50	175	0	0	pliers	1201	175	0	stimuli\pliers\pliers_03s.jpg	2	-1	0	0	pliers_03s.jpg	0	0	0	241.325949887745	241.375930590089	0.0499807023443282
269492	50	176	0	0	saffron	1345	176	0	stimuli\saffron\saffron_02s.jpg	1	-1	0	0	saffron_02s.jpg	0	0	0	241.425955178216	241.475933442824	0.0499782646074891
269592	50	177	0	0	nail_clippers	1047	177	0	stimuli\nail_clippers\nail_clippers_05s.jpg	4	-1	0	0	nail_clippers_05s.jpg	0	0	0	241.525981192943	241.575952142943	0.0499709499999881
269692	50	178	0	0	barbed_wire	71	178	0	stimuli\barbed_wire\barbed_wire_02s.jpg	1	-1	0	0	barbed_wire_02s.jpg	0	0	0	241.625962346327	241.675953045022	0.0499906986951828
269792	50	179	0	0	squirrel	1529	179	0	stimuli\squirrel\squirrel_07s.jpg	6	-1	0	0	squirrel_07s.jpg	0	0	0	241.725968124811	241.775939318351	0.0499711935408413
269892	50	180	0	0	raisin	1280	180	0	stimuli\raisin\raisin_11s.jpg	10	-1	0	0	raisin_11s.jpg	0	0	0	241.825965369586	241.875944121741	0.0499787521548569
269992	50	181	0	0	snake	1477	181	0	stimuli\snake\snake_03s.jpg	2	-1	0	0	snake_03s.jpg	0	0	0	241.926001624204	241.975961358752	0.0499597345478833
270092	50	182	0	0	antelope	26	182	0	stimuli\antelope\antelope_09n.jpg	8	-1	0	0	antelope_09n.jpg	0	0	0	242.02599301748	242.075949339196	0.0499563217163086
270192	50	183	0	0	cushion	466	183	0	stimuli\cushion\cushion_06s.jpg	5	-1	0	0	cushion_06s.jpg	0	0	0	242.125971976668	242.175952679478	0.0499807028099895
270292	50	184	0	0	matchbox	984	184	0	stimuli\matchbox\matchbox_07s.jpg	6	-1	0	0	matchbox_07s.jpg	0	0	0	242.225988482591	242.275971623138	0.0499831405468285
270392	50	185	0	0	bracelet2	188	185	0	stimuli\bracelet2\bracelet2_02s.jpg	1	-1	0	0	bracelet2_02s.jpg	0	0	0	242.325991822872	242.375971794128	0.0499799712561071
270492	50	186	0	0	teabag	1632	186	0	stimuli\teabag\teabag_10s.jpg	9	-1	0	0	teabag_10s.jpg	1	0	0	242.425998332445	242.475977328606	0.0499789961613715
270592	50	187	0	0	electric_chair	553	187	0	stimuli\electric_chair\electric_chair_07s.jpg	6	-1	0	0	electric_chair_07s.jpg	0	0	0	242.525997771882	242.575967259239	0.0499694873578846
270692	50	188	0	0	plant	1194	188	0	stimuli\plant\plant_02s.jpg	1	-1	0	0	plant_02s.jpg	0	0	0	242.625983314123	242.675962797366	0.049979483243078
270792	50	189	0	0	bomb	160	189	0	stimuli\bomb\bomb_02s.jpg	1	-1	0	0	bomb_02s.jpg	0	0	0	242.726005915087	242.775973451789	0.0499675367027521
270892	50	190	0	0	piglet	1173	190	0	stimuli\piglet\piglet_03s.jpg	2	-1	0	0	piglet_03s.jpg	0	0	0	242.825989019126	242.875986788422	0.0499977692961693
270992	50	191	0	0	wheelbarrow	1807	191	0	stimuli\wheelbarrow\wheelbarrow_02s.jpg	1	-1	0	0	wheelbarrow_02s.jpg	0	0	0	242.925973342266	242.975988421589	0.0500150793232024
271092	50	192	0	0	coral	406	192	0	stimuli\coral\coral_11s.jpg	10	-1	0	0	coral_11s.jpg	0	0	0	243.026010327972	243.075992005877	0.0499816779047251
271192	50	193	0	0	coleslaw	386	193	0	stimuli\coleslaw\coleslaw_12s.jpg	11	-1	0	0	coleslaw_12s.jpg	0	0	0	243.126014155801	243.17601338774	0.0499992319382727
271292	50	194	0	0	cord	407	194	0	stimuli\cord\cord_07s.jpg	6	-1	0	0	cord_07s.jpg	0	0	0	243.226004817989	243.276001611724	0.0499967937357724
271392	50	195	0	0	puddle	1247	195	0	stimuli\puddle\puddle_05s.jpg	4	-1	0	0	puddle_05s.jpg	0	0	0	243.326025468763	243.375989348162	0.0499638793990016
271492	50	196	0	0	blowfish	146	196	0	stimuli\blowfish\blowfish_08s.jpg	7	-1	0	0	blowfish_08s.jpg	0	0	0	243.426024420187	243.476003659889	0.0499792397022247
271592	50	197	0	0	birthday_cake	132	197	0	stimuli\birthday_cake\birthday_cake_03s.jpg	2	-1	0	0	birthday_cake_03s.jpg	0	0	0	243.526024103165	243.576004317962	0.0499802147969604
271692	50	198	0	0	scuba	1392	198	0	stimuli\scuba\scuba_01b.jpg	0	-1	0	0	scuba_01b.jpg	0	0	0	243.626010132954	243.676007658243	0.0499975252896547
271792	50	199	0	0	suitcase	1581	199	0	stimuli\suitcase\suitcase_08s.jpg	7	-1	0	0	suitcase_08s.jpg	0	0	0	243.726019080728	243.775996369775	0.0499772890470922
271892	50	200	0	0	ankle	22	200	0	stimuli\ankle\ankle_11s.jpg	10	-1	0	0	ankle_11s.jpg	0	0	0	243.826016813517	243.875994834118	0.0499780206009746
271992	50	201	0	0	pill	1174	201	0	stimuli\pill\pill_05s.jpg	4	-1	0	0	pill_05s.jpg	0	0	0	243.926019422244	243.975997930393	0.0499785081483424
272092	50	202	0	0	lamb_chop	890	202	0	stimuli\lamb_chop\lamb_chop_10s.jpg	9	-1	0	0	lamb_chop_10s.jpg	0	0	0	244.026043973863	244.076001026668	0.0499570528045297
272192	50	203	0	0	wooden_leg	1834	203	0	stimuli\wooden_leg\wooden_leg_03s.jpg	2	-1	0	0	wooden_leg_03s.jpg	0	0	0	244.126039755996	244.176006561145	0.0499668051488698
272292	50	204	0	0	volleyball	1767	204	0	stimuli\volleyball\volleyball_12s.jpg	11	-1	0	0	volleyball_12s.jpg	0	0	0	244.226031393278	244.276007463224	0.049976069945842
272392	50	205	0	0	hawk	760	205	0	stimuli\hawk\hawk_02s.jpg	1	-1	0	0	hawk_02s.jpg	0	0	0	244.326027662959	244.376011047047	0.0499833840876818
272492	50	206	0	0	water_fountain	1790	206	0	stimuli\water_fountain\water_fountain_09s.jpg	8	-1	0	0	water_fountain_09s.jpg	0	0	0	244.426031246781	244.476028284524	0.0499970377422869
272592	50	207	0	0	chessboard	318	207	0	stimuli\chessboard\chessboard_09s.jpg	8	-1	0	0	chessboard_09s.jpg	0	0	0	244.526041170117	244.576030893251	0.0499897231347859
272692	50	208	0	0	jersey	846	208	0	stimuli\jersey\jersey_07s.jpg	6	-1	0	0	jersey_07s.jpg	0	0	0	244.626055237837	244.676032770891	0.0499775330536067
272792	50	209	0	0	backdrop	47	209	0	stimuli\backdrop\backdrop_10s.jpg	9	-1	0	0	backdrop_10s.jpg	0	0	0	244.726054920815	244.776039036456	0.0499841156415641
272892	50	210	0	0	boxer_shorts	182	210	0	stimuli\boxer_shorts\boxer_shorts_05s.jpg	4	-1	0	0	boxer_shorts_05s.jpg	1	0	0	244.826043388806	244.876039694995	0.0499963061884046
272992	50	211	0	0	casserole	282	211	0	stimuli\casserole\casserole_07s.jpg	6	-1	0	0	casserole_07s.jpg	0	0	0	244.926065745763	244.976024505682	0.0499587599188089
273092	50	212	0	0	lip_gloss	935	212	0	stimuli\lip_gloss\lip_gloss_09s.jpg	8	-1	0	0	lip_gloss_09s.jpg	0	0	0	245.026045436505	245.076022969559	0.0499775330536067
273192	50	213	0	0	basil	81	213	0	stimuli\basil\basil_10s.jpg	9	-1	0	0	basil_10s.jpg	0	0	0	245.126043900382	245.176028991584	0.049985091201961
273292	50	214	0	0	tuxedo	1738	214	0	stimuli\tuxedo\tuxedo_11s.jpg	10	-1	0	0	tuxedo_11s.jpg	0	0	0	245.226073084399	245.276037695818	0.0499646114185452
273392	50	215	0	0	trapdoor	1703	215	0	stimuli\trapdoor\trapdoor_10s.jpg	9	-1	0	0	trapdoor_10s.jpg	0	0	0	245.326055700891	245.376035672147	0.0499799712561071
273492	50	216	0	0	plunger	1204	216	0	stimuli\plunger\plunger_10s.jpg	9	-1	0	0	plunger_10s.jpg	0	0	0	245.426050995477	245.476038524415	0.0499875289388001
273592	50	217	0	0	telephone_pole	1639	217	0	stimuli\telephone_pole\telephone_pole_09s.jpg	8	-1	0	0	telephone_pole_09s.jpg	0	0	0	245.526059943251	245.576039182954	0.0499792397022247
273692	50	218	0	0	cracker	429	218	0	stimuli\cracker\cracker_01b.jpg	0	-1	0	0	cracker_01b.jpg	0	0	0	245.626056456938	245.676043010782	0.0499865538440645
273792	50	219	0	0	tank1	1620	219	0	stimuli\tank1\tank1_12s.jpg	11	-1	0	0	tank1_12s.jpg	0	0	0	245.726067354903	245.776049276814	0.0499819219112396
273892	50	220	0	0	peg	1139	220	0	stimuli\peg\peg_04s.jpg	3	-1	0	0	peg_04s.jpg	0	0	0	245.826071670279	245.876052129082	0.0499804588034749
273992	50	221	0	0	toilet	1670	221	0	stimuli\toilet\toilet_07s.jpg	6	-1	0	0	toilet_07s.jpg	0	0	0	245.92608963931	245.976069366559	0.0499797272495925
274092	50	222	0	0	scorpion	1384	222	0	stimuli\scorpion\scorpion_09s.jpg	8	-1	0	0	scorpion_09s.jpg	0	0	0	246.026095905341	246.076061003841	0.0499650985002518
274192	50	223	0	0	button1	230	223	0	stimuli\button1\button1_08s.jpg	7	-1	0	0	button1_08s.jpg	0	0	0	246.126092175022	246.176056298427	0.0499641234055161
274292	50	224	0	0	top_hat	1682	224	0	stimuli\top_hat\top_hat_01b.jpg	0	-1	0	0	top_hat_01b.jpg	0	0	0	246.226079179905	246.276055737399	0.0499765574932098
274392	50	225	0	0	handprint	750	225	0	stimuli\handprint\handprint_02s.jpg	1	-1	0	0	handprint_02s.jpg	0	0	0	246.326081057079	246.376060296781	0.0499792397022247
274492	50	226	0	0	box	181	226	0	stimuli\box\box_11s.jpg	10	-1	0	0	box_11s.jpg	0	0	0	246.426111704204	246.476081678644	0.0499699744395912
274592	50	227	0	0	sponge	1517	227	0	stimuli\sponge\sponge_09s.jpg	8	-1	0	0	sponge_09s.jpg	0	0	0	246.526089687832	246.57607209729	0.0499824094586074
274692	50	228	0	0	moss	1022	228	0	stimuli\moss\moss_12s.jpg	11	-1	0	0	moss_12s.jpg	0	0	0	246.626105950214	246.676070561167	0.049964610952884
274792	50	229	0	0	wine_cooler	1825	229	0	stimuli\wine_cooler\wine_cooler_05s.jpg	4	-1	0	0	wine_cooler_05s.jpg	0	0	0	246.726096368395	246.77607512055	0.0499787521548569
274892	50	230	0	0	banana	63	230	0	stimuli\banana\banana_01b.jpg	0	-1	0	0	banana_01b.jpg	0	0	0	246.826112142764	246.876090163365	0.0499780206009746
274992	50	231	0	0	steamroller	1545	231	0	stimuli\steamroller\steamroller_11n.jpg	10	-1	0	0	steamroller_11n.jpg	0	0	0	246.92611328885	246.976098380052	0.049985091201961
275092	50	232	0	0	scanner	1375	232	0	stimuli\scanner\scanner_01b.jpg	0	-1	0	0	scanner_01b.jpg	0	0	0	247.026114434469	247.076096356381	0.0499819219112396
275192	50	233	0	0	apron	33	233	0	stimuli\apron\apron_09s.jpg	8	-1	0	0	apron_09s.jpg	0	0	0	247.126119237859	247.176101646852	0.0499824089929461
275292	50	234	0	0	thermos	1647	234	0	stimuli\thermos\thermos_04s.jpg	3	-1	0	0	thermos_04s.jpg	0	0	0	247.226104536094	247.27610132983	0.0499967937357724
275392	50	235	0	0	mop	1019	235	0	stimuli\mop\mop_06s.jpg	5	-1	0	0	mop_06s.jpg	0	0	0	247.326124211308	247.376103695016	0.0499794837087393
275492	50	236	0	0	firecracker	594	236	0	stimuli\firecracker\firecracker_05s.jpg	4	-1	0	0	firecracker_05s.jpg	0	0	0	247.426129745785	247.476106303744	0.0499765579588711
275592	50	237	0	0	racehorse	1267	237	0	stimuli\racehorse\racehorse_02s.jpg	1	-1	0	0	racehorse_02s.jpg	0	0	0	247.526134061161	247.576111350674	0.0499772895127535
275692	50	238	0	0	ginger	673	238	0	stimuli\ginger\ginger_08s.jpg	7	-1	0	1	ginger_08s.jpg	0	0	0	247.626137157902	247.67610079376	0.0499636358581483
275792	50	239	0	0	gel	669	239	0	stimuli\gel\gel_09s.jpg	8	-1	0	0	gel_09s.jpg	0	0	0	247.726123675238	247.776114861481	0.0499911862425506
275892	50	240	0	0	water_cooler	1788	240	0	stimuli\water_cooler\water_cooler_02s.jpg	1	-1	0	0	water_cooler_02s.jpg	0	0	0	247.826120432466	247.876100403257	0.0499799707904458
275992	50	241	0	0	canoe	262	241	0	stimuli\canoe\canoe_08s.jpg	7	-1	0	0	canoe_08s.jpg	0	0	0	247.926146446727	247.976103499997	0.049957053270191
276092	50	242	0	0	slug	1472	242	0	stimuli\slug\slug_04s.jpg	3	-1	0	0	slug_04s.jpg	0	0	0	248.026143204421	248.076112203766	0.0499689993448555
276192	50	243	0	0	glove	680	243	0	stimuli\glove\glove_05s.jpg	4	-1	0	0	glove_05s.jpg	0	0	0	248.126146300696	248.176130660344	0.0499843596480787
276292	50	244	0	0	briefcase	200	244	0	stimuli\briefcase\briefcase_02s.jpg	1	-1	0	0	briefcase_02s.jpg	0	0	0	248.226146227214	248.27611425193	0.0499680247157812
276392	50	245	0	0	gopher	694	245	0	stimuli\gopher\gopher_01b.jpg	0	-1	0	0	gopher_01b.jpg	0	0	0	248.32615029905	248.376129782293	0.049979483243078
276492	50	246	0	0	hoodie	792	246	0	stimuli\hoodie\hoodie_09s.jpg	8	-1	0	0	hoodie_09s.jpg	0	0	0	248.426140717231	248.47611727519	0.0499765579588711
276592	50	247	0	0	money	1015	247	0	stimuli\money\money_12s.jpg	11	-1	0	0	money_12s.jpg	0	0	0	248.526142350864	248.576122809667	0.0499804588034749
276692	50	248	0	0	stapler	1539	248	0	stimuli\stapler\stapler_05s.jpg	4	-1	0	0	stapler_05s.jpg	0	0	0	248.62613496324	248.676122492645	0.0499875294044614
276792	50	249	0	0	license_plate	921	249	0	stimuli\license_plate\license_plate_05s.jpg	4	-1	0	0	license_plate_05s.jpg	0	0	0	248.726173656061	248.776125101373	0.0499514453113079
276892	50	250	0	0	emerald	555	250	0	stimuli\emerald\emerald_07s.jpg	6	-1	0	0	emerald_07s.jpg	0	0	0	248.826166024897	248.876142826397	0.0499768014997244
276992	50	251	0	0	cornhusk	414	251	0	stimuli\cornhusk\cornhusk_08s.jpg	7	-1	0	0	cornhusk_08s.jpg	0	0	0	248.926166926976	248.976131050382	0.0499641234055161
277092	50	252	0	0	boomerang	168	252	0	stimuli\boomerang\boomerang_11s.jpg	10	-1	0	0	boomerang_11s.jpg	0	0	0	249.026151981205	249.076148775406	0.0499967942014337
277192	50	253	0	0	thorn	1650	253	0	stimuli\thorn\thorn_02s.jpg	1	-1	0	0	thorn_02s.jpg	0	0	0	249.126155077945	249.176137486938	0.0499824089929461
277292	50	254	0	0	windowsill	1819	254	0	stimuli\windowsill\windowsill_06s.jpg	5	-1	0	0	windowsill_06s.jpg	0	0	0	249.226156711113	249.276137657464	0.0499809463508427
277392	50	255	0	0	tackle	1612	255	0	stimuli\tackle\tackle_09s.jpg	8	-1	0	0	tackle_09s.jpg	0	0	0	249.326157857198	249.376138803549	0.0499809463508427
277492	50	256	0	0	duffel_bag	529	256	0	stimuli\duffel_bag\duffel_bag_01b.jpg	0	-1	0	0	duffel_bag_01b.jpg	0	0	0	249.426160709932	249.476181396749	0.0500206868164241
277593	50	257	0	0	brush	205	257	0	stimuli\brush\brush_10s.jpg	9	-1	0	0	brush_10s.jpg	0	0	0	249.526171120349	249.5761520667	0.0499809463508427
277693	50	258	0	0	clipboard	355	258	0	stimuli\clipboard\clipboard_02s.jpg	1	-1	0	0	clipboard_02s.jpg	0	0	0	249.626172997523	249.67615906382	0.0499860662966967
277792	50	259	0	0	jetski	848	259	0	stimuli\jetski\jetski_03s.jpg	2	-1	0	0	jetski_03s.jpg	0	0	0	249.726173899602	249.776156065054	0.0499821654520929
277892	50	260	0	0	ostrich	1084	260	0	stimuli\ostrich\ostrich_12s.jpg	11	-1	0	0	ostrich_12s.jpg	0	0	0	249.826174070593	249.87615135964	0.0499772890470922
277993	50	261	0	0	cape	266	261	0	stimuli\cape\cape_05s.jpg	4	-1	0	0	cape_05s.jpg	0	0	0	249.926198134664	249.976178105455	0.0499799707904458
278093	50	262	0	0	cashew	281	262	0	stimuli\cashew\cashew_07s.jpg	6	-1	0	0	cashew_07s.jpg	0	0	0	250.02618660219	250.076165354345	0.0499787521548569
278193	50	263	0	0	ukulele	1742	263	0	stimuli\ukulele\ukulele_06s.jpg	5	-1	0	0	ukulele_06s.jpg	0	0	0	250.12618262833	250.176165281329	0.0499826529994607
278293	50	264	0	0	paper_towel	1115	264	0	stimuli\paper_towel\paper_towel_11s.jpg	10	-1	0	0	paper_towel_11s.jpg	0	0	0	250.226212299895	250.276171059348	0.0499587594531476
278393	50	265	0	0	lumber	949	265	0	stimuli\lumber\lumber_11s.jpg	10	-1	0	0	lumber_11s.jpg	0	0	0	250.326192721725	250.376187809277	0.0499950875528157
278493	50	266	0	0	locket	942	266	0	stimuli\locket\locket_11s.jpg	10	-1	0	0	locket_11s.jpg	0	0	0	250.426193380263	250.476196513046	0.0500031327828765
278593	50	267	0	0	gauge	663	267	0	stimuli\gauge\gauge_05s.jpg	4	-1	0	0	gauge_05s.jpg	0	0	0	250.526211836375	250.576193026733	0.0499811903573573
278693	50	268	0	0	rice	1309	268	0	stimuli\rice\rice_09s.jpg	8	-1	0	0	rice_09s.jpg	0	0	0	250.626215664204	250.67619856121	0.0499828970059752
278793	50	269	0	0	speedboat	1511	269	0	stimuli\speedboat\speedboat_10s.jpg	9	-1	0	0	speedboat_10s.jpg	0	0	0	250.726203644648	250.776198975742	0.0499953310936689
278893	50	270	0	0	dessert	481	270	0	stimuli\dessert\dessert_08s.jpg	7	-1	0	0	dessert_08s.jpg	0	0	0	250.826222100761	250.876185005531	0.0499629047699273
278993	50	271	0	0	aloe	14	271	0	stimuli\aloe\aloe_10s.jpg	9	-1	0	0	aloe_10s.jpg	0	0	0	250.926225685049	250.976188345347	0.0499626602977514
279093	50	272	0	0	train_car	1699	272	0	stimuli\train_car\train_car_01b.jpg	0	-1	0	0	train_car_01b.jpg	0	0	0	251.026224880479	251.076205338817	0.0499804583378136
279193	50	273	0	0	backgammon	48	273	0	stimuli\backgammon\backgammon_10s.jpg	9	-1	0	0	backgammon_10s.jpg	0	0	0	251.126229195856	251.17619795166	0.0499687558040023
279293	50	274	0	0	bone	161	274	0	stimuli\bone\bone_11s.jpg	10	-1	0	0	bone_11s.jpg	0	0	0	251.226234730333	251.276213970035	0.0499792397022247
279393	50	275	0	0	wheel	1806	275	0	stimuli\wheel\wheel_08s.jpg	7	-1	0	0	wheel_08s.jpg	0	0	0	251.32623319421	251.376214872114	0.0499816779047251
279493	50	276	0	0	golf_club	690	276	0	stimuli\golf_club\golf_club_01b.jpg	0	-1	0	0	golf_club_01b.jpg	0	0	0	251.42624116689	251.476204802748	0.0499636358581483
279593	50	277	0	0	wreck	1840	277	0	stimuli\wreck\wreck_07s.jpg	6	-1	0	0	wreck_07s.jpg	0	0	0	251.52621963853	251.576203266624	0.0499836280941963
279693	50	278	0	0	ham	739	278	0	stimuli\ham\ham_09s.jpg	8	-1	0	0	ham_09s.jpg	0	0	0	251.626227367204	251.676207094453	0.0499797272495925
279793	50	279	0	0	window	1818	279	0	stimuli\window\window_10s.jpg	9	-1	0	0	window_10s.jpg	0	0	0	251.726225099992	251.77622725768	0.0500021576881409
279893	50	280	0	0	dreidel	517	280	0	stimuli\dreidel\dreidel_04s.jpg	3	-1	0	0	dreidel_04s.jpg	0	0	0	251.826246725861	251.876212311909	0.0499655860476196
279993	50	281	0	0	dice	486	281	0	stimuli\dice\dice_05s.jpg	4	-1	0	0	dice_05s.jpg	0	0	0	251.926255429629	251.976234913338	0.0499794837087393
280093	50	282	0	0	food_processor	627	282	0	stimuli\food_processor\food_processor_06s.jpg	5	-1	0	0	food_processor_06s.jpg	0	0	0	252.026254381519	252.076245080214	0.0499906986951828
280193	50	283	0	0	puppy	1258	283	0	stimuli\puppy\puppy_07s.jpg	6	-1	0	0	puppy_07s.jpg	0	0	0	252.126255039591	252.176237205043	0.0499821654520929
280293	50	284	0	0	aluminum_foil	17	284	0	stimuli\aluminum_foil\aluminum_foil_08s.jpg	7	-1	0	0	aluminum_foil_08s.jpg	0	0	0	252.22625569813	252.276222015731	0.0499663176015019
280393	50	285	0	0	t-shirt	1606	285	0	stimuli\t-shirt\t-shirt_09s.jpg	8	-1	0	0	t-shirt_09s.jpg	0	0	0	252.326263182797	252.376223892905	0.0499607101082802
280493	50	286	0	0	letter_opener	919	286	0	stimuli\letter_opener\letter_opener_11s.jpg	10	-1	0	0	letter_opener_11s.jpg	0	0	0	252.426268229727	252.476246493869	0.0499782641418278
280593	50	287	0	0	porthole	1227	287	0	stimuli\porthole\porthole_09s.jpg	8	-1	0	0	porthole_09s.jpg	0	0	0	252.526247920468	252.576248615049	0.0500006945803761
280693	50	288	0	0	hoe	784	288	0	stimuli\hoe\hoe_08s.jpg	7	-1	0	0	hoe_08s.jpg	0	0	0	252.626270033885	252.676230499987	0.0499604661017656
280793	50	289	0	0	piggy_bank	1172	289	0	stimuli\piggy_bank\piggy_bank_12s.jpg	11	-1	0	0	piggy_bank_12s.jpg	0	0	0	252.726270935964	252.776227501221	0.0499565652571619
280893	50	290	0	0	wolf	1831	290	0	stimuli\wolf\wolf_03s.jpg	2	-1	0	0	wolf_03s.jpg	0	0	0	252.826249407604	252.876260830089	0.0500114224851131
280993	50	291	0	0	snowplow	1484	291	0	stimuli\snowplow\snowplow_11s.jpg	10	-1	0	0	snowplow_11s.jpg	0	0	0	252.926279323176	252.976257587317	0.0499782641418278
281093	50	292	0	0	eggshell	551	292	0	stimuli\eggshell\eggshell_03s.jpg	2	-1	0	0	eggshell_03s.jpg	0	0	0	253.026279249694	253.076259708498	0.0499804588034749
281193	50	293	0	0	cummerbund	459	293	0	stimuli\cummerbund\cummerbund_05s.jpg	4	-1	0	0	cummerbund_05s.jpg	0	0	0	253.126282346435	253.176267924719	0.0499855782836676
281293	50	294	0	0	bassoon	86	294	0	stimuli\bassoon\bassoon_10s.jpg	9	-1	0	0	bassoon_10s.jpg	0	0	0	253.226285686251	253.276265901513	0.0499802152626216
281393	50	295	0	0	filing_cabinet	585	295	0	stimuli\filing_cabinet\filing_cabinet_07s.jpg	6	-1	0	0	filing_cabinet_07s.jpg	0	0	0	253.326272203587	253.376276799478	0.0500045958906412
281493	50	296	0	0	chihuahua	326	296	0	stimuli\chihuahua\chihuahua_04s.jpg	3	-1	0	0	chihuahua_04s.jpg	0	0	0	253.42629261082	253.476270387415	0.04997777659446
281593	50	297	0	0	hotplate	806	297	0	stimuli\hotplate\hotplate_12s.jpg	11	-1	0	0	hotplate_12s.jpg	0	0	0	253.526291074697	253.576271289494	0.0499802147969604
281693	50	298	0	0	bagel	55	298	0	stimuli\bagel\bagel_06s.jpg	5	-1	0	0	bagel_06s.jpg	0	0	0	253.626281249337	253.676258781925	0.0499775325879455
281793	50	299	0	0	grater	708	299	0	stimuli\grater\grater_05s.jpg	4	-1	0	0	grater_05s.jpg	0	0	0	253.726289221551	253.776261634659	0.0499724131077528
281893	50	300	0	0	boot	169	300	0	stimuli\boot\boot_10s.jpg	9	-1	0	0	boot_10s.jpg	0	0	0	253.82628402859	253.876263755839	0.0499797272495925
281993	50	301	0	0	calamari	239	301	0	stimuli\calamari\calamari_07s.jpg	6	-1	0	0	calamari_07s.jpg	0	0	0	253.926283468027	253.9762897701	0.0500063020735979
282093	50	302	0	0	coil	384	302	0	stimuli\coil\coil_12s.jpg	11	-1	0	0	coil_12s.jpg	0	0	0	254.026292415801	254.076264584903	0.0499721691012383
282193	50	303	0	0	rocket	1320	303	0	stimuli\rocket\rocket_10s.jpg	9	-1	0	0	rocket_10s.jpg	0	0	0	254.126285515726	254.176272313576	0.049986797850579
282293	50	304	0	0	hole	785	304	0	stimuli\hole\hole_01b.jpg	0	-1	0	0	hole_01b.jpg	0	0	0	254.226289587561	254.276273215655	0.0499836280941963
282393	50	305	0	0	glasses	678	305	0	stimuli\glasses\glasses_12s.jpg	11	-1	0	0	glasses_12s.jpg	0	0	0	254.326280737296	254.376295816619	0.0500150793232024
282493	50	306	0	0	dishwashing_liquid	492	306	0	stimuli\dishwashing_liquid\dishwashing_liquid_10s.jpg	9	-1	0	0	dishwashing_liquid_10s.jpg	0	0	0	254.426315528806	254.476280627307	0.0499650985002518
282593	50	307	0	0	highlighter	778	307	0	stimuli\highlighter\highlighter_04s.jpg	3	-1	0	0	highlighter_04s.jpg	0	0	0	254.526323989034	254.576301034074	0.0499770450405777
282693	50	308	0	0	basketball_hoop	84	308	0	stimuli\basketball_hoop\basketball_hoop_11s.jpg	10	-1	0	0	basketball_hoop_11s.jpg	0	0	0	254.626303435769	254.676300717518	0.0499972817488015
302010	50	309	0	0	stretcher	1572	0	1	stimuli\stretcher\stretcher_07s.jpg	6	-1	1	0	stretcher_07s.jpg	1	0	0	273.943478376139	273.99345932249	0.0499809463508427
302110	50	310	0	0	scarf	1377	1	1	stimuli\scarf\scarf_12s.jpg	11	-1	1	0	scarf_12s.jpg	0	0	0	274.043494638056	274.093479485717	0.0499848476611078
302210	50	311	0	0	canvas	264	2	1	stimuli\canvas\canvas_08s.jpg	7	-1	1	0	canvas_08s.jpg	0	0	0	274.143498465884	274.193479899783	0.0499814338982105
302310	50	312	0	0	nest	1056	3	1	stimuli\nest\nest_03s.jpg	2	-1	1	0	nest_03s.jpg	0	0	0	274.243500343524	274.293480314314	0.0499799707904458
302410	50	313	0	0	chime	328	4	1	stimuli\chime\chime_05s.jpg	4	-1	1	0	chime_05s.jpg	0	0	0	274.343505633995	274.393484873697	0.0499792397022247
302510	50	314	0	0	honeypot	790	5	1	stimuli\honeypot\honeypot_05s.jpg	4	-1	1	0	honeypot_05s.jpg	0	0	0	274.44348800648	274.493489189073	0.0500011825934052
302610	50	315	0	0	quiche	1262	6	1	stimuli\quiche\quiche_11s.jpg	10	-1	1	0	quiche_11s.jpg	0	0	0	274.543467209674	274.59349350445	0.0500262947753072
302710	50	316	0	0	bologna	158	7	1	stimuli\bologna\bologna_06s.jpg	5	-1	1	0	bologna_06s.jpg	0	0	0	274.643514679279	274.693491724785	0.0499770455062389
302810	50	317	0	0	rag	1276	8	1	stimuli\rag\rag_04s.jpg	3	-1	1	0	rag_04s.jpg	0	0	0	274.743513143621	274.793466783129	0.0499536395072937
302910	50	318	0	0	tamale	1618	9	1	stimuli\tamale\tamale_05s.jpg	4	-1	1	0	tamale_05s.jpg	0	0	0	274.843516239896	274.893503768835	0.0499875289388001
303010	50	319	0	0	tile	1660	10	1	stimuli\tile\tile_03s.jpg	2	-1	1	0	tile_03s.jpg	0	0	0	274.943519823719	274.993498819415	0.0499789956957102
303110	50	320	0	0	cordon_bleu	408	11	1	stimuli\cordon_bleu\cordon_bleu_08s.jpg	7	-1	1	0	cordon_bleu_08s.jpg	0	0	0	275.043515118305	275.093505572993	0.0499904546886683
303210	50	321	0	0	knitting	880	12	1	stimuli\knitting\knitting_09s.jpg	8	-1	1	0	knitting_09s.jpg	0	0	0	275.143513094634	275.193512083031	0.0499989883974195
303310	50	322	0	0	skeleton	1450	13	1	stimuli\skeleton\skeleton_09s.jpg	8	-1	1	0	skeleton_09s.jpg	0	0	0	275.243525943253	275.293507865164	0.0499819219112396
303410	50	323	0	0	fig	581	14	1	stimuli\fig\fig_05s.jpg	4	-1	1	0	fig_05s.jpg	0	0	0	275.343535379041	275.393516812939	0.0499814338982105
303510	50	324	0	0	stove1	1563	15	1	stimuli\stove1\stove1_02s.jpg	1	-1	1	0	stove1_02s.jpg	0	0	0	275.44353237981	275.49351308262	0.0499807028099895
303610	50	325	0	0	sombrero	1495	16	1	stimuli\sombrero\sombrero_01b.jpg	0	-1	1	0	sombrero_01b.jpg	0	0	0	275.543539620936	275.593517397996	0.0499777770601213
303710	50	326	0	0	home_plate	787	17	1	stimuli\home_plate\home_plate_03s.jpg	2	-1	1	0	home_plate_03s.jpg	0	0	0	275.643508340232	275.693488555029	0.0499802147969604
303810	50	327	0	0	fountain_pen	637	18	1	stimuli\fountain_pen\fountain_pen_04s.jpg	3	-1	1	0	fountain_pen_04s.jpg	0	0	0	275.743539230898	275.793522615451	0.0499833845533431
303910	50	328	0	0	ramp	1283	19	1	stimuli\ramp\ramp_08s.jpg	7	-1	1	0	ramp_08s.jpg	0	0	0	275.843540620524	275.893523761537	0.0499831410124898
304010	50	329	0	0	thread	1651	20	1	stimuli\thread\thread_08s.jpg	7	-1	1	0	thread_08s.jpg	0	0	0	275.943545911461	275.993525882252	0.0499799707904458
304110	50	330	0	0	desk	480	21	1	stimuli\desk\desk_05s.jpg	4	-1	1	0	desk_05s.jpg	0	0	0	276.043530478142	276.09353263583	0.0500021576881409
304210	50	331	0	0	plum	1203	22	1	stimuli\plum\plum_02s.jpg	1	-1	1	0	plum_02s.jpg	0	0	0	276.143551616464	276.193534757011	0.0499831405468285
304310	50	332	0	0	saxophone	1368	23	1	stimuli\saxophone\saxophone_12s.jpg	11	-1	1	0	saxophone_12s.jpg	0	0	0	276.243550568353	276.293521518353	0.0499709499999881
304410	50	333	0	0	sink	1447	24	1	stimuli\sink\sink_05s.jpg	4	-1	1	0	sink_05s.jpg	0	0	0	276.343556590378	276.393539486919	0.049982896540314
304510	50	334	0	0	helicopter	775	25	1	stimuli\helicopter\helicopter_08s.jpg	7	-1	1	0	helicopter_08s.jpg	0	0	0	276.44355700491	276.493546240497	0.0499892355874181
304610	50	335	0	0	lightning_bug	929	26	1	stimuli\lightning_bug\lightning_bug_06s.jpg	5	-1	1	0	lightning_bug_06s.jpg	0	0	0	276.543560344726	276.593543729279	0.0499833845533431
304710	50	336	0	0	leech	909	27	1	stimuli\leech\leech_11s.jpg	10	-1	1	0	leech_11s.jpg	0	0	0	276.643545886967	276.693545606453	0.0499997194856405
304810	50	337	0	0	rhubarb	1307	28	1	stimuli\rhubarb\rhubarb_12s.jpg	11	-1	1	0	rhubarb_12s.jpg	0	0	0	276.743568488397	276.793534074444	0.0499655860476196
304910	50	338	0	0	ice_cream	818	29	1	stimuli\ice_cream\ice_cream_10s.jpg	9	-1	1	0	ice_cream_10s.jpg	0	0	0	276.843569390476	276.89355009282	0.0499807023443282
305010	50	339	0	0	broccoli	201	30	1	stimuli\broccoli\broccoli_07s.jpg	6	-1	1	0	broccoli_07s.jpg	0	0	0	276.943569561001	276.993552457541	0.049982896540314
305110	50	340	0	0	harp	755	31	1	stimuli\harp\harp_08s.jpg	7	-1	1	0	harp_08s.jpg	0	0	0	277.043576558121	277.093542144634	0.0499655865132809
305210	50	341	0	0	laundry_basket	902	32	1	stimuli\laundry_basket\laundry_basket_05s.jpg	4	-1	1	0	laundry_basket_05s.jpg	0	0	0	277.143579898402	277.193543046713	0.0499631483107805
305310	50	342	0	0	chicken_wire	324	33	1	stimuli\chicken_wire\chicken_wire_07s.jpg	6	-1	1	0	chicken_wire_07s.jpg	0	0	0	277.243582263589	277.293563697487	0.0499814338982105
305410	50	343	0	0	faucet	573	34	1	stimuli\faucet\faucet_03s.jpg	2	-1	1	0	faucet_03s.jpg	0	0	0	277.343587798066	277.393562892918	0.0499750948511064
305510	50	344	0	0	crowbar	447	35	1	stimuli\crowbar\crowbar_08s.jpg	7	-1	1	0	crowbar_08s.jpg	0	0	0	277.44356895145	277.493566232733	0.0499972812831402
305610	50	345	0	0	walrus	1779	36	1	stimuli\walrus\walrus_11s.jpg	10	-1	1	0	walrus_11s.jpg	0	0	0	277.543586676475	277.593571279664	0.0499846031889319
305710	50	346	0	0	bug	212	37	1	stimuli\bug\bug_08s.jpg	7	-1	1	0	bug_08s.jpg	0	0	0	277.643590260297	277.693571694195	0.0499814338982105
305810	50	347	0	0	chips	335	38	1	stimuli\chips\chips_03s.jpg	2	-1	1	0	chips_03s.jpg	0	0	0	277.74359774543	277.793575522024	0.04997777659446
305910	50	348	0	0	coffeemaker	382	39	1	stimuli\coffeemaker\coffeemaker_09s.jpg	8	-1	1	0	coffeemaker_09s.jpg	0	0	0	277.843583287206	277.893583007157	0.0499997199513018
306010	50	349	0	0	stereo	1549	40	1	stimuli\stereo\stereo_10s.jpg	9	-1	1	0	stereo_10s.jpg	0	0	0	277.94359808648	277.993579032831	0.0499809463508427
306110	50	350	0	0	gingerbread_man	674	41	1	stimuli\gingerbread_man\gingerbread_man_10s.jpg	9	-1	1	0	gingerbread_man_10s.jpg	0	0	0	278.043600451667	278.093581641559	0.049981189891696
306210	50	351	0	0	marmalade	976	42	1	stimuli\marmalade\marmalade_03s.jpg	2	-1	1	0	marmalade_03s.jpg	0	0	0	278.143604279496	278.19358498184	0.0499807023443282
306310	50	352	0	0	cloak	358	43	1	stimuli\cloak\cloak_10s.jpg	9	-1	1	0	cloak_10s.jpg	0	0	0	278.24360615667	278.293588078115	0.0499819214455783
306410	50	353	0	0	key	869	44	1	stimuli\key\key_03s.jpg	2	-1	1	0	key_03s.jpg	0	0	0	278.343612666242	278.393588980194	0.0499763139523566
306510	50	354	0	0	car_seat	269	45	1	stimuli\car_seat\car_seat_03s.jpg	2	-1	1	0	car_seat_03s.jpg	0	0	0	278.443609667476	278.493590857834	0.0499811903573573
306610	50	355	0	0	diamond	484	46	1	stimuli\diamond\diamond_04s.jpg	3	-1	1	0	diamond_04s.jpg	0	0	0	278.543616908602	278.59357737517	0.0499604665674269
306710	50	356	0	0	breathalyzer	198	47	1	stimuli\breathalyzer\breathalyzer_09s.jpg	8	-1	1	0	breathalyzer_09s.jpg	0	0	0	278.643596843351	278.693581690546	0.0499848471954465
306810	50	357	0	0	carrot	277	48	1	stimuli\carrot\carrot_02s.jpg	1	-1	1	0	carrot_02s.jpg	0	0	0	278.74360384047	278.79358941922	0.0499855787493289
306910	50	358	0	0	oatmeal	1069	49	1	stimuli\oatmeal\oatmeal_02s.jpg	1	-1	1	1	oatmeal_02s.jpg	0	0	0	278.843613275792	278.893585201353	0.049971925560385
307010	50	359	0	0	sweeper	1594	50	1	stimuli\sweeper\sweeper_02s.jpg	1	-1	1	0	sweeper_02s.jpg	0	0	0	278.943604181986	278.993587078527	0.049982896540314
307110	50	360	0	0	chair	300	51	1	stimuli\chair\chair_01b.jpg	0	-1	1	0	chair_01b.jpg	0	0	0	279.043607034255	279.093597245403	0.049990211147815
307210	50	361	0	0	piano	1165	52	1	stimuli\piano\piano_10n.jpg	9	-1	1	0	piano_10n.jpg	1	0.30018117511645	1	279.143614763394	279.193591564894	0.0499768014997244
307310	50	362	0	0	motorcycle	1025	53	1	stimuli\motorcycle\motorcycle_05s.jpg	4	-1	1	0	motorcycle_05s.jpg	0	0	0	279.243615665473	279.293595148716	0.049979483243078
307410	50	363	0	0	bracelet1	187	54	1	stimuli\bracelet1\bracelet1_02s.jpg	1	-1	1	0	bracelet1_02s.jpg	0	0	0	279.343610959593	279.393601170741	0.049990211147815
307510	50	364	0	0	hyena	815	55	1	stimuli\hyena\hyena_01b.jpg	0	-1	1	0	hyena_01b.jpg	0	0	0	279.443640387617	279.493621333968	0.0499809463508427
307610	50	365	0	0	branch	192	56	1	stimuli\branch\branch_01b.jpg	0	-1	1	0	branch_01b.jpg	0	0	0	279.543642508797	279.593611508142	0.0499689993448555
307710	50	366	0	0	pet_food	1157	57	1	stimuli\pet_food\pet_food_07s.jpg	6	-1	1	0	pet_food_07s.jpg	0	0	0	279.643631707877	279.693626063876	0.0499943559989333
307810	50	367	0	0	outfit	1087	58	1	stimuli\outfit\outfit_08s.jpg	7	-1	1	0	outfit_08s.jpg	0	0	0	279.743645775598	279.793627697509	0.0499819219112396
307910	50	368	0	0	lawnmower	905	59	1	stimuli\lawnmower\lawnmower_11n.jpg	10	-1	1	0	lawnmower_11n.jpg	0	0	0	279.84364740923	279.893613239285	0.0499658300541341
308010	50	369	0	0	hockey_stick	783	60	1	stimuli\hockey_stick\hockey_stick_08s.jpg	7	-1	1	0	hockey_stick_08s.jpg	0	0	0	279.943650505506	279.993617067114	0.0499665616080165
308110	50	370	0	0	airbag	7	61	1	stimuli\airbag\airbag_12s.jpg	11	-1	1	0	airbag_12s.jpg	0	0	0	280.043653845787	280.093622845598	0.0499689998105168
308210	50	371	0	0	plug	1202	62	1	stimuli\plug\plug_03s.jpg	2	-1	1	0	plug_03s.jpg	0	0	0	280.143655966967	280.19362057792	0.049964610952884
308310	50	372	0	0	breakfast	197	63	1	stimuli\breakfast\breakfast_01b.jpg	0	-1	1	0	breakfast_01b.jpg	0	0	0	280.243662232999	280.293644885998	0.0499826529994607
308410	50	373	0	0	lavender	904	64	1	stimuli\lavender\lavender_01b.jpg	0	-1	1	0	lavender_01b.jpg	0	0	0	280.34364777524	280.393642130774	0.049994355533272
308510	50	374	0	0	moccasin	1010	65	1	stimuli\moccasin\moccasin_09s.jpg	8	-1	1	0	moccasin_09s.jpg	0	0	0	280.44364892086	280.493645471055	0.0499965501949191
308610	50	375	0	0	crank	432	66	1	stimuli\crank\crank_12s.jpg	11	-1	1	0	crank_12s.jpg	0	0	0	280.543666645885	280.593632719945	0.0499660740606487
308710	50	376	0	0	mulberry	1037	67	1	stimuli\mulberry\mulberry_02s.jpg	1	-1	1	0	mulberry_02s.jpg	0	0	0	280.643653894775	280.693631671369	0.04997777659446
308810	50	377	0	0	fossil	636	68	1	stimuli\fossil\fossil_07s.jpg	6	-1	1	0	fossil_07s.jpg	0	0	0	280.743656503502	280.793637449853	0.0499809463508427
308910	50	378	0	0	coaster	368	69	1	stimuli\coaster\coaster_06s.jpg	5	-1	1	0	coaster_06s.jpg	0	0	0	280.843663500622	280.893659075722	0.0499955751001835
309010	50	379	0	0	panther	1106	70	1	stimuli\panther\panther_03s.jpg	2	-1	1	0	panther_03s.jpg	0	0	0	280.9436631836	280.993646568153	0.0499833845533431
309110	50	380	0	0	paper_bag	1113	71	1	stimuli\paper_bag\paper_bag_03s.jpg	2	-1	1	0	paper_bag_03s.jpg	0	0	0	281.043679689523	281.093664536718	0.0499848471954465
309210	50	381	0	0	ladder	886	72	1	stimuli\ladder\ladder_09s.jpg	8	-1	1	0	ladder_09s.jpg	0	0	0	281.143682542257	281.19366300106	0.0499804588034749
309310	50	382	0	0	ferris_wheel	579	73	1	stimuli\ferris_wheel\ferris_wheel_08s.jpg	7	-1	1	0	ferris_wheel_08s.jpg	0	0	0	281.24368320033	281.293665609788	0.0499824094586074
309410	50	383	0	0	poodle	1221	74	1	stimuli\poodle\poodle_04s.jpg	3	-1	1	0	poodle_04s.jpg	0	0	0	281.343688734807	281.393671144266	0.0499824094586074
309510	50	384	0	0	llama	938	75	1	stimuli\llama\llama_06s.jpg	5	-1	1	0	llama_06s.jpg	0	0	0	281.443688905798	281.493673021439	0.0499841156415641
309610	50	385	0	0	scraper	1387	76	1	stimuli\scraper\scraper_08s.jpg	7	-1	1	0	scraper_08s.jpg	0	0	0	281.543696878478	281.593673679978	0.0499768014997244
309710	50	386	0	0	dial	483	77	1	stimuli\dial\dial_10s.jpg	9	-1	1	0	dial_10s.jpg	0	0	0	281.643697292544	281.693677019794	0.0499797272495925
309810	50	387	0	0	trombone	1716	78	1	stimuli\trombone\trombone_09s.jpg	8	-1	1	0	trombone_09s.jpg	0	0	0	281.743699901272	281.793676946778	0.0499770455062389
309910	50	388	0	0	dresser	519	79	1	stimuli\dresser\dresser_08s.jpg	7	-1	1	0	dresser_08s.jpg	0	0	0	281.843702510465	281.893664195668	0.0499616852030158
310010	50	389	0	0	anvil	28	80	1	stimuli\anvil\anvil_01b.jpg	0	-1	1	0	anvil_01b.jpg	0	0	0	281.94370268099	281.993690697476	0.0499880164861679
310110	50	390	0	0	watch	1786	81	1	stimuli\watch\watch_04s.jpg	3	-1	1	0	watch_04s.jpg	0	0	0	282.043711141217	282.093671607319	0.0499604661017656
310210	50	391	0	0	cigarette_holder	346	82	1	stimuli\cigarette_holder\cigarette_holder_10s.jpg	9	-1	1	0	cigarette_holder_10s.jpg	0	0	0	282.143713018391	282.193690551445	0.0499775330536067
310310	50	392	0	0	meatloaf	990	83	1	stimuli\meatloaf\meatloaf_07s.jpg	6	-1	1	0	meatloaf_07s.jpg	0	0	0	282.243694903329	282.293691941071	0.0499970377422869
310410	50	393	0	0	fly	621	84	1	stimuli\fly\fly_04s.jpg	3	-1	1	0	fly_04s.jpg	0	0	0	282.343715554103	282.393681140151	0.0499655860476196
310510	50	394	0	0	appetizer	29	85	1	stimuli\appetizer\appetizer_09s.jpg	8	-1	1	0	appetizer_09s.jpg	0	0	0	282.443715968635	282.493699596729	0.0499836280941963
310610	50	395	0	0	fork	634	86	1	stimuli\fork\fork_09s.jpg	8	-1	1	0	fork_09s.jpg	0	0	0	282.543718089815	282.593705618754	0.0499875289388001
310710	50	396	0	0	flypaper	622	87	1	stimuli\flypaper\flypaper_09s.jpg	8	-1	1	0	flypaper_09s.jpg	0	0	0	282.643705582246	282.693681896199	0.0499763139523566
310810	50	397	0	0	container	398	88	1	stimuli\container\container_03s.jpg	2	-1	1	0	container_03s.jpg	0	0	0	282.743705021683	282.793683285825	0.0499782641418278
310910	50	398	0	0	fondue	626	89	1	stimuli\fondue\fondue_06s.jpg	5	-1	1	0	fondue_06s.jpg	0	0	0	282.843702510465	282.893688820302	0.0499863098375499
311010	50	399	0	0	licorice	922	90	1	stimuli\licorice\licorice_10s.jpg	9	-1	1	0	licorice_10s.jpg	0	0	0	282.94371145824	282.993682651781	0.0499711935408413
311110	50	400	0	0	baseball_glove	80	91	1	stimuli\baseball_glove\baseball_glove_09s.jpg	8	-1	1	0	baseball_glove_09s.jpg	0	0	0	283.043711141217	283.093699645717	0.049988504499197
311210	50	401	0	0	wheelchair	1808	92	1	stimuli\wheelchair\wheelchair_03n.jpg	2	-1	1	0	wheelchair_03n.jpg	0	0	0	283.143723258283	283.193698109593	0.0499748513102531
311310	50	402	0	0	drawer	516	93	1	stimuli\drawer\drawer_06s.jpg	5	-1	1	0	drawer_06s.jpg	0	0	0	283.243735375814	283.293720467016	0.049985091201961
311410	50	403	0	0	trophy	1717	94	1	stimuli\trophy\trophy_06s.jpg	5	-1	1	0	trophy_06s.jpg	0	0	0	283.343741397839	283.39372234419	0.0499809463508427
311510	50	404	0	0	lamb	889	95	1	stimuli\lamb\lamb_11s.jpg	10	-1	1	0	lamb_11s.jpg	0	0	0	283.443742787465	283.493724952918	0.0499821654520929
311610	50	405	0	0	mouse1	1026	96	1	stimuli\mouse1\mouse1_01b.jpg	0	-1	1	0	mouse1_01b.jpg	0	0	0	283.543749541044	283.593729268294	0.0499797272495925
311710	50	406	0	0	tarp	1628	97	1	stimuli\tarp\tarp_10s.jpg	9	-1	1	0	tarp_10s.jpg	0	0	0	283.643751906231	283.693717248738	0.0499653425067663
311810	50	407	0	0	groundhog	718	98	1	stimuli\groundhog\groundhog_04s.jpg	3	-1	1	0	groundhog_04s.jpg	0	0	0	283.74374988256	283.793733023107	0.0499831405468285
311910	50	408	0	0	sheet	1415	99	1	stimuli\sheet\sheet_05s.jpg	4	-1	1	0	sheet_05s.jpg	0	0	0	283.843752734829	283.893733925186	0.0499811903573573
312010	50	409	0	0	camcorder	244	100	1	stimuli\camcorder\camcorder_07s.jpg	6	-1	1	0	camcorder_07s.jpg	0	0	0	283.943759488408	283.993721174076	0.0499616856686771
312110	50	410	0	0	coop	404	101	1	stimuli\coop\coop_10s.jpg	9	-1	1	0	coop_10s.jpg	0	0	0	284.043763560243	284.093725732993	0.0499621727503836
312210	50	411	0	0	tape_measure	1623	102	1	stimuli\tape_measure\tape_measure_08s.jpg	7	-1	1	0	tape_measure_08s.jpg	0	0	0	284.143762999214	284.193743458018	0.0499804588034749
312310	50	412	0	0	knot	883	103	1	stimuli\knot\knot_12s.jpg	11	-1	1	0	knot_12s.jpg	0	0	0	284.243767802604	284.293768497184	0.0500006945803761
312410	50	413	0	0	visor	1766	104	1	stimuli\visor\visor_01b.jpg	0	-1	1	0	visor_01b.jpg	0	0	0	284.343770654872	284.393747212831	0.0499765579588711
312510	50	414	0	0	dogfood	496	105	1	stimuli\dogfood\dogfood_01b.jpg	0	-1	1	0	dogfood_01b.jpg	0	0	0	284.443757416215	284.493734461255	0.0499770450405777
312610	50	415	0	0	parking_meter	1120	106	1	stimuli\parking_meter\parking_meter_05s.jpg	4	-1	1	0	parking_meter_05s.jpg	0	0	0	284.54377636034	284.593754380941	0.0499780206009746
312710	50	416	0	0	whiteboard	1813	107	1	stimuli\whiteboard\whiteboard_02s.jpg	1	-1	1	0	whiteboard_02s.jpg	0	0	0	284.643756294623	284.693732364569	0.049976069945842
312810	50	417	0	0	ratchet	1286	108	1	stimuli\ratchet\ratchet_02s.jpg	1	-1	1	0	ratchet_02s.jpg	0	0	0	284.743759634905	284.793758622836	0.0499989879317582
312910	50	418	0	0	root	1331	109	1	stimuli\root\root_12s.jpg	11	-1	1	0	root_12s.jpg	0	0	0	284.843778335024	284.893764888868	0.0499865538440645
313010	50	419	0	0	radiator	1272	110	1	stimuli\radiator\radiator_09s.jpg	8	-1	1	0	radiator_09s.jpg	0	0	0	284.943768021651	284.993761402555	0.0499933809041977
313110	50	420	0	0	pogo_stick	1208	111	1	stimuli\pogo_stick\pogo_stick_09s.jpg	8	-1	1	0	pogo_stick_09s.jpg	0	0	0	285.043769655284	285.093766693026	0.0499970377422869
313210	50	421	0	0	gift	672	112	1	stimuli\gift\gift_02s.jpg	1	-1	1	0	gift_02s.jpg	0	0	0	285.143790793605	285.193749309517	0.0499585159122944
313310	50	422	0	0	shower_curtain	1435	113	1	stimuli\shower_curtain\shower_curtain_09s.jpg	8	-1	1	0	shower_curtain_09s.jpg	0	0	0	285.243780236691	285.293775323778	0.0499950870871544
313410	50	423	0	0	eagle	537	114	1	stimuli\eagle\eagle_09s.jpg	8	-1	1	0	eagle_09s.jpg	0	0	0	285.343782357872	285.393771837465	0.0499894795939326
313510	50	424	0	0	sim_card	1446	115	1	stimuli\sim_card\sim_card_07s.jpg	6	-1	1	0	sim_card_07s.jpg	0	0	0	285.44379496295	285.493764937855	0.0499699749052525
313610	50	425	0	0	ball	59	116	1	stimuli\ball\ball_11s.jpg	10	-1	1	0	ball_11s.jpg	0	0	0	285.54379610857	285.593773641624	0.0499775330536067
313710	50	426	0	0	fire_hydrant	592	117	1	stimuli\fire_hydrant\fire_hydrant_01b.jpg	0	-1	1	0	fire_hydrant_01b.jpg	0	0	0	285.643795304	285.693776737899	0.0499814338982105
313810	50	427	0	0	cable	234	118	1	stimuli\cable\cable_01b.jpg	0	-1	1	0	cable_01b.jpg	0	0	0	285.743798644282	285.793784223031	0.0499855787493289
313910	50	428	0	0	coconut	375	119	1	stimuli\coconut\coconut_02s.jpg	1	-1	1	0	coconut_02s.jpg	0	0	0	285.843809298705	285.893784150016	0.0499748513102531
314010	50	429	0	0	necklace	1054	120	1	stimuli\necklace\necklace_08s.jpg	7	-1	1	0	necklace_08s.jpg	0	0	0	285.943807031494	285.993794560432	0.0499875289388001
314110	50	430	0	0	cotton_candy	421	121	1	stimuli\cotton_candy\cotton_candy_04s.jpg	3	-1	1	0	cotton_candy_04s.jpg	0	0	0	286.043786722235	286.093766205478	0.049979483243078
314210	50	431	0	0	sidecar	1442	122	1	stimuli\sidecar\sidecar_08s.jpg	7	-1	1	0	sidecar_08s.jpg	0	0	0	286.143788599409	286.193769301753	0.0499807023443282
314310	50	432	0	0	fingerprint	589	123	1	stimuli\fingerprint\fingerprint_03s.jpg	2	-1	1	0	fingerprint_03s.jpg	0	0	0	286.243792427238	286.293771910481	0.049979483243078
314410	50	433	0	0	binoculars	127	124	1	stimuli\binoculars\binoculars_02s.jpg	1	-1	1	0	binoculars_02s.jpg	0	0	0	286.343793816864	286.393775007222	0.0499811903573573
314510	50	434	0	0	juicer1	855	125	1	stimuli\juicer1\juicer1_12s.jpg	11	-1	1	0	juicer1_12s.jpg	0	0	0	286.443796425592	286.493782248348	0.0499858227558434
314610	50	435	0	0	noisemaker	1060	126	1	stimuli\noisemaker\noisemaker_09s.jpg	8	-1	1	0	noisemaker_09s.jpg	0	0	0	286.543826828711	286.593803386204	0.0499765574932098
314710	50	436	0	0	shutter	1440	127	1	stimuli\shutter\shutter_01b.jpg	0	-1	1	0	shutter_01b.jpg	0	0	0	286.643827974796	286.693807702046	0.0499797272495925
314810	50	437	0	0	garbage_truck	656	128	1	stimuli\garbage_truck\garbage_truck_01b.jpg	0	-1	1	0	garbage_truck_01b.jpg	0	0	0	286.743805470876	286.793801777065	0.0499963061884046
314910	50	438	0	0	bungee	221	129	1	stimuli\bungee\bungee_07s.jpg	6	-1	1	0	bungee_07s.jpg	0	0	0	286.843819295056	286.893813894596	0.0499945995397866
315010	50	439	0	0	tack	1611	130	1	stimuli\tack\tack_05s.jpg	4	-1	1	0	tack_05s.jpg	0	0	0	286.943839214277	286.993806750979	0.0499675367027521
315110	50	440	0	0	nail	1046	131	1	stimuli\nail\nail_12s.jpg	11	-1	1	0	nail_12s.jpg	0	0	0	287.043810371775	287.09379716916	0.0499867973849177
315210	50	441	0	0	satellite_dish	1361	132	1	stimuli\satellite_dish\satellite_dish_03s.jpg	2	-1	1	0	satellite_dish_03s.jpg	0	0	0	287.143818587996	287.193801728543	0.0499831405468285
315310	50	442	0	0	gutter	729	133	1	stimuli\gutter\gutter_12s.jpg	11	-1	1	0	gutter_12s.jpg	0	0	0	287.243825829122	287.293806043919	0.0499802147969604
315410	50	443	0	0	drink	521	134	1	stimuli\drink\drink_09s.jpg	8	-1	1	0	drink_09s.jpg	0	0	0	287.343820148148	287.393806945998	0.049986797850579
315510	50	444	0	0	shortbread	1429	135	1	stimuli\shortbread\shortbread_10s.jpg	9	-1	1	0	shortbread_10s.jpg	0	0	0	287.443819831591	287.493806628976	0.0499867973849177
315610	50	445	0	0	doily	498	136	1	stimuli\doily\doily_12s.jpg	11	-1	1	0	doily_12s.jpg	0	0	0	287.543830486014	287.593808994163	0.0499785081483424
315710	50	446	0	0	shield	1420	137	1	stimuli\shield\shield_09s.jpg	8	-1	1	0	shield_09s.jpg	0	0	0	287.643836264033	287.693828669377	0.0499924053438008
315810	50	447	0	0	pony	1220	138	1	stimuli\pony\pony_08s.jpg	7	-1	1	0	pony_08s.jpg	0	0	0	287.743878857698	287.793828840367	0.0499499826692045
315910	50	448	0	0	skunk	1459	139	1	stimuli\skunk\skunk_10s.jpg	9	-1	1	0	skunk_10s.jpg	0	0	0	287.843848552089	287.893845589831	0.0499970377422869
316010	50	449	0	0	oven	1089	140	1	stimuli\oven\oven_09s.jpg	8	-1	1	0	oven_09s.jpg	0	0	0	287.943867983762	287.993846735917	0.0499787521548569
316110	50	450	0	0	patty	1126	141	1	stimuli\patty\patty_08s.jpg	7	-1	1	0	patty_08s.jpg	0	0	0	288.043870348483	288.093851538841	0.0499811903573573
316210	50	451	0	0	mailbox	960	142	1	stimuli\mailbox\mailbox_03s.jpg	2	-1	1	0	mailbox_03s.jpg	0	0	0	288.143871007022	288.193835130427	0.0499641234055161
316310	50	452	0	0	scallop	1373	143	1	stimuli\scallop\scallop_11s.jpg	10	-1	1	0	scallop_11s.jpg	0	0	0	288.243868008256	288.293859194499	0.0499911862425506
316410	50	453	0	0	boxing_gloves	183	144	1	stimuli\boxing_gloves\boxing_gloves_02s.jpg	1	-1	1	0	boxing_gloves_02s.jpg	0	0	0	288.34385818243	288.393835227937	0.0499770455062389
316510	50	454	0	0	dumbbell	530	145	1	stimuli\dumbbell\dumbbell_12s.jpg	11	-1	1	0	dumbbell_12s.jpg	0	0	0	288.443855671212	288.493835642468	0.0499799712561071
316610	50	455	0	0	strap	1567	146	1	stimuli\strap\strap_04s.jpg	3	-1	1	0	strap_04s.jpg	0	0	0	288.543885099236	288.593845321797	0.0499602225609124
316710	50	456	0	0	sled	1460	147	1	stimuli\sled\sled_02s.jpg	1	-1	1	0	sled_02s.jpg	0	0	0	288.643883563112	288.693866947666	0.0499833845533431
316810	50	457	0	0	sugar_cube	1579	148	1	stimuli\sugar_cube\sugar_cube_05s.jpg	4	-1	1	0	sugar_cube_05s.jpg	0	0	0	288.743888854049	288.793873457238	0.0499846031889319
316910	50	458	0	0	gazelle	666	149	1	stimuli\gazelle\gazelle_09s.jpg	8	-1	1	0	gazelle_09s.jpg	0	0	0	288.843867081683	288.893842908088	0.0499758264049888
317010	50	459	0	0	koala	884	150	1	stimuli\koala\koala_06s.jpg	5	-1	1	0	koala_06s.jpg	0	0	0	288.943863838911	288.993845516816	0.0499816779047251
317110	50	460	0	0	tie	1658	151	1	stimuli\tie\tie_11s.jpg	10	-1	1	0	tie_11s.jpg	0	0	0	289.043868154287	289.093853489496	0.0499853352084756
317210	50	461	0	0	goalpost	683	152	1	stimuli\goalpost\goalpost_06s.jpg	5	-1	1	0	goalpost_06s.jpg	0	0	0	289.143881978467	289.193863168359	0.049981189891696
317310	50	462	0	0	coal	367	153	1	stimuli\coal\coal_05s.jpg	4	-1	1	0	coal_05s.jpg	0	0	0	289.243884587195	289.29388430668	0.0499997194856405
317410	50	463	0	0	hook1	793	154	1	stimuli\hook1\hook1_07s.jpg	6	-1	1	1	hook1_07s.jpg	0	0	0	289.343901337124	289.393869117368	0.0499677802436054
317510	50	464	0	0	cereal	297	155	1	stimuli\cereal\cereal_07s.jpg	6	-1	1	0	cereal_07s.jpg	0	0	0	289.443914429285	289.493875870947	0.0499614416621625
317610	50	465	0	0	unicycle	1746	156	1	stimuli\unicycle\unicycle_04s.jpg	3	-1	1	0	unicycle_04s.jpg	0	0	0	289.543884611689	289.593864094932	0.049979483243078
317710	50	466	0	0	soup	1499	157	1	stimuli\soup\soup_07s.jpg	6	-1	1	0	soup_07s.jpg	1	0.352049450390041	1	289.643890633713	289.693864021916	0.0499733882024884
317810	50	467	0	0	clothesline	362	158	1	stimuli\clothesline\clothesline_03s.jpg	2	-1	1	0	clothesline_03s.jpg	0	0	0	289.743890804239	289.793871019036	0.0499802147969604
317910	50	468	0	0	magnet	956	159	1	stimuli\magnet\magnet_12s.jpg	11	-1	1	0	magnet_12s.jpg	0	0	0	289.843892193865	289.893874603324	0.0499824094586074
318010	50	469	0	0	headband	762	160	1	stimuli\headband\headband_06s.jpg	5	-1	1	0	headband_06s.jpg	0	0	0	289.943890414201	289.993868922349	0.0499785081483424
318110	50	470	0	0	shark	1409	161	1	stimuli\shark\shark_12s.jpg	11	-1	1	0	shark_12s.jpg	0	0	0	290.043899605982	290.09387811413	0.0499785081483424
318210	50	471	0	0	wing	1827	162	1	stimuli\wing\wing_01b.jpg	0	-1	1	0	wing_01b.jpg	0	0	0	290.14389928896	290.193879747763	0.0499804588034749
318310	50	472	0	0	flamethrower	607	163	1	stimuli\flamethrower\flamethrower_02s.jpg	1	-1	1	0	flamethrower_02s.jpg	0	0	0	290.243928960524	290.293895522133	0.0499665616080165
318410	50	473	0	0	filter	587	164	1	stimuli\filter\filter_07s.jpg	6	-1	1	0	filter_07s.jpg	0	0	0	290.343911577016	290.39390983386	0.0499982568435371
318510	50	474	0	0	whip	1809	165	1	stimuli\whip\whip_12s.jpg	11	-1	1	0	whip_12s.jpg	0	0	0	290.443931983784	290.493899764493	0.0499677807092667
318610	50	475	0	0	sausage	1365	166	1	stimuli\sausage\sausage_04s.jpg	3	-1	1	0	sausage_04s.jpg	0	0	0	290.543921670411	290.593900179025	0.0499785086140037
318710	50	476	0	0	pocket	1205	167	1	stimuli\pocket\pocket_06s.jpg	5	-1	1	0	pocket_06s.jpg	0	0	0	290.643938664347	290.693918879144	0.0499802147969604
318810	50	477	0	0	accordion	2	168	1	stimuli\accordion\accordion_12s.jpg	11	-1	1	0	accordion_12s.jpg	0	0	0	290.74392469367	290.793921000324	0.0499963066540658
318910	50	478	0	0	fox	638	169	1	stimuli\fox\fox_12s.jpg	11	-1	1	0	fox_12s.jpg	0	0	0	290.843926327303	290.893923852593	0.0499975252896547
319010	50	479	0	0	sunflower	1584	170	1	stimuli\sunflower\sunflower_11s.jpg	10	-1	1	0	sunflower_11s.jpg	0	0	0	290.943946246523	290.993912808131	0.0499665616080165
319110	50	480	0	0	polaroid	1212	171	1	stimuli\polaroid\polaroid_11s.jpg	10	-1	1	0	polaroid_11s.jpg	0	0	0	291.043949586805	291.093928582501	0.0499789956957102
319210	50	481	0	0	waffle_iron	1771	172	1	stimuli\waffle_iron\waffle_iron_06s.jpg	5	-1	1	0	waffle_iron_06s.jpg	0	0	0	291.143954146188	291.193933141883	0.0499789956957102
319310	50	482	0	0	jewelry	850	173	1	stimuli\jewelry\jewelry_05s.jpg	4	-1	1	0	jewelry_05s.jpg	0	0	0	291.243955535814	291.29393453151	0.0499789956957102
319410	50	483	0	0	paint	1096	174	1	stimuli\paint\paint_12s.jpg	11	-1	1	0	paint_12s.jpg	0	0	0	291.343956925441	291.393939822447	0.0499828970059752
319510	50	484	0	0	plaster_cast	1195	175	1	stimuli\plaster_cast\plaster_cast_10s.jpg	9	-1	1	0	plaster_cast_10s.jpg	0	0	0	291.443959778175	291.493940724526	0.0499809463508427
319610	50	485	0	0	towel_rack	1693	176	1	stimuli\towel_rack\towel_rack_01b.jpg	0	-1	1	0	towel_rack_01b.jpg	0	0	0	291.543959704693	291.593934556004	0.0499748513102531
319710	50	486	0	0	cocktail	374	177	1	stimuli\cocktail\cocktail_09s.jpg	8	-1	1	0	cocktail_09s.jpg	0	0	0	291.643957437482	291.693940090481	0.0499826529994607
319810	50	487	0	0	charcoal	307	178	1	stimuli\charcoal\charcoal_06s.jpg	5	-1	1	0	charcoal_06s.jpg	0	0	0	291.743963459507	291.793946112506	0.0499826529994607
319910	50	488	0	0	modem	1011	179	1	stimuli\modem\modem_07s.jpg	6	-1	1	0	modem_07s.jpg	0	0	0	291.843960216735	291.893942382187	0.0499821654520929
320010	50	489	0	0	toolbox	1677	180	1	stimuli\toolbox\toolbox_05s.jpg	4	-1	1	0	toolbox_05s.jpg	0	0	0	291.943968433421	291.993949623313	0.049981189891696
320110	50	490	0	0	candy_cane	257	181	1	stimuli\candy_cane\candy_cane_12s.jpg	11	-1	1	0	candy_cane_12s.jpg	0	0	0	292.043969823048	292.093947843648	0.0499780206009746
320210	50	491	0	0	jeep	843	182	1	stimuli\jeep\jeep_06s.jpg	5	-1	1	0	jeep_06s.jpg	0	0	0	292.143972431775	292.19395118393	0.0499787521548569
320310	50	492	0	0	dishrag	490	183	1	stimuli\dishrag\dishrag_05s.jpg	4	-1	1	0	dishrag_05s.jpg	0	0	0	292.243974796496	292.293954767752	0.0499799712561071
320410	50	493	0	0	chopsticks	339	184	1	stimuli\chopsticks\chopsticks_08s.jpg	7	-1	1	0	chopsticks_08s.jpg	0	0	0	292.343978624325	292.393954207189	0.0499755828641355
320510	50	494	0	0	rake	1281	185	1	stimuli\rake\rake_10s.jpg	9	-1	1	0	rake_10s.jpg	0	0	0	292.443978063762	292.493957791012	0.0499797272495925
320610	50	495	0	0	fire_alarm	591	186	1	stimuli\fire_alarm\fire_alarm_11s.jpg	10	-1	1	0	fire_alarm_11s.jpg	0	0	0	292.543980428483	292.593958449084	0.0499780206009746
320710	50	496	0	0	pole	1213	187	1	stimuli\pole\pole_06s.jpg	5	-1	1	0	pole_06s.jpg	0	0	0	292.643982062116	292.693966178223	0.0499841161072254
320810	50	497	0	0	chive	337	188	1	stimuli\chive\chive_06s.jpg	5	-1	1	0	chive_06s.jpg	0	0	0	292.743986621499	292.793966836296	0.0499802147969604
320910	50	498	0	0	stair	1532	189	1	stimuli\stair\stair_06s.jpg	5	-1	1	0	stair_06s.jpg	0	0	0	292.843992399517	292.893968225922	0.0499758264049888
321010	50	499	0	0	wrist	1842	190	1	stimuli\wrist\wrist_03s.jpg	2	-1	1	0	wrist_03s.jpg	0	0	0	292.944040113129	292.993980831001	0.0499407178722322
321110	50	500	0	0	cork	409	191	1	stimuli\cork\cork_06s.jpg	5	-1	1	0	cork_06s.jpg	0	0	0	293.043990790378	293.093976369128	0.0499855787493289
321210	50	501	0	0	sunglasses	1585	192	1	stimuli\sunglasses\sunglasses_09s.jpg	8	-1	1	0	sunglasses_09s.jpg	0	0	0	293.143996324856	293.193977515213	0.0499811903573573
321310	50	502	0	0	minivan	1003	193	1	stimuli\minivan\minivan_04s.jpg	3	-1	1	0	minivan_04s.jpg	0	0	0	293.243999909144	293.293985243887	0.0499853347428143
321410	50	503	0	0	wagon	1772	194	1	stimuli\wagon\wagon_01b.jpg	0	-1	1	0	wagon_01b.jpg	0	0	0	293.34400129877	293.393973711878	0.0499724131077528
321510	50	504	0	0	anklet	23	195	1	stimuli\anklet\anklet_06s.jpg	5	-1	1	0	anklet_06s.jpg	0	0	0	293.443983671255	293.493965836708	0.0499821654520929
321610	50	505	0	0	punch1	1254	196	1	stimuli\punch1\punch1_06s.jpg	5	-1	1	0	punch1_06s.jpg	0	0	0	293.544015049469	293.59398819413	0.0499731446616352
321710	50	506	0	0	record	1295	197	1	stimuli\record\record_02s.jpg	1	-1	1	0	record_02s.jpg	0	0	0	293.644008149859	293.693989827763	0.0499816779047251
321810	50	507	0	0	puffin	1248	198	1	stimuli\puffin\puffin_10s.jpg	9	-1	1	0	puffin_10s.jpg	0	0	0	293.744013684336	293.793995118234	0.0499814338982105
321910	50	508	0	0	compass	392	199	1	stimuli\compass\compass_11n.jpg	10	-1	1	0	compass_11n.jpg	0	0	0	293.844014342409	293.89399626432	0.0499819219112396
322010	50	509	0	0	scalpel	1374	200	1	stimuli\scalpel\scalpel_03s.jpg	2	-1	1	0	scalpel_03s.jpg	0	0	0	293.944017439149	293.994002286345	0.0499848471954465
322110	50	510	0	0	submarine	1577	201	1	stimuli\submarine\submarine_05s.jpg	4	-1	1	0	submarine_05s.jpg	0	0	0	294.044018828776	294.093998312019	0.049979483243078
322210	50	511	0	0	pastry	1124	202	1	stimuli\pastry\pastry_11s.jpg	10	-1	1	0	pastry_11s.jpg	0	0	0	294.144021193497	294.194003602955	0.0499824094586074
322310	50	512	0	0	eyepiece	568	203	1	stimuli\eyepiece\eyepiece_06s.jpg	5	-1	1	0	eyepiece_06s.jpg	0	0	0	294.244023802225	294.29400962498	0.0499858227558434
322410	50	513	0	0	punch2	1255	204	1	stimuli\punch2\punch2_11s.jpg	10	-1	1	0	punch2_11s.jpg	0	0	0	294.344030312262	294.394010039512	0.0499797272495925
322510	50	514	0	0	french_horn	642	205	1	stimuli\french_horn\french_horn_01s.jpg	0	-1	1	0	french_horn_01s.jpg	0	0	0	294.444032433443	294.494010697585	0.0499782641418278
322610	50	515	0	0	marker	975	206	1	stimuli\marker\marker_10s.jpg	9	-1	1	0	marker_10s.jpg	0	0	0	294.54403504217	294.594012818765	0.04997777659446
322710	50	516	0	0	gravestone	710	207	1	stimuli\gravestone\gravestone_10s.jpg	9	-1	1	0	gravestone_10s.jpg	0	0	0	294.644035212696	294.69401396485	0.0499787521548569
322810	50	517	0	0	clasp	351	208	1	stimuli\clasp\clasp_01b.jpg	0	-1	1	0	clasp_01b.jpg	0	0	0	294.744039772078	294.794024131726	0.0499843596480787
322910	50	518	0	0	extinguisher	563	209	1	stimuli\extinguisher\extinguisher_12s.jpg	11	-1	1	0	extinguisher_12s.jpg	0	0	0	294.844038967509	294.894024302252	0.0499853347428143
323010	50	519	0	0	sweet_potato	1595	210	1	stimuli\sweet_potato\sweet_potato_12s.jpg	11	-1	1	0	sweet_potato_12s.jpg	0	0	0	294.944046939723	294.994028130081	0.0499811903573573
323110	50	520	0	0	sticker	1553	211	1	stimuli\sticker\sticker_12s.jpg	11	-1	1	0	sticker_12s.jpg	0	0	0	295.044045647606	295.0940292757	0.0499836280941963
323210	50	521	0	0	butterfly	229	212	1	stimuli\butterfly\butterfly_12n.jpg	11	-1	1	0	butterfly_12n.jpg	0	0	0	295.144053132739	295.194031396881	0.0499782641418278
323310	50	522	0	0	walker2	1774	213	1	stimuli\walker2\walker2_05s.jpg	4	-1	1	0	walker2_05s.jpg	0	0	0	295.244051596615	295.294032055419	0.0499804588034749
323410	50	523	0	0	blind	140	214	1	stimuli\blind\blind_07s.jpg	6	-1	1	0	blind_07s.jpg	0	0	0	295.34405444935	295.394034176599	0.0499797272495925
323510	50	524	0	0	balance_beam	58	215	1	stimuli\balance_beam\balance_beam_09s.jpg	8	-1	1	0	balance_beam_09s.jpg	0	0	0	295.444055351429	295.49403946707	0.0499841156415641
323610	50	525	0	0	router	1336	216	1	stimuli\router\router_02s.jpg	1	-1	1	0	router_02s.jpg	0	0	0	295.544058935251	295.594040856697	0.0499819214455783
323710	50	526	0	0	cauliflower	288	217	1	stimuli\cauliflower\cauliflower_07s.jpg	6	-1	1	0	cauliflower_07s.jpg	0	0	0	295.644063250627	295.694041515235	0.0499782646074891
323810	50	527	0	0	patch	1125	218	1	stimuli\patch\patch_01b.jpg	0	-1	1	0	patch_01b.jpg	0	0	0	295.744065859355	295.794049487915	0.0499836285598576
323910	50	528	0	0	ice_cube	819	219	1	stimuli\ice_cube\ice_cube_01b.jpg	0	-1	1	0	ice_cube_01b.jpg	0	0	0	295.844089923427	295.894048195332	0.0499582719057798
324010	50	529	0	0	smoothie	1474	220	1	stimuli\smoothie\smoothie_08s.jpg	7	-1	1	0	smoothie_08s.jpg	0	0	0	295.944068151526	295.994059825316	0.0499916737899184
324110	50	530	0	0	razor	1290	221	1	stimuli\razor\razor_10s.jpg	9	-1	1	0	razor_10s.jpg	0	0	0	296.044072466902	296.094049999956	0.0499775330536067
324210	50	531	0	0	candlestick	254	222	1	stimuli\candlestick\candlestick_02s.jpg	1	-1	1	0	candlestick_02s.jpg	0	0	0	296.144072393421	296.194054071326	0.0499816779047251
324310	50	532	0	0	manatee	964	223	1	stimuli\manatee\manatee_10n.jpg	9	-1	1	0	manatee_10n.jpg	0	0	0	296.244077684358	296.294063506648	0.0499858222901821
324410	50	533	0	0	pulpit	1251	224	1	stimuli\pulpit\pulpit_03s.jpg	2	-1	1	0	pulpit_03s.jpg	0	0	0	296.344080537092	296.394060020335	0.049979483243078
324510	50	534	0	0	corkscrew	411	225	1	stimuli\corkscrew\corkscrew_01b.jpg	0	-1	1	0	corkscrew_01b.jpg	0	0	0	296.444084364455	296.494066773914	0.0499824094586074
324610	50	535	0	0	armor	37	226	1	stimuli\armor\armor_01b.jpg	0	-1	1	0	armor_01b.jpg	0	0	0	296.544089898933	296.594067431986	0.0499775330536067
324710	50	536	0	0	radar	1271	227	1	stimuli\radar\radar_02s.jpg	1	-1	1	0	radar_02s.jpg	0	0	0	296.644086900167	296.694068334065	0.0499814338982105
324810	50	537	0	0	sandwich	1357	228	1	stimuli\sandwich\sandwich_02s.jpg	1	-1	1	0	sandwich_02s.jpg	0	0	0	296.744096335955	296.794051194564	0.0499548586085439
324910	50	538	0	0	pelican	1140	229	1	stimuli\pelican\pelican_03s.jpg	2	-1	1	0	pelican_03s.jpg	0	0	0	296.844080415089	296.894065993838	0.0499855787493289
325010	50	539	0	0	sickle	1441	230	1	stimuli\sickle\sickle_07s.jpg	6	-1	1	0	sickle_07s.jpg	0	0	0	296.944082048722	296.994096396491	0.05001434776932
325110	50	540	0	0	steering_wheel	1546	231	1	stimuli\steering_wheel\steering_wheel_09s.jpg	8	-1	1	0	steering_wheel_09s.jpg	0	0	0	297.044104649685	297.094067066442	0.0499624167568982
325210	50	541	0	0	shirt	1422	232	1	stimuli\shirt\shirt_05s.jpg	4	-1	1	0	shirt_05s.jpg	0	0	0	297.14410482021	297.194078452419	0.049973632209003
325310	50	542	0	0	parfait	1119	233	1	stimuli\parfait\parfait_09s.jpg	8	-1	1	0	parfait_09s.jpg	0	0	0	297.244107185397	297.294087156188	0.0499799707904458
325410	50	543	0	0	handle	748	234	1	stimuli\handle\handle_11s.jpg	10	-1	1	0	handle_11s.jpg	0	0	0	297.344111013226	297.394093909767	0.049982896540314
325510	50	544	0	0	ashtray	41	235	1	stimuli\ashtray\ashtray_11s.jpg	10	-1	1	0	ashtray_11s.jpg	0	0	0	297.444120936096	297.494078720454	0.049957784358412
325610	50	545	0	0	syringe	1604	236	1	stimuli\syringe\syringe_06s.jpg	5	-1	1	1	syringe_06s.jpg	0	0	0	297.544097701088	297.594070601743	0.0499729006551206
325710	50	546	0	0	bowtie	180	237	1	stimuli\bowtie\bowtie_06s.jpg	5	-1	1	0	bowtie_06s.jpg	0	0	0	297.644096896518	297.694080768619	0.0499838721007109
325810	50	547	0	0	column	388	238	1	stimuli\column\column_12s.jpg	11	-1	1	0	column_12s.jpg	0	0	0	297.744119741488	297.794100443833	0.0499807023443282
325910	50	548	0	0	chaps	306	239	1	stimuli\chaps\chaps_12s.jpg	11	-1	1	0	chaps_12s.jpg	0	0	0	297.844096994027	297.894092325121	0.0499953310936689
326010	50	549	0	0	cheetah	315	240	1	stimuli\cheetah\cheetah_05s.jpg	4	-1	1	0	cheetah_05s.jpg	1	0.400190366432071	1	297.944125446491	297.99410809949	0.0499826529994607
326110	50	550	0	0	mosquito	1020	241	1	stimuli\mosquito\mosquito_05s.jpg	4	-1	1	0	mosquito_05s.jpg	0	0	0	298.044132931624	298.094112902414	0.0499799707904458
326210	50	551	0	0	fire	590	242	1	stimuli\fire\fire_07s.jpg	6	-1	1	0	fire_07s.jpg	0	0	0	298.144132127054	298.194112585858	0.0499804588034749
326310	50	552	0	0	shelf	1416	243	1	stimuli\shelf\shelf_05s.jpg	4	-1	1	0	shelf_05s.jpg	0	0	0	298.244135467336	298.294114463031	0.0499789956957102
326410	50	553	0	0	hairbrush	734	244	1	stimuli\hairbrush\hairbrush_01b.jpg	0	-1	1	0	hairbrush_01b.jpg	0	0	0	298.344137100503	298.394118046854	0.0499809463508427
326510	50	554	0	0	crane	431	245	1	stimuli\crane\crane_07s.jpg	6	-1	1	0	crane_07s.jpg	0	0	0	298.444120448548	298.494106027298	0.0499855787493289
326610	50	555	0	0	nightstand	1059	246	1	stimuli\nightstand\nightstand_12s.jpg	11	-1	1	0	nightstand_12s.jpg	0	0	0	298.544144268613	298.594126677606	0.0499824089929461
326710	50	556	0	0	chalice	301	247	1	stimuli\chalice\chalice_10s.jpg	9	-1	1	0	chalice_10s.jpg	0	0	0	298.644129079301	298.694108074997	0.0499789956957102
326810	50	557	0	0	shoe	1423	248	1	stimuli\shoe\shoe_05s.jpg	4	-1	1	0	shoe_05s.jpg	0	0	0	298.744147291873	298.794129457325	0.0499821654520929
326910	50	558	0	0	photograph	1164	249	1	stimuli\photograph\photograph_02s.jpg	1	-1	1	0	photograph_02s.jpg	0	0	0	298.844147706404	298.894132066052	0.0499843596480787
327010	50	559	0	0	cat	284	250	1	stimuli\cat\cat_03s.jpg	2	-1	1	0	cat_03s.jpg	0	0	0	298.944153972436	298.994132724125	0.0499787516891956
327110	50	560	0	0	corsage	417	251	1	stimuli\corsage\corsage_11s.jpg	10	-1	1	0	corsage_11s.jpg	0	0	0	299.044153411407	299.094136308413	0.0499828970059752
327210	50	561	0	0	rope	1332	252	1	stimuli\rope\rope_09s.jpg	8	-1	1	0	rope_09s.jpg	0	0	0	299.144158945885	299.194137454033	0.0499785081483424
327310	50	562	0	0	garter	659	253	1	stimuli\garter\garter_01b.jpg	0	-1	1	0	garter_01b.jpg	0	0	0	299.244143025018	299.294123971369	0.0499809463508427
327410	50	563	0	0	peacock	1130	254	1	stimuli\peacock\peacock_05s.jpg	4	-1	1	0	peacock_05s.jpg	0	0	0	299.344132468104	299.394143890589	0.0500114224851131
327510	50	564	0	0	doorbell	507	255	1	stimuli\doorbell\doorbell_06s.jpg	5	-1	1	0	doorbell_06s.jpg	0	0	0	299.444174574222	299.494147230871	0.0499726566486061
327610	50	565	0	0	cardboard	272	256	1	stimuli\cardboard\cardboard_06s.jpg	5	-1	1	0	cardboard_06s.jpg	0	0	0	299.544151582755	299.594151790254	0.0500002074986696
327710	50	566	0	0	baton4	95	257	1	stimuli\baton4\baton4_12s.jpg	11	-1	1	0	baton4_12s.jpg	0	0	0	299.644167113584	299.694147572387	0.0499804588034749
327810	50	567	0	0	bubble	207	258	1	stimuli\bubble\bubble_07s.jpg	6	-1	1	0	bubble_07s.jpg	0	0	0	299.744168747216	299.794153594412	0.0499848471954465
327910	50	568	0	0	crab	428	259	1	stimuli\crab\crab_04s.jpg	3	-1	1	0	crab_04s.jpg	0	0	0	299.844178182539	299.894155228045	0.0499770455062389
328010	50	569	0	0	curb	462	260	1	stimuli\curb\curb_09s.jpg	8	-1	1	0	curb_09s.jpg	0	0	0	299.944156654179	299.994134918787	0.0499782646074891
328110	50	570	0	0	rifle	1311	261	1	stimuli\rifle\rifle_06s.jpg	5	-1	1	0	rifle_06s.jpg	0	0	0	300.044152436312	300.094140940811	0.049988504499197
328210	50	571	0	0	sock	1489	262	1	stimuli\sock\sock_08s.jpg	7	-1	1	0	sock_08s.jpg	0	0	0	300.144153582398	300.194139160682	0.0499855782836676
328310	50	572	0	0	slot	1469	263	1	stimuli\slot\slot_06s.jpg	5	-1	1	0	slot_06s.jpg	0	0	0	300.244158385321	300.294149327558	0.0499909422360361
328410	50	573	0	0	wok	1830	264	1	stimuli\wok\wok_01b.jpg	0	-1	1	0	wok_01b.jpg	0	0	0	300.344166113995	300.394145597238	0.049979483243078
328510	50	574	0	0	bolo_tie	157	265	1	stimuli\bolo_tie\bolo_tie_06s.jpg	5	-1	1	0	bolo_tie_06s.jpg	0	0	0	300.444195298012	300.494156739675	0.0499614416621625
328610	50	575	0	0	vacuum	1750	266	1	stimuli\vacuum\vacuum_10s.jpg	9	-1	1	0	vacuum_10s.jpg	0	0	0	300.544179133605	300.594146670308	0.0499675367027521
328710	50	576	0	0	hairnet	736	267	1	stimuli\hairnet\hairnet_02s.jpg	1	-1	1	0	hairnet_02s.jpg	0	0	0	300.644197833724	300.694165857974	0.0499680242501199
328810	50	577	0	0	duster	534	268	1	stimuli\duster\duster_07s.jpg	6	-1	1	0	duster_07s.jpg	0	0	0	300.744199710898	300.7941848021	0.049985091201961
328910	50	578	0	0	hedge	773	269	1	stimuli\hedge\hedge_01b.jpg	0	-1	1	0	hedge_01b.jpg	0	0	0	300.844199881423	300.894170343876	0.0499704624526203
329010	50	579	0	0	gondola	691	270	1	stimuli\gondola\gondola_11s.jpg	10	-1	1	0	gondola_11s.jpg	0	0	0	300.944211511407	300.994163444266	0.0499519328586757
329110	50	580	0	0	nut	1066	271	1	stimuli\nut\nut_12s.jpg	11	-1	1	0	nut_12s.jpg	0	0	0	301.044188763946	301.094168491196	0.0499797272495925
329210	50	581	0	0	tomato	1672	272	1	stimuli\tomato\tomato_01b.jpg	0	-1	1	0	tomato_01b.jpg	0	0	0	301.144212096464	301.194192555267	0.0499804588034749
329310	50	582	0	0	air_conditioner	4	273	1	stimuli\air_conditioner\air_conditioner_09s.jpg	8	-1	1	0	air_conditioner_09s.jpg	0	0	0	301.244219581597	301.294194919989	0.0499753383919597
329410	50	583	0	0	birdcage	130	274	1	stimuli\birdcage\birdcage_11s.jpg	10	-1	1	0	birdcage_11s.jpg	0	0	0	301.34421536373	301.394197041169	0.0499816774390638
329510	50	584	0	0	corkboard	410	275	1	stimuli\corkboard\corkboard_06s.jpg	5	-1	1	0	corkboard_06s.jpg	0	0	0	301.444218460005	301.494198430795	0.0499799707904458
329610	50	585	0	0	scoreboard	1383	276	1	stimuli\scoreboard\scoreboard_08s.jpg	7	-1	1	0	scoreboard_08s.jpg	0	0	0	301.544218142983	301.594200308435	0.0499821654520929
329710	50	586	0	0	cheeseburger	313	277	1	stimuli\cheeseburger\cheeseburger_12s.jpg	11	-1	1	0	cheeseburger_12s.jpg	0	0	0	301.644230260514	301.694210962858	0.0499807023443282
329810	50	587	0	0	espresso	560	278	1	stimuli\espresso\espresso_06s.jpg	5	-1	1	0	espresso_06s.jpg	0	0	0	301.74423067458	301.79421137739	0.0499807028099895
329910	50	588	0	0	cookie_sheet	402	279	1	stimuli\cookie_sheet\cookie_sheet_10s.jpg	9	-1	1	0	cookie_sheet_10s.jpg	0	0	0	301.844218898565	301.894216180313	0.0499972817488015
330010	50	589	0	0	shaker	1408	280	1	stimuli\shaker\shaker_11s.jpg	10	-1	1	0	shaker_11s.jpg	0	0	0	301.944238817785	301.99421756994	0.0499787521548569
330110	50	590	0	0	bun	220	281	1	stimuli\bun\bun_07s.jpg	6	-1	1	0	bun_07s.jpg	0	0	0	302.044238013215	302.094219935127	0.0499819219112396
330210	50	591	0	0	calf2	242	282	1	stimuli\calf2\calf2_05s.jpg	4	-1	1	0	calf2_05s.jpg	0	0	0	302.144242816605	302.194223762956	0.0499809463508427
330310	50	592	0	0	hanger	751	283	1	stimuli\hanger\hanger_08n.jpg	7	-1	1	0	hanger_08n.jpg	0	0	0	302.244246400427	302.294229297433	0.0499828970059752
330410	50	593	0	0	javelin	841	284	1	stimuli\javelin\javelin_07s.jpg	6	-1	1	0	javelin_07s.jpg	0	0	0	302.34425095981	302.394228248857	0.0499772890470922
330510	50	594	0	0	swan	1591	285	1	stimuli\swan\swan_04s.jpg	3	-1	1	0	swan_04s.jpg	0	0	0	302.444249667693	302.494214766193	0.0499650985002518
330610	50	595	0	0	paperclip	1116	286	1	stimuli\paperclip\paperclip_03s.jpg	2	-1	1	0	paperclip_03s.jpg	0	0	0	302.544251788873	302.594217374921	0.0499655860476196
330710	50	596	0	0	binder	126	287	1	stimuli\binder\binder_12s.jpg	11	-1	1	0	binder_12s.jpg	0	0	0	302.644253909588	302.694237294141	0.0499833845533431
330810	50	597	0	0	pendulum	1144	288	1	stimuli\pendulum\pendulum_03s.jpg	2	-1	1	0	pendulum_03s.jpg	0	0	0	302.744243840687	302.794215034228	0.0499711935408413
330910	50	598	0	0	sorbet	1497	289	1	stimuli\sorbet\sorbet_02s.jpg	1	-1	1	0	sorbet_02s.jpg	0	0	0	302.84423377132	302.894210328814	0.0499765574932098
331010	50	599	0	0	bamboo	62	290	1	stimuli\bamboo\bamboo_10s.jpg	9	-1	1	1	bamboo_10s.jpg	0	0	0	302.944235404488	302.994213425089	0.0499780206009746
331110	50	600	0	0	knee	877	291	1	stimuli\knee\knee_06s.jpg	5	-1	1	0	knee_06s.jpg	0	0	0	303.044239476323	303.094217740465	0.0499782641418278
331210	50	601	0	0	parsley	1122	292	1	stimuli\parsley\parsley_07n.jpg	6	-1	1	0	parsley_07n.jpg	0	0	0	303.144240134396	303.194222299848	0.0499821654520929
331310	50	602	0	0	hot_chocolate	803	293	1	stimuli\hot_chocolate\hot_chocolate_12s.jpg	11	-1	1	0	hot_chocolate_12s.jpg	1	0.29216545028612	1	303.244243718684	303.294231247623	0.0499875289388001
331410	50	603	0	0	gorilla	695	294	1	stimuli\gorilla\gorilla_06s.jpg	5	-1	1	0	gorilla_06s.jpg	0	0	0	303.344250228256	303.394226786215	0.0499765579588711
331510	50	604	0	0	dryer	524	295	1	stimuli\dryer\dryer_04s.jpg	3	-1	1	0	dryer_04s.jpg	0	0	0	303.444253568538	303.494230370037	0.0499768014997244
331610	50	605	0	0	handkerchief	747	296	1	stimuli\handkerchief\handkerchief_03s.jpg	2	-1	1	0	handkerchief_03s.jpg	0	0	0	303.544253495522	303.594232978765	0.049979483243078
331710	50	606	0	0	hedgehog	774	297	1	stimuli\hedgehog\hedgehog_11n.jpg	10	-1	1	0	hedgehog_11n.jpg	0	0	0	303.644251471851	303.69424192654	0.0499904546886683
331810	50	607	0	0	grass	705	298	1	stimuli\grass\grass_05s.jpg	4	-1	1	0	grass_05s.jpg	0	0	0	303.744262126274	303.794240390416	0.0499782641418278
331910	50	608	0	0	crystal_ball	455	299	1	stimuli\crystal_ball\crystal_ball_02s.jpg	1	-1	1	0	crystal_ball_02s.jpg	0	0	0	303.844268148299	303.89424324315	0.0499750948511064
332010	50	609	0	0	muff	1034	300	1	stimuli\muff\muff_08s.jpg	7	-1	1	0	muff_08s.jpg	0	0	0	303.944293919019	303.994270476513	0.0499765574932098
332110	50	610	0	0	cabbage	232	301	1	stimuli\cabbage\cabbage_10s.jpg	9	-1	1	0	cabbage_10s.jpg	0	0	0	304.0442960402	304.09427308524	0.0499770450405777
332210	50	611	0	0	notebook	1064	302	1	stimuli\notebook\notebook_08s.jpg	7	-1	1	0	notebook_08s.jpg	0	0	0	304.144294016529	304.194280082826	0.0499860662966967
332310	50	612	0	0	tattoo	1629	303	1	stimuli\tattoo\tattoo_03s.jpg	2	-1	1	0	tattoo_03s.jpg	0	0	0	304.24428150896	304.29428000981	0.0499985008500516
332410	50	613	0	0	ring	1313	304	1	stimuli\ring\ring_02s.jpg	1	-1	1	0	ring_02s.jpg	0	0	0	304.344300209079	304.394279448781	0.0499792397022247
332510	50	614	0	0	sleeping_bag	1462	305	1	stimuli\sleeping_bag\sleeping_bag_07s.jpg	6	-1	1	0	sleeping_bag_07s.jpg	0	0	0	304.444299160969	304.494259871077	0.0499607101082802
332610	50	615	0	0	brussels_sprouts	206	306	1	stimuli\brussels_sprouts\brussels_sprouts_07s.jpg	6	-1	1	0	brussels_sprouts_07s.jpg	0	0	0	304.544281289447	304.594264429994	0.0499831405468285
332710	50	616	0	0	thumbtack	1654	307	1	stimuli\thumbtack\thumbtack_07s.jpg	6	-1	1	0	thumbtack_07s.jpg	0	0	0	304.644290237222	304.694288738072	0.0499985008500516
332810	50	617	0	0	screen1	1388	308	1	stimuli\screen1\screen1_07s.jpg	6	-1	1	0	screen1_07s.jpg	0	0	0	304.744286994915	304.794266478159	0.049979483243078
353278	50	618	0	0	parrot	1121	0	2	stimuli\parrot\parrot_07s.jpg	6	-1	2	0	parrot_07s.jpg	0	0	0	325.211517414078	325.261495922226	0.0499785081483424
353378	50	619	0	0	seatbelt	1399	1	2	stimuli\seatbelt\seatbelt_04s.jpg	3	-1	2	0	seatbelt_04s.jpg	0	0	0	325.31151490286	325.361499750055	0.0499848471954465
353478	50	620	0	0	bag	54	2	2	stimuli\bag\bag_05s.jpg	4	-1	2	0	bag_05s.jpg	0	0	0	325.41151994979	325.46149967704	0.0499797272495925
353578	50	621	0	0	snowsuit	1486	3	2	stimuli\snowsuit\snowsuit_03s.jpg	2	-1	2	0	snowsuit_03s.jpg	0	0	0	325.511523289606	325.561488144565	0.0499648549593985
353678	50	622	0	0	clipper1	356	4	2	stimuli\clipper1\clipper1_12s.jpg	11	-1	2	0	clipper1_12s.jpg	0	0	0	325.611529799644	325.661506601144	0.0499768014997244
353778	50	623	0	0	photo_booth	1163	5	2	stimuli\photo_booth\photo_booth_11s.jpg	10	-1	2	0	photo_booth_11s.jpg	0	0	0	325.71151046548	325.761488729622	0.0499782641418278
353878	50	624	0	0	yogurt	1848	6	2	stimuli\yogurt\yogurt_10s.jpg	9	-1	2	0	yogurt_10s.jpg	0	0	0	325.811512342654	325.861507430207	0.0499950875528157
353978	50	625	0	0	kneepad	878	7	2	stimuli\kneepad\kneepad_08s.jpg	7	-1	2	0	kneepad_08s.jpg	0	0	0	325.911520315334	325.961495166179	0.0499748508445919
354078	50	626	0	0	leek	910	8	2	stimuli\leek\leek_01b.jpg	0	-1	2	0	leek_01b.jpg	0	0	0	326.011532920413	326.061513866764	0.0499809463508427
354178	50	627	0	0	hydrant	814	9	2	stimuli\hydrant\hydrant_05s.jpg	4	-1	2	0	hydrant_05s.jpg	0	0	0	326.111516511999	326.161493069492	0.0499765574932098
354278	50	628	0	0	yak	1845	10	2	stimuli\yak\yak_03s.jpg	2	-1	2	0	yak_03s.jpg	0	0	0	326.211535699666	326.261532981414	0.0499972817488015
354378	50	629	0	0	mixer	1009	11	2	stimuli\mixer\mixer_03s.jpg	2	-1	2	0	mixer_03s.jpg	0	0	0	326.311547329184	326.361530470196	0.0499831410124898
354478	50	630	0	0	bonsai	164	12	2	stimuli\bonsai\bonsai_12s.jpg	11	-1	2	0	bonsai_12s.jpg	0	0	0	326.411548719276	326.461528446525	0.0499797272495925
354578	50	631	0	0	cooler	403	13	2	stimuli\cooler\cooler_02s.jpg	1	-1	2	0	cooler_02s.jpg	0	0	0	326.511550840456	326.561518133152	0.0499672926962376
354678	50	632	0	0	ice_pack	820	14	2	stimuli\ice_pack\ice_pack_02s.jpg	1	-1	2	0	ice_pack_02s.jpg	0	0	0	326.611559300683	326.661536833271	0.0499775325879455
354778	50	633	0	0	pomegranate	1219	15	2	stimuli\pomegranate\pomegranate_09s.jpg	8	-1	2	0	pomegranate_09s.jpg	0	0	0	326.711556301452	326.761542855296	0.0499865538440645
354878	50	634	0	0	orange_rind	1079	16	2	stimuli\orange_rind\orange_rind_10s.jpg	9	-1	2	0	orange_rind_10s.jpg	0	0	0	326.811553546693	326.861534736585	0.049981189891696
354978	50	635	0	0	sandcastle	1355	17	2	stimuli\sandcastle\sandcastle_07s.jpg	6	-1	2	0	sandcastle_07s.jpg	0	0	0	326.911558593623	326.961532225367	0.0499736317433417
355078	50	636	0	0	hinge	779	18	2	stimuli\hinge\hinge_01b.jpg	0	-1	2	0	hinge_01b.jpg	0	0	0	327.011559251696	327.06153702829	0.04997777659446
355178	50	637	0	0	cherry	316	19	2	stimuli\cherry\cherry_08s.jpg	7	-1	2	0	cherry_08s.jpg	0	0	0	327.111558934674	327.161543538328	0.0499846036545932
355278	50	638	0	0	hatchet	759	20	2	stimuli\hatchet\hatchet_09s.jpg	8	-1	2	0	hatchet_09s.jpg	0	0	0	327.21156325005	327.2615429773	0.0499797272495925
355378	50	639	0	0	bear	105	21	2	stimuli\bear\bear_10s.jpg	9	-1	2	0	bear_10s.jpg	0	0	0	327.311566346325	327.361551437527	0.049985091201961
355478	50	640	0	0	space_shuttle	1501	22	2	stimuli\space_shuttle\space_shuttle_08s.jpg	7	-1	2	0	space_shuttle_08s.jpg	0	0	0	327.411570662167	327.461555752903	0.0499850907362998
355578	50	641	0	0	padlock	1095	23	2	stimuli\padlock\padlock_05s.jpg	4	-1	2	0	padlock_05s.jpg	0	0	0	327.511572539341	327.561557630543	0.049985091201961
355678	50	642	0	0	gourd	696	24	2	stimuli\gourd\gourd_12s.jpg	11	-1	2	0	gourd_12s.jpg	0	0	0	327.611562225968	327.661540734582	0.0499785086140037
355778	50	643	0	0	uniform	1747	25	2	stimuli\uniform\uniform_08s.jpg	7	-1	2	0	uniform_08s.jpg	0	0	0	327.711559471209	327.761540173553	0.0499807023443282
355878	50	644	0	0	raft	1275	26	2	stimuli\raft\raft_08s.jpg	7	-1	2	0	raft_08s.jpg	0	0	0	327.811562079936	327.861540832091	0.0499787521548569
355978	50	645	0	0	gas_mask	660	27	2	stimuli\gas_mask\gas_mask_08s.jpg	7	-1	2	0	gas_mask_08s.jpg	0	0	0	327.911565176211	327.961541977711	0.0499768014997244
356078	50	646	0	0	flower	619	28	2	stimuli\flower\flower_09s.jpg	8	-1	2	0	flower_09s.jpg	0	0	0	328.01156607829	328.061543611344	0.0499775330536067
356178	50	647	0	0	vulture	1768	29	2	stimuli\vulture\vulture_11s.jpg	10	-1	2	0	vulture_11s.jpg	0	0	0	328.111576489173	328.161546951625	0.0499704624526203
356278	50	648	0	0	skull	1458	30	2	stimuli\skull\skull_02s.jpg	1	-1	2	0	skull_02s.jpg	0	0	0	328.211553254165	328.261531030759	0.04997777659446
356378	50	649	0	0	powder	1236	31	2	stimuli\powder\powder_11s.jpg	10	-1	2	0	powder_11s.jpg	0	0	0	328.311593897175	328.361557776574	0.0499638793990016
356478	50	650	0	0	hamster	743	32	2	stimuli\hamster\hamster_11s.jpg	10	-1	2	0	hamster_11s.jpg	0	0	0	328.411569686607	328.461546732113	0.0499770455062389
356578	50	651	0	0	polisher	1215	33	2	stimuli\polisher\polisher_07s.jpg	6	-1	2	0	polisher_07s.jpg	0	0	0	328.511575708631	328.56156104384	0.0499853352084756
356678	50	652	0	0	record_player	1296	34	2	stimuli\record_player\record_player_03s.jpg	2	-1	2	0	record_player_03s.jpg	0	0	0	328.611579292919	328.661561701912	0.0499824089929461
