onset	duration	eventnumber	blocksequencenumber	isteststim	object	objectnumber	presentationnumber	sequencenumber	stim	stimnumber	teststimnumber	withinsequencenumber	istarget	stimname	response	rt	correct	time_stimon	time_stimoff	stimdur
77765	50	0	0	0	dumbbell	530	0	0	stimuli\dumbbell\dumbbell_07s.jpg	6	-1	0	0	dumbbell_07s.jpg	0	0	0	71.5432070230745	71.5931793873024	0.0499723642278695
77865	50	1	0	0	fireplace	595	1	0	stimuli\fireplace\fireplace_11s.jpg	10	-1	0	0	fireplace_11s.jpg	0	0	0	71.6432092905015	71.6931865309016	0.0499772404000396
77965	50	2	0	0	seismograph	1403	2	0	stimuli\seismograph\seismograph_06s.jpg	5	-1	0	0	seismograph_06s.jpg	0	0	0	71.7432256988686	71.7931931868952	0.0499674880265957
78065	50	3	0	0	seaweed	1400	3	0	stimuli\seaweed\seaweed_11s.jpg	10	-1	0	0	seaweed_11s.jpg	0	0	0	71.8432282100985	71.8931935038563	0.0499652937578503
78165	50	4	0	0	tennis_ball	1642	4	0	stimuli\tennis_ball\tennis_ball_03s.jpg	2	-1	0	0	tennis_ball_03s.jpg	0	0	0	71.943213654682	71.9931918703223	0.0499782156402944
78265	50	5	0	0	tweezers	1739	5	0	stimuli\tweezers\tweezers_06s.jpg	5	-1	0	0	tweezers_06s.jpg	0	0	0	72.0432127525855	72.0938607122662	0.0506479596806457
78365	50	6	0	0	windsock	1822	6	0	stimuli\windsock\windsock_10s.jpg	9	-1	0	0	windsock_10s.jpg	0	0	0	72.1432423266524	72.1932222489559	0.0499799223034643
78465	50	7	0	0	coffee_pot	380	7	0	stimuli\coffee_pot\coffee_pot_01s.jpg	0	-1	0	0	coffee_pot_01s.jpg	0	0	0	72.2432404493302	72.2932184211531	0.0499779718229547
78565	50	8	0	0	roulette_wheel	1335	8	0	stimuli\roulette_wheel\roulette_wheel_10s.jpg	9	-1	0	0	roulette_wheel_10s.jpg	0	0	0	72.3432385719934	72.3932128866873	0.0499743146938272
78665	50	9	0	0	dandelion	472	9	0	stimuli\dandelion\dandelion_08s.jpg	7	-1	0	0	dandelion_08s.jpg	0	0	0	72.4432386451372	72.493214178874	0.0499755337368697
78765	50	10	0	0	sauerkraut	1364	10	0	stimuli\sauerkraut\sauerkraut_01b.jpg	0	-1	0	0	sauerkraut_01b.jpg	0	0	0	72.5432184821111	72.5932057187019	0.0499872365908232
78865	50	11	0	0	chalice	301	11	0	stimuli\chalice\chalice_06s.jpg	5	-1	0	0	chalice_06s.jpg	0	0	0	72.6432253819075	72.6932101803977	0.0499847984901862
78965	50	12	0	0	wand	1780	12	0	stimuli\wand\wand_08s.jpg	7	-1	0	0	wand_08s.jpg	0	0	0	72.7432591007382	72.7932153735455	0.0499562728073215
79065	50	13	0	0	cupcake	461	13	0	stimuli\cupcake\cupcake_10s.jpg	9	-1	0	0	cupcake_10s.jpg	0	0	0	72.8432345491456	72.8932088638394	0.0499743146938272
79165	50	14	0	0	rim	1312	14	0	stimuli\rim\rim_11s.jpg	10	-1	0	0	rim_11s.jpg	0	0	0	72.9432326718088	72.9932177141163	0.0499850423075259
79265	50	15	0	0	spaghetti	1503	15	0	stimuli\spaghetti\spaghetti_03s.jpg	2	-1	0	0	spaghetti_03s.jpg	0	0	0	73.0432361582789	73.0932207129663	0.0499845546873985
79365	50	16	0	0	coffin	383	16	0	stimuli\coffin\coffin_04s.jpg	3	-1	0	0	coffin_04s.jpg	0	0	0	73.1432374504657	73.1932388279965	0.0500013775308616
79465	50	17	0	0	cape	266	17	0	stimuli\cape\cape_09s.jpg	8	-1	0	0	cape_09s.jpg	0	0	0	73.2432414245559	73.2932486534992	0.0500072289432865
79565	50	18	0	0	blower	145	18	0	stimuli\blower\blower_01b.jpg	0	-1	0	0	blower_01b.jpg	0	0	0	73.3432673414791	73.393235073323	0.0499677318439353
79665	50	19	0	0	outlet	1088	19	0	stimuli\outlet\outlet_07s.jpg	6	-1	0	0	outlet_07s.jpg	0	0	0	73.4432525422599	73.4932527007331	0.0500001584732672
79765	50	20	0	0	turf	1732	20	0	stimuli\turf\turf_12s.jpg	11	-1	0	0	turf_12s.jpg	0	0	0	73.5432774839428	73.5932527738769	0.049975289934082
79865	50	21	0	0	credit_card	438	21	0	stimuli\credit_card\credit_card_11s.jpg	10	-1	0	0	credit_card_11s.jpg	0	0	0	73.6432756066206	73.693254309881	0.0499787032604218
79965	50	22	0	0	spur	1525	22	0	stimuli\spur\spur_02s.jpg	1	-1	0	0	spur_02s.jpg	0	0	0	73.7432803121337	73.7932599906344	0.0499796785006765
80065	50	23	0	0	fishing_pole	603	23	0	stimuli\fishing_pole\fishing_pole_12s.jpg	11	-1	0	0	fishing_pole_12s.jpg	0	0	0	73.8432779471914	73.8932581132976	0.049980166106252
80165	50	24	0	0	ballot_box	61	24	0	stimuli\ballot_box\ballot_box_09s.jpg	8	-1	0	0	ballot_box_09s.jpg	0	0	0	73.9432804584212	73.9932562359754	0.0499757775542093
80265	50	25	0	0	knot	883	25	0	stimuli\knot\knot_09s.jpg	8	-1	0	0	knot_09s.jpg	0	0	0	74.0432649277791	74.0932499700721	0.049985042292974
80365	50	26	0	0	cane	258	26	0	stimuli\cane\cane_12s.jpg	11	-1	0	0	cane_12s.jpg	0	0	0	74.1432689018693	74.1932468736923	0.0499779718229547
80465	50	27	0	0	trolley	1715	27	0	stimuli\trolley\trolley_02s.jpg	1	-1	0	0	trolley_02s.jpg	0	0	0	74.2432682435756	74.2932513354026	0.0499830918270163
80565	50	28	0	0	seed	1401	28	0	stimuli\seed\seed_11s.jpg	10	-1	0	0	seed_11s.jpg	0	0	0	74.3432778252754	74.39325506569	0.0499772404145915
80665	50	29	0	0	pudding	1246	29	0	stimuli\pudding\pudding_09s.jpg	8	-1	0	0	pudding_09s.jpg	0	0	0	74.443274972713	74.4932539197907	0.0499789470777614
80765	50	30	0	0	appetizer	29	30	0	stimuli\appetizer\appetizer_11s.jpg	10	-1	0	0	appetizer_11s.jpg	0	0	0	74.5432769963372	74.5932447281812	0.0499677318439353
80865	50	31	0	0	eye	564	31	0	stimuli\eye\eye_06s.jpg	5	-1	0	0	eye_06s.jpg	0	0	0	74.6432673171075	74.6932599174906	0.0499926003831206
80965	50	32	0	0	tree	1708	32	0	stimuli\tree\tree_05s.jpg	4	-1	0	0	tree_05s.jpg	0	0	0	74.7432827502344	74.7932592592115	0.0499765089771245
81065	50	33	0	0	chair	300	33	0	stimuli\chair\chair_06s.jpg	5	-1	0	0	chair_06s.jpg	0	0	0	74.8432830671809	74.893265427585	0.0499823604041012
81165	50	34	0	0	bouquet	173	34	0	stimuli\bouquet\bouquet_04s.jpg	3	-1	0	0	bouquet_04s.jpg	0	0	0	74.9432833841274	74.9932694016752	0.0499860175477806
81265	50	35	0	0	washing_machine	1784	35	0	stimuli\washing_machine\washing_machine_09s.jpg	8	-1	0	0	washing_machine_09s.jpg	0	0	0	75.0432868706121	75.0932672805357	0.0499804099235917
81365	50	36	0	0	tarantula	1626	36	0	stimuli\tarantula\tarantula_04s.jpg	3	-1	0	0	tarantula_04s.jpg	0	0	0	75.1432903570822	75.1932702793856	0.0499799223034643
81465	50	37	0	0	tie	1658	37	0	stimuli\tie\tie_06s.jpg	5	-1	0	0	tie_06s.jpg	0	0	0	75.2432931121293	75.2932754725189	0.0499823603895493
81565	50	38	0	0	thorn	1650	38	0	stimuli\thorn\thorn_08s.jpg	7	-1	0	0	thorn_08s.jpg	0	0	0	75.3432953795418	75.3932735951967	0.0499782156548463
81665	50	39	0	0	eagle	537	39	0	stimuli\eagle\eagle_05s.jpg	4	-1	0	0	eagle_05s.jpg	0	0	0	75.4433005726896	75.493281226416	0.0499806537263794
81765	50	40	0	0	towel	1692	40	0	stimuli\towel\towel_03s.jpg	2	-1	0	0	towel_03s.jpg	0	0	0	75.5433069848659	75.5932842252805	0.0499772404145915
81865	50	41	0	0	lid	923	41	0	stimuli\lid\lid_11s.jpg	10	-1	0	0	lid_11s.jpg	0	0	0	75.6433034008805	75.693290393654	0.0499869927734835
81965	50	42	0	0	wolf	1831	42	0	stimuli\wolf\wolf_11n.jpg	10	-1	0	0	wolf_11n.jpg	0	0	0	75.7433188339928	75.7932885163173	0.0499696823244449
82065	50	43	0	0	landmine	894	43	0	stimuli\landmine\landmine_09s.jpg	8	-1	0	0	landmine_09s.jpg	0	0	0	75.8432974519237	75.8932768866216	0.0499794346978888
82165	50	44	0	0	catapult	285	44	0	stimuli\catapult\catapult_07s.jpg	6	-1	0	0	catapult_07s.jpg	0	0	0	75.9432982565049	75.9932820797549	0.0499838232499314
82265	50	45	0	0	tapestry	1625	45	0	stimuli\tapestry\tapestry_07s.jpg	6	-1	0	0	tapestry_07s.jpg	0	0	0	76.0433041810611	76.0932811776584	0.0499769965972519
82365	50	46	0	0	wax_paper	1796	46	0	stimuli\wax_paper\wax_paper_02s.jpg	1	-1	0	0	wax_paper_02s.jpg	0	0	0	76.1433064484881	76.1932836888882	0.0499772404000396
82465	50	47	0	0	duck	525	47	0	stimuli\duck\duck_02s.jpg	1	-1	0	0	duck_02s.jpg	0	0	0	76.2433048149687	76.2932813239458	0.0499765089771245
82565	50	48	0	0	gurney	728	48	0	stimuli\gurney\gurney_09s.jpg	8	-1	0	0	gurney_09s.jpg	0	0	0	76.3433424347313	76.393313092296	0.0499706575646996
82665	50	49	0	0	twig	1740	49	0	stimuli\twig\twig_11s.jpg	10	-1	0	0	twig_11s.jpg	0	0	0	76.4433390945487	76.4933219425729	0.0499828480242286
82765	50	50	0	0	deodorant	479	50	0	stimuli\deodorant\deodorant_03s.jpg	2	-1	0	0	deodorant_03s.jpg	0	0	0	76.5433430686389	76.5933215280966	0.049978459457634
82865	50	51	0	0	metal_detector	996	51	0	stimuli\metal_detector\metal_detector_08s.jpg	7	-1	0	0	metal_detector_08s.jpg	0	0	0	76.6433416789223	76.6933237955236	0.0499821166013135
82965	50	52	0	0	steering_wheel	1546	52	0	stimuli\steering_wheel\steering_wheel_05s.jpg	4	-1	0	0	steering_wheel_05s.jpg	0	0	0	76.743341752066	76.7933089962899	0.0499672442238079
83065	50	53	0	0	patch	1125	53	0	stimuli\patch\patch_05s.jpg	4	-1	0	0	patch_05s.jpg	0	0	0	76.8433223204775	76.8933168713411	0.0499945508636301
83165	50	54	0	0	periscope	1155	54	0	stimuli\periscope\periscope_07s.jpg	6	-1	0	0	periscope_07s.jpg	0	0	0	76.9433601840428	76.993320601614	0.0499604175711283
83265	50	55	0	0	knife	879	55	0	stimuli\knife\knife_12s.jpg	11	-1	0	0	knife_12s.jpg	0	0	0	77.0433370953106	77.0933070214378	0.0499699261272326
83365	50	56	0	0	scallop	1373	56	0	stimuli\scallop\scallop_10s.jpg	9	-1	0	0	scallop_10s.jpg	0	0	0	77.1433293665614	77.1933214793244	0.0499921127629932
83465	50	57	0	0	handbrake	745	57	0	stimuli\handbrake\handbrake_02s.jpg	1	-1	0	0	handbrake_02s.jpg	0	0	0	77.2433404111216	77.2933291105583	0.0499886994366534
83565	50	58	0	0	knitting	880	58	0	stimuli\knitting\knitting_11s.jpg	10	-1	0	0	knitting_11s.jpg	0	0	0	77.3433487737784	77.3933157741994	0.0499670004210202
83665	50	59	0	0	rhubarb	1307	59	0	stimuli\rhubarb\rhubarb_02n.jpg	1	-1	0	0	rhubarb_02n.jpg	0	0	0	77.4433359250252	77.4933177978091	0.0499818727839738
83765	50	60	0	0	french_horn	642	60	0	stimuli\french_horn\french_horn_08s.jpg	7	-1	0	0	french_horn_08s.jpg	0	0	0	77.5433781771717	77.5933246976056	0.0499465204338776
83865	50	61	0	0	ruler	1341	61	0	stimuli\ruler\ruler_05s.jpg	4	-1	0	0	ruler_05s.jpg	0	0	0	77.6433446046431	77.6933279402729	0.0499833356298041
83965	50	62	0	0	calculator	240	62	0	stimuli\calculator\calculator_12s.jpg	11	-1	0	0	calculator_12s.jpg	0	0	0	77.7433483349159	77.7933272819937	0.0499789470777614
84065	50	63	0	0	grater	708	63	0	stimuli\grater\grater_05s.jpg	4	-1	0	0	grater_05s.jpg	0	0	0	77.843350602343	77.8933383265539	0.0499877242109505
84165	50	64	0	0	tooth	1678	64	0	stimuli\tooth\tooth_08s.jpg	7	-1	0	0	tooth_08s.jpg	0	0	0	77.9433655478497	77.9933423006441	0.0499767527944641
84265	50	65	0	0	polygraph	1217	65	0	stimuli\polygraph\polygraph_10s.jpg	9	-1	0	0	polygraph_10s.jpg	0	0	0	78.0433661086136	78.0933684613701	0.0500023527565645
84365	50	66	0	0	teapot	1634	66	0	stimuli\teapot\teapot_12s.jpg	11	-1	0	0	teapot_12s.jpg	0	0	0	78.1433695950836	78.1933390335907	0.0499694385071052
84465	50	67	0	0	recorder	1297	67	0	stimuli\recorder\recorder_11s.jpg	10	-1	0	0	recorder_11s.jpg	0	0	0	78.2433601596713	78.2933420324553	0.0499818727839738
84565	50	68	0	0	ear	538	68	0	stimuli\ear\ear_11s.jpg	10	-1	0	0	ear_11s.jpg	0	0	0	78.3433648651844	78.3933435684448	0.0499787032604218
84665	50	69	0	0	sheet	1415	69	0	stimuli\sheet\sheet_10s.jpg	9	-1	0	0	sheet_10s.jpg	0	0	0	78.4433649383282	78.4933492491982	0.0499843108700588
84765	50	70	0	0	leotard	918	70	0	stimuli\leotard\leotard_07s.jpg	6	-1	0	0	leotard_07s.jpg	0	0	0	78.5433718381246	78.5933505413996	0.0499787032749737
84865	50	71	0	0	pecan	1135	71	0	stimuli\pecan\pecan_08s.jpg	7	-1	0	0	pecan_08s.jpg	0	0	0	78.6433709360426	78.6933513459662	0.0499804099235917
84965	50	72	0	0	pulpit	1251	72	0	stimuli\pulpit\pulpit_05s.jpg	4	-1	0	0	pulpit_05s.jpg	0	0	0	78.7433758853585	78.7933516629128	0.0499757775542093
85065	50	73	0	0	stair	1532	73	0	stimuli\stair\stair_01b.jpg	0	-1	0	0	stair_01b.jpg	0	0	0	78.8433701070899	78.8933539303398	0.0499838232499314
85165	50	74	0	0	carriage	276	74	0	stimuli\carriage\carriage_12s.jpg	11	-1	0	0	carriage_12s.jpg	0	0	0	78.9433757878433	78.9933554663439	0.0499796785006765
85265	50	75	0	0	latte	901	75	0	stimuli\latte\latte_05s.jpg	4	-1	0	0	latte_05s.jpg	0	0	0	79.0434129199857	79.0933733375568	0.0499604175711283
85365	50	76	0	0	scrambled_egg	1386	76	0	stimuli\scrambled_egg\scrambled_egg_11s.jpg	10	-1	0	0	scrambled_egg_11s.jpg	0	0	0	79.1433939760173	79.1933734107006	0.0499794346833369
85465	50	77	0	0	sofa_bed	1492	77	0	stimuli\sofa_bed\sofa_bed_08s.jpg	7	-1	0	0	sofa_bed_08s.jpg	0	0	0	79.2434147729364	79.2933910381107	0.0499762651743367
85565	50	78	0	0	lectern	908	78	0	stimuli\lectern\lectern_06s.jpg	5	-1	0	0	lectern_06s.jpg	0	0	0	79.3434138708544	79.3933952560037	0.0499813851492945
85665	50	79	0	0	paintbrush	1097	79	0	stimuli\paintbrush\paintbrush_06s.jpg	5	-1	0	0	paintbrush_06s.jpg	0	0	0	79.443422477314	79.4933980110509	0.0499755337368697
85765	50	80	0	0	clothes	361	80	0	stimuli\clothes\clothes_09s.jpg	8	-1	0	0	clothes_09s.jpg	0	0	0	79.5434191371314	79.5934007660981	0.0499816289666342
85865	50	81	0	0	fish	600	81	0	stimuli\fish\fish_07s.jpg	6	-1	0	0	fish_07s.jpg	0	0	0	79.6434238426446	79.6934020582848	0.0499782156402944
85965	50	82	0	0	cornhusk	414	82	0	stimuli\cornhusk\cornhusk_12s.jpg	11	-1	0	0	cornhusk_12s.jpg	0	0	0	79.7434261100716	79.7934050571494	0.0499789470777614
86065	50	83	0	0	coal	367	83	0	stimuli\coal\coal_08s.jpg	7	-1	0	0	coal_08s.jpg	0	0	0	79.8434269146383	79.8934122007486	0.0499852861103136
86165	50	84	0	0	octopus	1070	84	0	stimuli\octopus\octopus_10s.jpg	9	-1	0	0	octopus_10s.jpg	0	0	0	79.9434333268291	79.9934125177097	0.0499791908805491
86265	50	85	0	0	gutter	729	85	0	stimuli\gutter\gutter_11s.jpg	10	-1	0	0	gutter_11s.jpg	0	0	0	80.0434333999729	80.0933974746731	0.0499640747002559
86365	50	86	0	0	dress	518	86	0	stimuli\dress\dress_11s.jpg	10	-1	0	1	dress_11s.jpg	0	0	0	80.1434354235826	80.1933985230571	0.049963099474553
86465	50	87	0	0	hawk	760	87	0	stimuli\hawk\hawk_10s.jpg	9	-1	0	0	hawk_10s.jpg	0	0	0	80.2434384224325	80.2934181009332	0.0499796785006765
86565	50	88	0	0	lock	940	88	0	stimuli\lock\lock_07s.jpg	6	-1	0	0	lock_07s.jpg	0	0	0	80.3434228917904	80.3934179302742	0.0499950384837575
86665	50	89	0	0	dynamite	536	89	0	stimuli\dynamite\dynamite_10s.jpg	9	-1	0	0	dynamite_10s.jpg	0	0	0	80.4434429572866	80.4934028872376	0.049959929951001
86765	50	90	0	0	printer	1240	90	0	stimuli\printer\printer_07s.jpg	6	-1	0	0	printer_07s.jpg	0	0	0	80.5434249885438	80.5933985718148	0.0499735832709121
86865	50	91	0	0	faucet	573	91	0	stimuli\faucet\faucet_04s.jpg	3	-1	0	0	faucet_04s.jpg	0	0	0	80.6434211607411	80.6934079097118	0.0499867489706958
86965	50	92	0	0	hula_hoop	810	92	0	stimuli\hula_hoop\hula_hoop_09s.jpg	8	-1	0	0	hula_hoop_09s.jpg	0	0	0	80.7434253786487	80.793411883802	0.0499865051533561
87065	50	93	0	0	car	267	93	0	stimuli\car\car_05s.jpg	4	-1	0	0	car_05s.jpg	0	0	0	80.8434412993956	80.8934180521755	0.0499767527799122
87165	50	94	0	0	pineapple	1182	94	0	stimuli\pineapple\pineapple_06s.jpg	5	-1	0	0	pineapple_06s.jpg	0	0	0	80.9434362525353	80.9934290967358	0.0499928442004602
87265	50	95	0	0	mirror	1005	95	0	stimuli\mirror\mirror_09s.jpg	8	-1	0	0	mirror_09s.jpg	0	0	0	81.0434472970956	81.0934216117894	0.0499743146938272
87365	50	96	0	0	patty	1126	96	0	stimuli\patty\patty_01b.jpg	0	-1	0	0	patty_01b.jpg	0	0	0	81.1434461511963	81.1934258296969	0.0499796785006765
87465	50	97	0	0	detonator	482	97	0	stimuli\detonator\detonator_04s.jpg	3	-1	0	0	detonator_04s.jpg	0	0	0	81.2434476871858	81.2934322418732	0.0499845546873985
87565	50	98	0	0	pet_food	1157	98	0	stimuli\pet_food\pet_food_12s.jpg	11	-1	0	0	pet_food_12s.jpg	1	0	0	81.3434550746169	81.3934271950275	0.0499721204105299
87665	50	99	0	0	velcro	1756	99	0	stimuli\velcro\velcro_12s.jpg	11	-1	0	0	velcro_12s.jpg	0	0	0	81.4434492963337	81.493434582444	0.0499852861103136
87765	50	100	0	0	container	398	100	0	stimuli\container\container_06s.jpg	5	-1	0	0	container_06s.jpg	0	0	0	81.5434593656537	81.5934348993906	0.0499755337368697
87865	50	101	0	0	showerhead	1436	101	0	stimuli\showerhead\showerhead_07s.jpg	6	-1	0	0	showerhead_07s.jpg	0	0	0	81.6434618768835	81.6934354601544	0.0499735832709121
87965	50	102	0	0	handprint	750	102	0	stimuli\handprint\handprint_05s.jpg	4	-1	0	0	handprint_05s.jpg	0	0	0	81.7434539043315	81.7934309009288	0.0499769965972519
88065	50	103	0	0	car_door	268	103	0	stimuli\car_door\car_door_05s.jpg	4	-1	0	0	car_door_05s.jpg	0	0	0	81.8434827469609	81.8934590121353	0.0499762651743367
88165	50	104	0	0	boa	150	104	0	stimuli\boa\boa_06s.jpg	5	-1	0	0	boa_06s.jpg	0	0	0	81.9435013496113	81.993459085279	0.0499577356677037
88265	50	105	0	0	knitting_needle	881	105	0	stimuli\knitting_needle\knitting_needle_07s.jpg	6	-1	0	0	knitting_needle_07s.jpg	0	0	0	82.0434836246714	82.0934608650859	0.0499772404145915
88365	50	106	0	0	rosary	1333	106	0	stimuli\rosary\rosary_11s.jpg	10	-1	0	0	rosary_11s.jpg	0	0	0	82.1434819911519	82.1934519172792	0.0499699261272326
88465	50	107	0	0	rattlesnake	1288	107	0	stimuli\rattlesnake\rattlesnake_08s.jpg	7	-1	0	0	rattlesnake_08s.jpg	0	0	0	82.2434713366965	82.2935017275158	0.0500303908193018
88565	50	108	0	0	lumber	949	108	0	stimuli\lumber\lumber_05s.jpg	4	-1	0	0	lumber_05s.jpg	0	0	0	82.3434967659996	82.3934649854637	0.0499682194640627
88665	50	109	0	0	horse	798	109	0	stimuli\horse\horse_05s.jpg	4	-1	0	0	horse_05s.jpg	0	0	0	82.4434980581864	82.4934621328866	0.0499640747002559
88765	50	110	0	0	air_conditioner	4	110	0	stimuli\air_conditioner\air_conditioner_01b.jpg	0	-1	0	0	air_conditioner_01b.jpg	0	0	0	82.5435003256134	82.593464644131	0.0499643185175955
88865	50	111	0	0	slug	1472	111	0	stimuli\slug\slug_11s.jpg	10	-1	0	0	slug_11s.jpg	0	0	0	82.6435306311032	82.6934878791508	0.0499572480475763
88965	50	112	0	0	kettle	868	112	0	stimuli\kettle\kettle_02s.jpg	1	-1	0	0	kettle_02s.jpg	0	0	0	82.7434904757101	82.7934713732539	0.049980897543719
89065	50	113	0	0	bat2	88	113	0	stimuli\bat2\bat2_09s.jpg	8	-1	0	0	bat2_09s.jpg	0	0	0	82.8434934745746	82.8934892444813	0.0499957699066726
89165	50	114	0	0	cup	460	114	0	stimuli\cup\cup_05s.jpg	4	-1	0	0	cup_05s.jpg	0	0	0	82.9434957420017	82.9934783462086	0.0499826042068889
89265	50	115	0	0	cd_player	290	115	0	stimuli\cd_player\cd_player_03s.jpg	2	-1	0	0	cd_player_03s.jpg	0	0	0	83.0434972779913	83.0934747622086	0.0499774842173792
89365	50	116	0	0	mop	1019	116	0	stimuli\mop\mop_02s.jpg	1	-1	0	0	mop_02s.jpg	0	0	0	83.1434934501885	83.1934697153629	0.0499762651743367
89465	50	117	0	0	wick	1815	117	0	stimuli\wick\wick_06s.jpg	5	-1	0	1	wick_06s.jpg	0	0	0	83.2434993747593	83.2934775903996	0.0499782156402944
89565	50	118	0	0	shortbread	1429	118	0	stimuli\shortbread\shortbread_08s.jpg	7	-1	0	0	shortbread_08s.jpg	0	0	0	83.3435204154957	83.3934783949662	0.0499579794704914
89665	50	119	0	0	trombone	1716	119	0	stimuli\trombone\trombone_06s.jpg	5	-1	0	0	trombone_06s.jpg	0	0	0	83.4435031781759	83.4934911461896	0.0499879680137383
89765	50	120	0	0	leg	911	120	0	stimuli\leg\leg_09s.jpg	8	-1	0	0	leg_09s.jpg	0	0	0	83.5435086151265	83.5934875621897	0.0499789470632095
89865	50	121	0	0	ribbon	1308	121	0	stimuli\ribbon\ribbon_12s.jpg	11	-1	0	0	ribbon_12s.jpg	1	0.44192353800463	1	83.6435052749439	83.6935115286469	0.0500062537030317
89965	50	122	0	0	dresser	519	122	0	stimuli\dresser\dresser_11s.jpg	10	-1	0	0	dresser_11s.jpg	0	0	0	83.7435092490341	83.7935157465399	0.0500064975058194
90065	50	123	0	0	chili	327	123	0	stimuli\chili\chili_09s.jpg	8	-1	0	0	chili_09s.jpg	0	0	0	83.843534190717	83.8935004597006	0.0499662689835532
90165	50	124	0	0	space_shuttle	1501	124	0	stimuli\space_shuttle\space_shuttle_05s.jpg	4	-1	0	0	space_shuttle_05s.jpg	0	0	0	83.9435435286141	83.9935063842713	0.0499628556572134
90265	50	125	0	0	jersey	846	125	0	stimuli\jersey\jersey_11s.jpg	10	-1	0	0	jersey_11s.jpg	0	0	0	84.0435214151075	84.0935013374256	0.0499799223180162
90365	50	126	0	0	sparkler	1507	126	0	stimuli\sparkler\sparkler_07s.jpg	6	-1	0	0	sparkler_07s.jpg	0	0	0	84.1435236825346	84.1935050676984	0.0499813851638464
90465	50	127	0	0	dragonfly	514	127	0	stimuli\dragonfly\dragonfly_07s.jpg	6	-1	0	0	dragonfly_07s.jpg	0	0	0	84.2435249747214	84.2935041656019	0.0499791908805491
90565	50	128	0	0	stingray	1556	128	0	stimuli\stingray\stingray_02s.jpg	1	-1	0	0	stingray_02s.jpg	0	0	0	84.3435243164422	84.3935054577887	0.0499811413465068
90665	50	129	0	0	terrarium	1644	129	0	stimuli\terrarium\terrarium_02s.jpg	1	-1	0	0	terrarium_02s.jpg	0	0	0	84.4435273152922	84.4935089442733	0.0499816289811861
90765	50	130	0	0	groundhog	718	130	0	stimuli\groundhog\groundhog_12n.jpg	11	-1	0	0	groundhog_12n.jpg	0	0	0	84.5435322646226	84.5935090174171	0.0499767527944641
90865	50	131	0	0	cornmeal	415	131	0	stimuli\cornmeal\cornmeal_05s.jpg	4	-1	0	0	cornmeal_05s.jpg	0	0	0	84.6435328253865	84.693544199079	0.0500113736925414
90965	50	132	0	0	silicone	1444	132	0	stimuli\silicone\silicone_12s.jpg	11	-1	0	0	silicone_12s.jpg	0	0	0	84.7435565480264	84.7935235484474	0.0499670004210202
91065	50	133	0	0	razor_blade	1291	133	0	stimuli\razor_blade\razor_blade_09s.jpg	8	-1	0	0	razor_blade_09s.jpg	0	0	0	84.8435614973569	84.8935384939541	0.0499769965972519
91165	50	134	0	0	headrest	767	134	0	stimuli\headrest\headrest_04s.jpg	3	-1	0	0	headrest_04s.jpg	0	0	0	84.9435435286141	84.9935222318745	0.0499787032604218
91265	50	135	0	0	notepad	1065	135	0	stimuli\notepad\notepad_06s.jpg	5	-1	0	0	notepad_06s.jpg	0	0	0	85.0435443331808	85.0935218173981	0.0499774842173792
91365	50	136	0	0	slingshot	1467	136	0	stimuli\slingshot\slingshot_01b.jpg	0	-1	0	0	slingshot_01b.jpg	0	0	0	85.1435434310843	85.1935523666907	0.0500089356064564
91465	50	137	0	0	saffron	1345	137	0	stimuli\saffron\saffron_03s.jpg	2	-1	0	0	saffron_03s.jpg	0	0	0	85.2435734927712	85.2935507331713	0.0499772404000396
91565	50	138	0	0	cash_register	280	138	0	stimuli\cash_register\cash_register_05s.jpg	4	-1	0	0	cash_register_05s.jpg	0	0	0	85.343573565915	85.3935415415617	0.0499679756467231
91665	50	139	0	0	sickle	1441	139	0	stimuli\sickle\sickle_10s.jpg	9	-1	0	0	sickle_10s.jpg	0	0	0	85.4435738828615	85.4935589251691	0.0499850423075259
91765	50	140	0	0	potpourri	1235	140	0	stimuli\potpourri\potpourri_12s.jpg	11	-1	0	0	potpourri_12s.jpg	0	0	0	85.5435783445719	85.5935485145164	0.0499701699445723
91865	50	141	0	0	dice	486	141	0	stimuli\dice\dice_02s.jpg	1	-1	0	0	dice_02s.jpg	0	0	0	85.6435815872392	85.6935471247998	0.049965537560638
91965	50	142	0	0	snowball	1480	142	0	stimuli\snowball\snowball_07s.jpg	6	-1	0	0	snowball_07s.jpg	0	0	0	85.7435709327692	85.7935442722228	0.0499733394535724
92065	50	143	0	0	mongoose	1016	143	0	stimuli\mongoose\mongoose_11s.jpg	10	-1	0	0	mongoose_11s.jpg	0	0	0	85.8435661297262	85.8935448329867	0.0499787032604218
92165	50	144	0	0	crate	433	144	0	stimuli\crate\crate_09s.jpg	8	-1	0	0	crate_09s.jpg	0	0	0	85.9435683971533	85.9935475880338	0.0499791908805491
92265	50	145	0	0	quilt	1264	145	0	stimuli\quilt\quilt_11s.jpg	10	-1	0	0	quilt_11s.jpg	0	0	0	86.0435967521771	86.0935510745039	0.049954322326812
92365	50	146	0	0	bat1	87	146	0	stimuli\bat1\bat1_02s.jpg	1	-1	0	0	bat1_02s.jpg	0	0	0	86.1435722005845	86.1935543171712	0.0499821165867615
92465	50	147	0	0	pita	1189	147	0	stimuli\pita\pita_07s.jpg	6	-1	0	0	pita_07s.jpg	0	0	0	86.2435766622948	86.2935536588775	0.0499769965826999
92565	50	148	0	0	shredder	1437	148	0	stimuli\shredder\shredder_11s.jpg	10	-1	0	0	shredder_11s.jpg	0	0	0	86.3435745411407	86.3935581205878	0.0499835794471437
92665	50	149	0	0	poker	1210	149	0	stimuli\poker\poker_11s.jpg	10	-1	0	0	poker_11s.jpg	0	0	0	86.4436038714048	86.493580868002	0.0499769965972519
92765	50	150	0	0	baseball_bat	79	150	0	stimuli\baseball_bat\baseball_bat_05s.jpg	4	-1	0	0	baseball_bat_05s.jpg	0	0	0	86.5436041883513	86.5935824039916	0.0499782156402944
92865	50	151	0	0	hairdryer	735	151	0	stimuli\hairdryer\hairdryer_09s.jpg	8	-1	0	0	hairdryer_09s.jpg	0	0	0	86.6435906081751	86.6935910104658	0.0500004022906069
92965	50	152	0	0	plant	1194	152	0	stimuli\plant\plant_11s.jpg	10	-1	0	0	plant_11s.jpg	0	0	0	86.7436079917825	86.7935881578887	0.049980166106252
93065	50	153	0	0	soda	1490	153	0	stimuli\soda\soda_09s.jpg	8	-1	0	0	soda_09s.jpg	0	0	0	86.8436092839693	86.893590181513	0.049980897543719
93165	50	154	0	0	pickle	1167	154	0	stimuli\pickle\pickle_11s.jpg	10	-1	0	0	pickle_11s.jpg	0	0	0	86.9436144771025	86.9935800146632	0.049965537560638
93265	50	155	0	0	gramophone	699	155	0	stimuli\gramophone\gramophone_10n.jpg	9	-1	0	0	gramophone_10n.jpg	0	0	0	87.0435945578938	87.0935742363799	0.0499796784861246
93365	50	156	0	0	cockroach	373	156	0	stimuli\cockroach\cockroach_09s.jpg	8	-1	0	0	cockroach_09s.jpg	0	0	0	87.1435931681772	87.1935762600042	0.0499830918270163
93465	50	157	0	0	fishnet_stockings	604	157	0	stimuli\fishnet_stockings\fishnet_stockings_06s.jpg	5	-1	0	0	fishnet_stockings_06s.jpg	0	0	0	87.2435971422674	87.2935819407576	0.0499847984901862
93565	50	158	0	0	computer_screen	395	158	0	stimuli\computer_screen\computer_screen_05s.jpg	4	-1	0	0	computer_screen_05s.jpg	0	0	0	87.3436055049242	87.393586890088	0.0499813851638464
93665	50	159	0	0	chisel	336	159	0	stimuli\chisel\chisel_06s.jpg	5	-1	0	0	chisel_06s.jpg	0	0	0	87.4436082599714	87.493587938472	0.0499796785006765
93765	50	160	0	0	tackle	1612	160	0	stimuli\tackle\tackle_06s.jpg	5	-1	0	0	tackle_06s.jpg	0	0	0	87.5436263750016	87.5936104420543	0.0499840670527192
93865	50	161	0	0	yolk	1850	161	0	stimuli\yolk\yolk_04s.jpg	3	-1	0	0	yolk_04s.jpg	0	0	0	87.6436354690813	87.6936141723418	0.0499787032604218
93965	50	162	0	0	pedometer	1137	162	0	stimuli\pedometer\pedometer_12s.jpg	11	-1	0	0	pedometer_12s.jpg	0	0	0	87.7436331041245	87.7935976664594	0.0499645623349352
94065	50	163	0	0	butterfly	229	163	0	stimuli\butterfly\butterfly_02s.jpg	1	-1	0	0	butterfly_02s.jpg	0	0	0	87.8436356153688	87.8936004215066	0.0499648061377229
94165	50	164	0	0	wreck	1840	164	0	stimuli\wreck\wreck_11s.jpg	10	-1	0	0	wreck_11s.jpg	0	0	0	87.9436410523194	87.9936051270197	0.0499640747002559
94265	50	165	0	0	chute	342	165	0	stimuli\chute\chute_12s.jpg	11	-1	0	0	chute_12s.jpg	0	0	0	88.0436221083364	88.0936010553996	0.0499789470632095
94365	50	166	0	0	blinder	141	166	0	stimuli\blinder\blinder_03s.jpg	2	-1	0	0	blinder_03s.jpg	0	0	0	88.1436231567204	88.1936094180564	0.0499862613360165
94465	50	167	0	0	kneepad	878	167	0	stimuli\kneepad\kneepad_03s.jpg	2	-1	0	0	kneepad_03s.jpg	0	0	0	88.2436261555704	88.2936072969169	0.0499811413465068
94565	50	168	0	0	robe	1317	168	0	stimuli\robe\robe_02s.jpg	1	-1	0	0	robe_02s.jpg	0	0	0	88.3436281791801	88.393610783387	0.0499826042068889
94665	50	169	0	0	pom-pom	1218	169	0	stimuli\pom-pom\pom-pom_11s.jpg	10	-1	0	0	pom-pom_11s.jpg	0	0	0	88.4436470256333	88.4936235346104	0.0499765089771245
94765	50	170	0	0	peg	1139	170	0	stimuli\peg\peg_09s.jpg	8	-1	0	0	peg_09s.jpg	0	0	0	88.5436456359312	88.5936255582346	0.0499799223034643
94865	50	171	0	0	throne	1652	171	0	stimuli\throne\throne_08s.jpg	7	-1	0	0	throne_08s.jpg	0	0	0	88.6436488785839	88.6936353837518	0.049986505167908
94965	50	172	0	0	paper	1112	172	0	stimuli\paper\paper_07s.jpg	6	-1	0	0	paper_07s.jpg	0	0	0	88.7436526088713	88.7936210721382	0.0499684632668504
95065	50	173	0	0	shoe	1423	173	0	stimuli\shoe\shoe_11s.jpg	10	-1	0	0	shoe_11s.jpg	0	0	0	88.8436426858389	88.8936221205222	0.0499794346833369
95165	50	174	0	0	trapdoor	1703	174	0	stimuli\trapdoor\trapdoor_04s.jpg	3	-1	0	0	trapdoor_04s.jpg	0	0	0	88.9436483665922	88.9936219498632	0.0499735832709121
95265	50	175	0	0	latch	900	175	0	stimuli\latch\latch_12s.jpg	11	-1	0	0	latch_12s.jpg	0	0	0	89.0436455140152	89.0936278744193	0.0499823604041012
95365	50	176	0	0	grape	702	176	0	stimuli\grape\grape_02s.jpg	1	-1	0	0	grape_02s.jpg	0	0	0	89.1436490004999	89.193657692289	0.0500086917891167
95465	50	177	0	0	rocking_chair	1321	177	0	stimuli\rocking_chair\rocking_chair_01b.jpg	0	-1	0	0	rocking_chair_01b.jpg	0	0	0	89.2436754050432	89.2936526454432	0.0499772404000396
95565	50	178	0	0	bracket	189	178	0	stimuli\bracket\bracket_04s.jpg	3	-1	0	0	bracket_04s.jpg	0	0	0	89.3436798667535	89.3936546690529	0.0499748022994027
95665	50	179	0	0	orange	1078	179	0	stimuli\orange\orange_01b.jpg	0	-1	0	0	orange_01b.jpg	0	0	0	89.4436614103906	89.4936581555376	0.0499967451469274
95765	50	180	0	0	air_pump	6	180	0	stimuli\air_pump\air_pump_09s.jpg	8	-1	0	0	air_pump_09s.jpg	0	0	0	89.5436836701701	89.5936426248809	0.0499589547107462
95865	50	181	0	0	canister	259	181	0	stimuli\canister\canister_07s.jpg	6	-1	0	0	canister_07s.jpg	0	0	0	89.6436647261871	89.6936651284777	0.0500004022906069
95965	50	182	0	0	fossil	636	182	0	stimuli\fossil\fossil_01b.jpg	0	-1	0	0	fossil_01b.jpg	0	0	0	89.7436696755176	89.7936688587652	0.0499991832475644
96065	50	183	0	0	camera_lens	248	183	0	stimuli\camera_lens\camera_lens_11s.jpg	10	-1	0	0	camera_lens_11s.jpg	0	0	0	89.8436853524618	89.8936516214453	0.0499662689835532
96165	50	184	0	0	jack	835	184	0	stimuli\jack\jack_07s.jpg	6	-1	0	0	jack_07s.jpg	0	0	0	89.943689326552	89.9936694926582	0.049980166106252
96265	50	185	0	0	floss	617	185	0	stimuli\floss\floss_06s.jpg	5	-1	0	0	floss_06s.jpg	0	0	0	90.0436903749214	90.0936722477054	0.0499818727839738
96365	50	186	0	0	eggplant	550	186	0	stimuli\eggplant\eggplant_07s.jpg	6	-1	0	0	eggplant_07s.jpg	0	0	0	90.1436914233054	90.1936752465554	0.0499838232499314
96465	50	187	0	0	veil	1755	187	0	stimuli\veil\veil_04s.jpg	3	-1	0	0	veil_04s.jpg	0	0	0	90.2436941783526	90.2936638606625	0.049969682309893
96565	50	188	0	0	popcorn	1223	188	0	stimuli\popcorn\popcorn_11s.jpg	10	-1	0	0	popcorn_11s.jpg	0	0	0	90.3436974210199	90.3936802690296	0.0499828480096767
96665	50	189	0	0	shoulder	1431	189	0	stimuli\shoulder\shoulder_07s.jpg	6	-1	0	0	shoulder_07s.jpg	0	0	0	90.4437050522392	90.49367814789	0.0499730956507847
96765	50	190	0	0	bologna	158	190	0	stimuli\bologna\bologna_02s.jpg	1	-1	0	0	bologna_02s.jpg	0	0	0	90.5436870834965	90.5936843162635	0.0499972327670548
96865	50	191	0	0	mallet	962	191	0	stimuli\mallet\mallet_03s.jpg	2	-1	0	0	mallet_03s.jpg	0	0	0	90.6437066613871	90.6936858522677	0.0499791908805491
96965	50	192	0	0	oatmeal	1069	192	0	stimuli\oatmeal\oatmeal_02s.jpg	1	-1	0	1	oatmeal_02s.jpg	0	0	0	90.7437142926065	90.793690313978	0.049976021371549
97065	50	193	0	0	valve	1751	193	0	stimuli\valve\valve_12s.jpg	11	-1	0	0	valve_12s.jpg	0	0	0	90.8436968114838	90.8936974575772	0.0500006460933946
97165	50	194	0	0	barcode	73	194	0	stimuli\barcode\barcode_03s.jpg	2	-1	0	0	barcode_03s.jpg	0	0	0	90.9437156579515	90.9936833897955	0.0499677318439353
97265	50	195	0	0	album	11	195	0	stimuli\album\album_01s.jpg	0	-1	0	0	album_01s.jpg	1	0.292177599447314	1	91.0436930568248	91.0936771238921	0.0499840670672711
97365	50	196	0	0	game	654	196	0	stimuli\game\game_10s.jpg	9	-1	0	0	game_10s.jpg	0	0	0	91.1437006880587	91.1937047474785	0.0500040594197344
97465	50	197	0	0	goblet	685	197	0	stimuli\goblet\goblet_05s.jpg	4	-1	0	0	goblet_05s.jpg	0	0	0	91.2437222164153	91.2937001882528	0.0499779718375066
97565	50	198	0	0	chess_piece	317	198	0	stimuli\chess_piece\chess_piece_06s.jpg	5	-1	0	0	chess_piece_06s.jpg	0	0	0	91.3437259467028	91.3936807566497	0.0499548099469393
97665	50	199	0	0	triangle	1710	199	0	stimuli\triangle\triangle_07s.jpg	6	-1	0	0	triangle_07s.jpg	0	0	0	91.4437045646191	91.4936918012099	0.0499872365908232
97765	50	200	0	0	penholder	1146	200	0	stimuli\penholder\penholder_08s.jpg	7	-1	0	0	penholder_08s.jpg	0	0	0	91.5437087825267	91.59368821721	0.0499794346833369
97865	50	201	0	0	owl	1091	201	0	stimuli\owl\owl_01b.jpg	0	-1	0	0	owl_01b.jpg	0	0	0	91.643712025194	91.6936919474974	0.0499799223034643
97965	50	202	0	0	nightshirt	1058	202	0	stimuli\nightshirt\nightshirt_12s.jpg	11	-1	0	0	nightshirt_12s.jpg	0	0	0	91.7437120983232	91.7936932396842	0.0499811413610587
98065	50	203	0	0	maple_syrup	971	203	0	stimuli\maple_syrup\maple_syrup_03s.jpg	2	-1	0	0	maple_syrup_03s.jpg	0	0	0	91.8437146095675	91.8936930690106	0.0499784594430821
98165	50	204	0	0	cuckoo_clock	456	204	0	stimuli\cuckoo_clock\cuckoo_clock_05s.jpg	4	-1	0	0	cuckoo_clock_05s.jpg	0	0	0	91.9437146827113	91.9936960678751	0.0499813851638464
98265	50	205	0	0	scale	1371	205	0	stimuli\scale\scale_05s.jpg	4	-1	0	0	scale_05s.jpg	0	0	0	92.0437203634647	92.0937022362486	0.0499818727839738
98365	50	206	0	0	counter	424	206	0	stimuli\counter\counter_01b.jpg	0	-1	0	0	counter_01b.jpg	0	0	0	92.1437226308917	92.1937105989055	0.0499879680137383
98465	50	207	0	0	flamethrower	607	207	0	stimuli\flamethrower\flamethrower_04s.jpg	3	-1	0	0	flamethrower_04s.jpg	0	0	0	92.2437141707051	92.2937062834826	0.0499921127775451
98565	50	208	0	0	teddy_bear	1635	208	0	stimuli\teddy_bear\teddy_bear_07s.jpg	6	-1	0	0	teddy_bear_07s.jpg	0	0	0	92.3437264343083	92.3937051375688	0.0499787032604218
98665	50	209	0	0	banana_split	65	209	0	stimuli\banana_split\banana_split_04s.jpg	3	-1	0	0	banana_split_04s.jpg	0	0	0	92.4437199246022	92.4936976526369	0.0499777280347189
98765	50	210	0	0	hearing_aid	770	210	0	stimuli\hearing_aid\hearing_aid_11s.jpg	10	-1	0	0	hearing_aid_11s.jpg	0	0	0	92.5437236548896	92.5937118667061	0.049988211816526
98865	50	211	0	0	mouse1	1026	211	0	stimuli\mouse1\mouse1_05s.jpg	4	-1	0	0	mouse1_05s.jpg	0	0	0	92.64373518707	92.6937155969936	0.0499804099235917
98965	50	212	0	0	sleeping_bag	1462	212	0	stimuli\sleeping_bag\sleeping_bag_11s.jpg	10	-1	0	0	sleeping_bag_11s.jpg	0	0	0	92.7437286773638	92.7936961653904	0.0499674880265957
99065	50	213	0	0	chick	321	213	0	stimuli\chick\chick_04s.jpg	3	-1	0	0	chick_04s.jpg	0	0	0	92.8437582514161	92.8937374422967	0.0499791908805491
99165	50	214	0	0	speedometer	1512	214	0	stimuli\speedometer\speedometer_06s.jpg	5	-1	0	0	speedometer_06s.jpg	1	0	0	92.943735650304	92.9937141097616	0.049978459457634
99265	50	215	0	0	chainsaw	299	215	0	stimuli\chainsaw\chainsaw_01b.jpg	0	-1	0	0	chainsaw_01b.jpg	0	0	0	93.0437354796304	93.0937229600386	0.0499874804081628
99365	50	216	0	0	duffel_bag	529	216	0	stimuli\duffel_bag\duffel_bag_05s.jpg	4	-1	0	0	duffel_bag_05s.jpg	0	0	0	93.1437474994309	93.1937322979211	0.0499847984901862
99465	50	217	0	0	keyhole	871	217	0	stimuli\keyhole\keyhole_10s.jpg	9	-1	0	0	keyhole_10s.jpg	0	0	0	93.2437436716282	93.2937318834447	0.049988211816526
99565	50	218	0	0	whiteboard	1813	218	0	stimuli\whiteboard\whiteboard_11s.jpg	10	-1	0	0	whiteboard_11s.jpg	0	0	0	93.343757885712	93.3937378080154	0.0499799223034643
99665	50	219	0	0	crepe	440	219	0	stimuli\crepe\crepe_09s.jpg	8	-1	0	0	crepe_09s.jpg	0	0	0	93.4437557645724	93.4937376373564	0.0499818727839738
99765	50	220	0	0	teepee	1637	220	0	stimuli\teepee\teepee_06s.jpg	5	-1	0	0	teepee_06s.jpg	0	0	0	93.5437587634224	93.5937362476398	0.0499774842173792
99865	50	221	0	0	keyboard	870	221	0	stimuli\keyboard\keyboard_12s.jpg	11	-1	0	0	keyboard_12s.jpg	0	0	0	93.6437717584486	93.6937382712495	0.0499665128008928
99965	50	222	0	0	plunger	1204	222	0	stimuli\plunger\plunger_12s.jpg	11	-1	0	0	plunger_12s.jpg	0	0	0	93.7437913363392	93.7937446834403	0.0499533471011091
100065	50	223	0	0	vegetable	1754	223	0	stimuli\vegetable\vegetable_12s.jpg	11	-1	0	0	vegetable_12s.jpg	0	0	0	93.8437819009268	93.8937632860761	0.0499813851492945
100165	50	224	0	0	wheat	1805	224	0	stimuli\wheat\wheat_10s.jpg	9	-1	0	0	wheat_10s.jpg	0	0	0	93.9437629569438	93.9937506811402	0.0499877241963986
100265	50	225	0	0	sundae	1582	225	0	stimuli\sundae\sundae_04s.jpg	3	-1	0	0	sundae_04s.jpg	0	0	0	94.0437864357664	94.0937517295242	0.0499652937578503
100365	50	226	0	0	dollhouse	500	226	0	stimuli\dollhouse\dollhouse_12s.jpg	11	-1	0	0	dollhouse_12s.jpg	0	0	0	94.1437906536739	94.1937720388378	0.0499813851638464
100465	50	227	0	0	polaroid	1212	227	0	stimuli\polaroid\polaroid_01b.jpg	0	-1	0	0	polaroid_01b.jpg	0	0	0	94.2437953591871	94.2937733310246	0.0499779718375066
100565	50	228	0	0	finger	588	228	0	stimuli\finger\finger_01b.jpg	0	-1	0	0	finger_01b.jpg	0	0	0	94.3437976266141	94.3937785241578	0.049980897543719
100665	50	229	0	0	kiwi	876	229	0	stimuli\kiwi\kiwi_12s.jpg	11	-1	0	0	kiwi_12s.jpg	0	0	0	94.4437986749981	94.4937832296855	0.0499845546873985
100765	50	230	0	0	corsage	417	230	0	stimuli\corsage\corsage_12s.jpg	11	-1	0	1	corsage_12s.jpg	0	0	0	94.5437997233821	94.5937647733226	0.0499650499405107
100865	50	231	0	0	wreath	1839	231	0	stimuli\wreath\wreath_06s.jpg	5	-1	0	0	wreath_06s.jpg	0	0	0	94.6438024784147	94.6937872769195	0.0499847985047381
100965	50	232	0	0	tuba	1723	232	0	stimuli\tuba\tuba_01b.jpg	0	-1	0	0	tuba_01b.jpg	0	0	0	94.7438066963223	94.7937853995827	0.0499787032604218
101065	50	233	0	0	tee	1636	233	0	stimuli\tee\tee_02s.jpg	1	-1	0	0	tee_02s.jpg	0	0	0	94.8437819009268	94.8937779146363	0.0499960137094604
101165	50	234	0	0	baseball	78	234	0	stimuli\baseball\baseball_05s.jpg	4	-1	0	0	baseball_05s.jpg	1	0.392238381085917	1	94.9437861188198	94.9937782315974	0.0499921127775451
101265	50	235	0	0	funnel	649	235	0	stimuli\funnel\funnel_02s.jpg	1	-1	0	0	funnel_02s.jpg	0	0	0	95.0437993576634	95.09377391616	0.0499745584966149
101365	50	236	0	0	hydrant	814	236	0	stimuli\hydrant\hydrant_09s.jpg	8	-1	0	0	hydrant_09s.jpg	0	0	0	95.1437984555669	95.1938066597504	0.0500082041835412
101465	50	237	0	0	log	943	237	0	stimuli\log\log_12s.jpg	11	-1	0	0	log_12s.jpg	0	0	0	95.2438190086832	95.2937984433811	0.0499794346978888
101565	50	238	0	0	bowl	177	238	0	stimuli\bowl\bowl_03s.jpg	2	-1	0	0	bowl_03s.jpg	0	0	0	95.3438195694471	95.3938248479244	0.0500052784773288
101665	50	239	0	0	blind	140	239	0	stimuli\blind\blind_05s.jpg	4	-1	0	0	blind_05s.jpg	0	0	0	95.4438250063977	95.4938100487052	0.0499850423075259
101765	50	240	0	0	stick	1552	240	0	stimuli\stick\stick_04s.jpg	3	-1	0	0	stick_04s.jpg	0	0	0	95.5438116700243	95.593792567568	0.049980897543719
101865	50	241	0	0	baton2	93	241	0	stimuli\baton2\baton2_06s.jpg	5	-1	0	0	baton2_06s.jpg	0	0	0	95.6438319793378	95.6938077568921	0.0499757775542093
101965	50	242	0	0	possum	1228	242	0	stimuli\possum\possum_05s.jpg	4	-1	0	0	possum_05s.jpg	0	0	0	95.7438047458418	95.7937853995827	0.0499806537409313
102065	50	243	0	0	airboat	8	243	0	stimuli\airboat\airboat_12s.jpg	11	-1	0	0	airboat_12s.jpg	0	0	0	95.8438048189855	95.8938005889067	0.0499957699212246
102165	50	244	0	0	ruby	1338	244	0	stimuli\ruby\ruby_12s.jpg	11	-1	0	0	ruby_12s.jpg	0	0	0	95.9438197644922	95.9938026125164	0.0499828480242286
102265	50	245	0	0	sunflower	1584	245	0	stimuli\sunflower\sunflower_06s.jpg	5	-1	0	0	sunflower_06s.jpg	0	0	0	96.0438239823998	96.0937902513833	0.0499662689835532
102365	50	246	0	0	food_processor	627	246	0	stimuli\food_processor\food_processor_06s.jpg	5	-1	0	0	food_processor_06s.jpg	0	0	0	96.1438435602759	96.1938030026067	0.0499594423308736
102465	50	247	0	0	comb	389	247	0	stimuli\comb\comb_03s.jpg	2	-1	0	0	comb_03s.jpg	0	0	0	96.2438294924941	96.2938064890768	0.0499769965826999
102565	50	248	0	0	lettuce	920	248	0	stimuli\lettuce\lettuce_10n.jpg	9	-1	0	0	lettuce_10n.jpg	0	0	0	96.343818350404	96.3938404517103	0.0500221013062401
102665	50	249	0	0	matchbox	984	249	0	stimuli\matchbox\matchbox_04s.jpg	3	-1	0	0	matchbox_04s.jpg	0	0	0	96.4438476806536	96.4938295534375	0.0499818727839738
102765	50	250	0	0	washboard	1782	250	0	stimuli\washboard\washboard_11s.jpg	10	-1	0	0	washboard_11s.jpg	0	0	0	96.543851410941	96.5938210932509	0.049969682309893
102865	50	251	0	0	undershirt	1744	251	0	stimuli\undershirt\undershirt_07s.jpg	6	-1	0	0	undershirt_07s.jpg	0	0	0	96.6438368555246	96.6938194597315	0.0499826042068889
102965	50	252	0	0	glue	681	252	0	stimuli\glue\glue_04s.jpg	3	-1	0	0	glue_04s.jpg	0	0	0	96.7438391229516	96.7938202643127	0.0499811413610587
103065	50	253	0	0	bin	125	253	0	stimuli\bin\bin_11s.jpg	10	-1	0	0	bin_11s.jpg	0	0	0	96.8438401713356	96.8938244822057	0.0499843108700588
103165	50	254	0	0	fire_hydrant	592	254	0	stimuli\fire_hydrant\fire_hydrant_01b.jpg	0	-1	0	0	fire_hydrant_01b.jpg	0	0	0	96.9438502406556	96.9938284562959	0.0499782156402944
103265	50	255	0	0	orchid	1081	255	0	stimuli\orchid\orchid_01b.jpg	0	-1	0	0	orchid_01b.jpg	0	0	0	97.043848119516	97.0938282856368	0.0499801661208039
103365	50	256	0	0	lamb_chop	890	256	0	stimuli\lamb_chop\lamb_chop_04s.jpg	3	-1	0	0	lamb_chop_04s.jpg	0	0	0	97.1438530688465	97.1938339663902	0.049980897543719
103465	50	257	0	0	wineglass	1826	257	0	stimuli\wineglass\wineglass_07s.jpg	6	-1	0	0	wineglass_07s.jpg	0	0	0	97.2438531419903	97.2938320890535	0.0499789470632095
103565	50	258	0	0	chalkboard	303	258	0	stimuli\chalkboard\chalkboard_11s.jpg	10	-1	0	0	chalkboard_11s.jpg	0	0	0	97.3438529713167	97.3938346002979	0.0499816289811861
103665	50	259	0	0	beaver	107	259	0	stimuli\beaver\beaver_07s.jpg	6	-1	0	1	beaver_07s.jpg	0	0	0	97.4438827891863	97.4938583229377	0.0499755337514216
103765	50	260	0	0	toucan	1690	260	0	stimuli\toucan\toucan_09s.jpg	8	-1	0	0	toucan_09s.jpg	0	0	0	97.5438762794802	97.5938583960669	0.0499821165867615
103865	50	261	0	0	harness	754	261	0	stimuli\harness\harness_12s.jpg	11	-1	0	0	harness_12s.jpg	0	0	0	97.6438787907246	97.693865783498	0.0499869927734835
103965	50	262	0	0	chest2	320	262	0	stimuli\chest2\chest2_03s.jpg	2	-1	0	0	chest2_03s.jpg	1	0.300164303058409	1	97.7438839838578	97.7938621994981	0.0499782156402944
104065	50	263	0	0	crowbar	447	263	0	stimuli\crowbar\crowbar_08s.jpg	7	-1	0	0	crowbar_08s.jpg	0	0	0	97.8438540684583	97.8938456936157	0.0499916251574177
104165	50	264	0	0	football_helmet	630	264	0	stimuli\football_helmet\football_helmet_12s.jpg	11	-1	0	0	football_helmet_12s.jpg	0	0	0	97.9438743777719	97.9938547876955	0.0499804099235917
104265	50	265	0	0	fly	621	265	0	stimuli\fly\fly_09s.jpg	8	-1	0	0	fly_09s.jpg	0	0	0	98.043864210922	98.093855104642	0.0499908937199507
104365	50	266	0	0	trigger	1713	266	0	stimuli\trigger\trigger_07s.jpg	6	-1	0	0	trigger_07s.jpg	0	0	0	98.1438630650227	98.1938554216031	0.0499923565803329
104465	50	267	0	0	hookah	795	267	0	stimuli\hookah\hookah_01b.jpg	0	-1	0	0	hookah_01b.jpg	0	0	0	98.2438772791065	98.2938559823669	0.0499787032604218
104565	50	268	0	0	zipper	1852	268	0	stimuli\zipper\zipper_08s.jpg	7	-1	0	0	zipper_08s.jpg	0	0	0	98.3438824722398	98.393858249794	0.0499757775542093
104665	50	269	0	0	banjo	68	269	0	stimuli\banjo\banjo_11s.jpg	10	-1	0	0	banjo_11s.jpg	0	0	0	98.4438827891863	98.49386368673	0.049980897543719
104765	50	270	0	0	gravy	711	270	0	stimuli\gravy\gravy_05s.jpg	4	-1	0	0	gravy_05s.jpg	0	0	0	98.5439074870665	98.5938883846102	0.049980897543719
104865	50	271	0	0	canoe	262	271	0	stimuli\canoe\canoe_08s.jpg	7	-1	0	0	canoe_08s.jpg	0	0	0	98.6439102421136	98.6938791930006	0.0499689508869778
104965	50	272	0	0	brownie	204	272	0	stimuli\brownie\brownie_08s.jpg	7	-1	0	0	brownie_08s.jpg	0	0	0	98.7438937362313	98.793875852818	0.0499821165867615
105065	50	273	0	0	ham	739	273	0	stimuli\ham\ham_05s.jpg	4	-1	0	0	ham_05s.jpg	0	0	0	98.8438945407979	98.8938751945389	0.0499806537409313
105165	50	274	0	0	vent	1758	274	0	stimuli\vent\vent_09s.jpg	8	-1	0	0	vent_09s.jpg	0	0	0	98.9439263091481	98.9939033057453	0.0499769965972519
105265	50	275	0	0	lavender	904	275	0	stimuli\lavender\lavender_05s.jpg	4	-1	0	0	lavender_05s.jpg	0	0	0	99.0439205308649	99.0938904569921	0.0499699261272326
105365	50	276	0	0	platypus	1198	276	0	stimuli\platypus\platypus_01b.jpg	0	-1	0	0	platypus_01b.jpg	0	0	0	99.1439223106718	99.1938902863185	0.0499679756467231
105465	50	277	0	0	trampoline	1701	277	0	stimuli\trampoline\trampoline_03s.jpg	2	-1	0	0	trampoline_03s.jpg	0	0	0	99.2439021476457	99.2938842642325	0.0499821165867615
105565	50	278	0	0	lamb	889	278	0	stimuli\lamb\lamb_06s.jpg	5	-1	0	0	lamb_06s.jpg	0	0	0	99.3439051464957	99.3938862878567	0.0499811413610587
105665	50	279	0	0	bathmat	89	279	0	stimuli\bathmat\bathmat_04s.jpg	3	-1	0	0	bathmat_04s.jpg	0	0	0	99.4439093644032	99.4938892867067	0.0499799223034643
105765	50	280	0	0	tank2	1621	280	0	stimuli\tank2\tank2_08s.jpg	7	-1	0	0	tank2_08s.jpg	0	0	0	99.5439084623067	99.5938947236573	0.0499862613505684
105865	50	281	0	0	padlock	1095	281	0	stimuli\padlock\padlock_04n.jpg	3	-1	0	0	padlock_04n.jpg	0	0	0	99.64391365544	99.69389796631	0.0499843108700588
105965	50	282	0	0	flag	605	282	0	stimuli\flag\flag_04s.jpg	3	-1	0	0	flag_04s.jpg	0	0	0	99.7439151914441	99.7938943823247	0.0499791908805491
106065	50	283	0	0	canvas	264	283	0	stimuli\canvas\canvas_11s.jpg	10	-1	0	0	canvas_11s.jpg	0	0	0	99.8439172150538	99.8939015259384	0.0499843108846107
106165	50	284	0	0	bead	100	284	0	stimuli\bead\bead_07s.jpg	6	-1	0	0	bead_07s.jpg	0	0	0	99.9439207015239	99.9939020866877	0.0499813851638464
106265	50	285	0	0	gas_mask	660	285	0	stimuli\gas_mask\gas_mask_08s.jpg	7	-1	0	0	gas_mask_08s.jpg	0	0	0	100.043923456571	100.093903378889	0.0499799223180162
106365	50	286	0	0	christmas_tree	341	286	0	stimuli\christmas_tree\christmas_tree_05s.jpg	4	-1	0	0	christmas_tree_05s.jpg	0	0	0	100.143927918281	100.193910766306	0.0499828480242286
106465	50	287	0	0	paperclip	1116	287	0	stimuli\paperclip\paperclip_11s.jpg	10	-1	0	0	paperclip_11s.jpg	0	0	0	100.243929210468	100.293910108012	0.049980897543719
106565	50	288	0	0	spider_web	1514	288	0	stimuli\spider_web\spider_web_05s.jpg	4	-1	0	0	spider_web_05s.jpg	0	0	0	100.343932940756	100.393915544963	0.0499826042068889
106665	50	289	0	0	candy_cane	257	289	0	stimuli\candy_cane\candy_cane_09s.jpg	8	-1	0	0	candy_cane_09s.jpg	0	0	0	100.443941791033	100.493914886683	0.0499730956507847
106765	50	290	0	0	airplane	10	290	0	stimuli\airplane\airplane_11n.jpg	10	-1	0	0	airplane_11n.jpg	0	0	0	100.543951860353	100.593925443623	0.0499735832709121
106865	50	291	0	0	doorhandle	508	291	0	stimuli\doorhandle\doorhandle_08s.jpg	7	-1	0	0	doorhandle_08s.jpg	0	0	0	100.643956565866	100.693942827216	0.0499862613505684
106965	50	292	0	0	seagull	1395	292	0	stimuli\seagull\seagull_05s.jpg	4	-1	0	0	seagull_05s.jpg	0	0	0	100.74395810187	100.793938024173	0.0499799223034643
107065	50	293	0	0	chaps	306	293	0	stimuli\chaps\chaps_07s.jpg	6	-1	0	0	chaps_07s.jpg	0	0	0	100.84394695978	100.89392663828	0.0499796785006765
107165	50	294	0	0	boxing_gloves	183	294	0	stimuli\boxing_gloves\boxing_gloves_08s.jpg	7	-1	0	1	boxing_gloves_08s.jpg	0	0	0	100.943946301501	100.993918909531	0.0499726080306573
107265	50	295	0	0	mask	980	295	0	stimuli\mask\mask_12s.jpg	11	-1	0	0	mask_12s.jpg	0	0	0	101.043939060371	101.093919714098	0.0499806537263794
107365	50	296	0	0	hay	761	296	0	stimuli\hay\hay_07s.jpg	6	-1	0	0	hay_07s.jpg	0	0	0	101.143943522082	101.193925394851	0.0499818727694219
107465	50	297	0	0	blouse	144	297	0	stimuli\blouse\blouse_11s.jpg	10	-1	0	0	blouse_11s.jpg	1	0.350157147258869	1	101.243944326648	101.293925224192	0.049980897543719
107565	50	298	0	0	grasshopper	706	298	0	stimuli\grasshopper\grasshopper_10s.jpg	9	-1	0	0	grasshopper_10s.jpg	0	0	0	101.343942449312	101.393923103053	0.0499806537409313
107665	50	299	0	0	earring	540	299	0	stimuli\earring\earring_09s.jpg	8	-1	0	0	earring_09s.jpg	0	0	0	101.443947886262	101.493931709512	0.0499838232499314
107765	50	300	0	0	cream_cheese	437	300	0	stimuli\cream_cheese\cream_cheese_12s.jpg	11	-1	0	0	cream_cheese_12s.jpg	0	0	0	101.543952347973	101.593935195997	0.0499828480242286
107865	50	301	0	0	batter	96	301	0	stimuli\batter\batter_06s.jpg	5	-1	0	0	batter_06s.jpg	0	0	0	101.643959491586	101.693936731986	0.0499772404000396
107965	50	302	0	0	sloth	1471	302	0	stimuli\sloth\sloth_07n.jpg	6	-1	0	0	sloth_07n.jpg	0	0	0	101.743955663784	101.793937048933	0.0499813851492945
108065	50	303	0	0	dip	487	303	0	stimuli\dip\dip_11s.jpg	10	-1	0	0	dip_11s.jpg	0	0	0	101.843968902613	101.893951263017	0.0499823604041012
108165	50	304	0	0	sausage	1365	304	0	stimuli\sausage\sausage_12s.jpg	11	-1	0	0	sausage_12s.jpg	0	0	0	101.943972876717	101.993940120941	0.0499672442238079
108265	50	305	0	0	dirt_bike	488	305	0	stimuli\dirt_bike\dirt_bike_11s.jpg	10	-1	0	0	dirt_bike_11s.jpg	0	0	0	102.043962709868	102.093949458838	0.0499867489706958
108365	50	306	0	0	notebook	1064	306	0	stimuli\notebook\notebook_04s.jpg	3	-1	0	0	notebook_04s.jpg	0	0	0	102.143964733477	102.193947825304	0.0499830918270163
108465	50	307	0	0	laundry_basket	902	307	0	stimuli\laundry_basket\laundry_basket_06s.jpg	5	-1	0	0	laundry_basket_06s.jpg	0	0	0	102.243958955209	102.293976911751	0.0500179565424332
108565	50	308	0	0	cooker	399	308	0	stimuli\cooker\cooker_05s.jpg	4	-1	0	0	cooker_05s.jpg	0	0	0	102.344002426398	102.393981617279	0.0499791908805491
112832	50	309	0	0	pill	1174	0	1	stimuli\pill\pill_06s.jpg	5	-1	1	0	pill_06s.jpg	0	0	0	106.610784366072	106.660752585536	0.0499682194640627
112932	50	310	0	0	hotdog	805	1	1	stimuli\hotdog\hotdog_07s.jpg	6	-1	1	0	hotdog_07s.jpg	0	0	0	106.710773955419	106.76075460916	0.0499806537409313
113032	50	311	0	0	racket	1270	2	1	stimuli\racket\racket_05s.jpg	4	-1	1	0	racket_05s.jpg	0	0	0	106.810777685707	106.860741028984	0.0499633432773408
113132	50	312	0	0	bee	111	3	1	stimuli\bee\bee_05s.jpg	4	-1	1	0	bee_05s.jpg	0	0	0	106.910783122643	106.960762557341	0.0499794346978888
113232	50	313	0	0	parking_meter	1120	4	1	stimuli\parking_meter\parking_meter_12s.jpg	11	-1	1	0	parking_meter_12s.jpg	0	0	0	107.010770273904	107.060750927631	0.0499806537263794
113332	50	314	0	0	beard	106	5	1	stimuli\beard\beard_02s.jpg	1	-1	1	0	beard_02s.jpg	0	0	0	107.110769859428	107.160753195058	0.0499833356298041
113432	50	315	0	0	cage	236	6	1	stimuli\cage\cage_10s.jpg	9	-1	1	0	cage_10s.jpg	0	0	0	107.210773345898	107.260753268201	0.0499799223034643
113532	50	316	0	0	punching_bag	1256	7	1	stimuli\punching_bag\punching_bag_05s.jpg	4	-1	1	0	punching_bag_05s.jpg	0	0	0	107.310769274278	107.360752122302	0.0499828480242286
113632	50	317	0	0	swimming_pool	1596	8	1	stimuli\swimming_pool\swimming_pool_09s.jpg	8	-1	1	0	swimming_pool_09s.jpg	0	0	0	107.410774711228	107.460768530669	0.049993819440715
113732	50	318	0	0	pacifier	1093	9	1	stimuli\pacifier\pacifier_10s.jpg	9	-1	1	0	pacifier_10s.jpg	0	0	0	107.510779904362	107.560772260942	0.0499923565803329
113832	50	319	0	0	hatchet	759	10	1	stimuli\hatchet\hatchet_12s.jpg	11	-1	1	0	hatchet_12s.jpg	0	0	0	107.610805577482	107.660791351213	0.049985773730441
113932	50	320	0	0	oyster	1092	11	1	stimuli\oyster\oyster_07s.jpg	6	-1	1	0	oyster_07s.jpg	0	0	0	107.710811989658	107.760795569106	0.0499835794471437
114032	50	321	0	0	hummus	812	12	1	stimuli\hummus\hummus_04s.jpg	3	-1	1	0	hummus_04s.jpg	0	0	0	107.810809868519	107.860790278457	0.0499804099381436
114132	50	322	0	0	flatiron	613	13	1	stimuli\flatiron\flatiron_07s.jpg	6	-1	1	0	flatiron_07s.jpg	0	0	0	107.910814330229	107.96079303349	0.0499787032604218
114232	50	323	0	0	chandelier	305	14	1	stimuli\chandelier\chandelier_04s.jpg	3	-1	1	0	chandelier_04s.jpg	0	0	0	108.010815622416	108.060781403794	0.0499657813779777
114332	50	324	0	0	paperweight	1117	15	1	stimuli\paperweight\paperweight_02s.jpg	1	-1	1	0	paperweight_02s.jpg	0	0	0	108.110818865083	108.160789278831	0.04997041374736
114432	50	325	0	0	flashbulb	610	16	1	stimuli\flashbulb\flashbulb_05s.jpg	4	-1	1	0	flashbulb_05s.jpg	0	0	0	108.210797483014	108.260780818644	0.0499833356298041
114532	50	326	0	0	duster	534	17	1	stimuli\duster\duster_04s.jpg	3	-1	1	0	duster_04s.jpg	0	0	0	108.310799019018	108.360784305129	0.0499852861103136
114632	50	327	0	0	taffy	1615	18	1	stimuli\taffy\taffy_08s.jpg	7	-1	1	0	taffy_08s.jpg	0	0	0	108.410807137858	108.460788766839	0.0499816289811861
114732	50	328	0	0	headdress	763	19	1	stimuli\headdress\headdress_02s.jpg	1	-1	1	0	headdress_02s.jpg	0	0	0	108.510804529098	108.560809563758	0.0500050346599892
114832	50	329	0	0	stapler	1539	20	1	stimuli\stapler\stapler_10s.jpg	9	-1	1	0	stapler_10s.jpg	0	0	0	108.610829958401	108.660812318805	0.0499823604041012
114932	50	330	0	0	bamboo	62	21	1	stimuli\bamboo\bamboo_07s.jpg	6	-1	1	0	bamboo_07s.jpg	0	0	0	108.710832469646	108.760812148146	0.0499796785006765
115032	50	331	0	0	tostada	1688	22	1	stimuli\tostada\tostada_04s.jpg	3	-1	1	0	tostada_04s.jpg	0	0	0	108.810833274212	108.860801981296	0.0499687070841901
115132	50	332	0	0	soccer_ball	1488	23	1	stimuli\soccer_ball\soccer_ball_08s.jpg	7	-1	1	0	soccer_ball_08s.jpg	0	0	0	108.910840661629	108.960820340129	0.0499796785006765
115232	50	333	0	0	apple_tree	31	24	1	stimuli\apple_tree\apple_tree_02s.jpg	1	-1	1	0	apple_tree_02s.jpg	0	0	0	109.010815622416	109.060796763777	0.0499811413610587
115332	50	334	0	0	bumper	219	25	1	stimuli\bumper\bumper_09s.jpg	8	-1	1	0	bumper_09s.jpg	0	0	0	109.110818865083	109.160824143561	0.0500052784773288
115432	50	335	0	0	oilcan	1073	26	1	stimuli\oilcan\oilcan_10s.jpg	9	-1	1	0	oilcan_10s.jpg	0	0	0	109.210845513444	109.260808612904	0.0499630994600011
115532	50	336	0	0	sling	1466	27	1	stimuli\sling\sling_04s.jpg	3	-1	1	0	sling_04s.jpg	0	0	0	109.310846318011	109.360829897458	0.0499835794471437
115632	50	337	0	0	emerald	555	28	1	stimuli\emerald\emerald_12s.jpg	11	-1	1	0	emerald_12s.jpg	0	0	0	109.410851754947	109.460825582035	0.0499738270882517
115732	50	338	0	0	brace	186	29	1	stimuli\brace\brace_10s.jpg	9	-1	1	0	brace_10s.jpg	0	0	0	109.510841831914	109.560817365651	0.0499755337368697
115832	50	339	0	0	goalpost	683	30	1	stimuli\goalpost\goalpost_08s.jpg	7	-1	1	0	goalpost_08s.jpg	0	0	0	109.610854583138	109.660837431162	0.0499828480242286
115932	50	340	0	0	raspberry	1284	31	1	stimuli\raspberry\raspberry_05s.jpg	4	-1	1	0	raspberry_05s.jpg	0	0	0	109.710859044848	109.760838479546	0.0499794346978888
116032	50	341	0	0	key	869	32	1	stimuli\key\key_10s.jpg	9	-1	1	0	key_10s.jpg	0	0	0	109.810846927532	109.860841722199	0.0499947946664179
116132	50	342	0	0	chime	328	33	1	stimuli\chime\chime_01b.jpg	0	-1	1	0	chime_01b.jpg	0	0	0	109.910862116842	109.960827654402	0.049965537560638
116232	50	343	0	0	radish	1274	34	1	stimuli\radish\radish_04n.jpg	3	-1	1	0	radish_04n.jpg	0	0	0	110.010843660493	110.060829434224	0.049985773730441
116332	50	344	0	0	scone	1380	35	1	stimuli\scone\scone_10s.jpg	9	-1	1	0	scone_10s.jpg	0	0	0	110.110845684103	110.160852669243	0.0500069851404987
116432	50	345	0	0	sponge	1517	36	1	stimuli\sponge\sponge_09s.jpg	8	-1	1	0	sponge_09s.jpg	0	0	0	110.210873063887	110.260835431924	0.049962368037086
116532	50	346	0	0	shower_curtain	1435	37	1	stimuli\shower_curtain\shower_curtain_04s.jpg	3	-1	1	0	shower_curtain_04s.jpg	0	0	0	110.310874356073	110.360855741237	0.0499813851638464
116632	50	347	0	0	firecracker	594	38	1	stimuli\firecracker\firecracker_08s.jpg	7	-1	1	0	firecracker_08s.jpg	0	0	0	110.410880524447	110.460859227707	0.0499787032604218
116732	50	348	0	0	basketball	83	39	1	stimuli\basketball\basketball_10s.jpg	9	-1	1	0	basketball_10s.jpg	0	0	0	110.510852559528	110.560860519894	0.0500079603662016
116832	50	349	0	0	burner	224	40	1	stimuli\burner\burner_04s.jpg	3	-1	1	0	burner_04s.jpg	0	0	0	110.610855070758	110.660838406402	0.049983335644356
116932	50	350	0	0	brass_knuckles	193	41	1	stimuli\brass_knuckles\brass_knuckles_07s.jpg	6	-1	1	0	brass_knuckles_07s.jpg	0	0	0	110.710860507708	110.760847256679	0.0499867489706958
117032	50	351	0	0	footbath	631	42	1	stimuli\footbath\footbath_07s.jpg	6	-1	1	0	footbath_07s.jpg	0	0	0	110.810859605612	110.860844160299	0.0499845546873985
117132	50	352	0	0	inkwell	830	43	1	stimuli\inkwell\inkwell_02s.jpg	1	-1	1	0	inkwell_02s.jpg	0	0	0	110.910867968269	110.960844721063	0.0499767527944641
117232	50	353	0	0	hook1	793	44	1	stimuli\hook1\hook1_08s.jpg	7	-1	1	0	hook1_08s.jpg	0	0	0	111.010865603326	111.060848938956	0.0499833356298041
117332	50	354	0	0	mandolin	965	45	1	stimuli\mandolin\mandolin_11s.jpg	10	-1	1	1	mandolin_11s.jpg	0	0	0	111.110867626936	111.160853400666	0.049985773730441
117432	50	355	0	0	sword	1602	46	1	stimuli\sword\sword_10s.jpg	9	-1	1	0	sword_10s.jpg	0	0	0	111.210869894363	111.260855180473	0.0499852861103136
117532	50	356	0	0	eggbeater	548	47	1	stimuli\eggbeater\eggbeater_12s.jpg	11	-1	1	0	eggbeater_12s.jpg	0	0	0	111.31087118655	111.360854765997	0.0499835794471437
117632	50	357	0	0	charger	308	48	1	stimuli\charger\charger_10s.jpg	9	-1	1	0	charger_10s.jpg	1	0.307277925734525	1	111.410877598741	111.460859227707	0.0499816289666342
117732	50	358	0	0	stomach	1560	49	1	stimuli\stomach\stomach_10s.jpg	9	-1	1	0	stomach_10s.jpg	0	0	0	111.510877671884	111.560868809407	0.0499911375227384
117832	50	359	0	0	license_plate	921	50	1	stimuli\license_plate\license_plate_11s.jpg	10	-1	1	0	license_plate_11s.jpg	0	0	0	111.610888472627	111.660872539695	0.0499840670672711
117932	50	360	0	0	float	616	51	1	stimuli\float\float_11s.jpg	10	-1	1	0	float_11s.jpg	0	0	0	111.710888545771	111.760869687118	0.0499811413465068
118032	50	361	0	0	airbag	7	52	1	stimuli\airbag\airbag_06s.jpg	5	-1	1	0	airbag_06s.jpg	0	0	0	111.810883742728	111.860878049789	0.0499943070608424
118132	50	362	0	0	onion	1077	53	1	stimuli\onion\onion_03n.jpg	2	-1	1	0	onion_03n.jpg	0	0	0	111.910896006331	111.960876172452	0.0499801661208039
118232	50	363	0	0	ball	59	54	1	stimuli\ball\ball_03s.jpg	2	-1	1	0	ball_03s.jpg	0	0	0	112.010894129009	112.060872100832	0.0499779718229547
118332	50	364	0	0	oven	1089	55	1	stimuli\oven\oven_07s.jpg	6	-1	1	0	oven_07s.jpg	0	0	0	112.110894445956	112.160904600605	0.0500101546494989
118432	50	365	0	0	zucchini	1853	56	1	stimuli\zucchini\zucchini_06n.jpg	5	-1	1	0	zucchini_06n.jpg	0	0	0	112.210919143836	112.260886144242	0.0499670004064683
118532	50	366	0	0	eye_patch	565	57	1	stimuli\eye_patch\eye_patch_09s.jpg	8	-1	1	0	eye_patch_09s.jpg	0	0	0	112.310903613179	112.360887924064	0.0499843108846107
118632	50	367	0	0	globe	679	58	1	stimuli\globe\globe_02s.jpg	1	-1	1	0	globe_02s.jpg	0	0	0	112.410904661563	112.460888484813	0.0499838232499314
118732	50	368	0	0	curling_iron	463	59	1	stimuli\curling_iron\curling_iron_09s.jpg	8	-1	1	0	curling_iron_09s.jpg	0	0	0	112.510908148033	112.56089123986	0.0499830918270163
118832	50	369	0	0	door	506	60	1	stimuli\door\door_10s.jpg	9	-1	1	0	door_10s.jpg	0	0	0	112.610900906904	112.660910573934	0.0500096670293715
118932	50	370	0	0	trowel	1719	61	1	stimuli\trowel\trowel_07s.jpg	6	-1	1	0	trowel_07s.jpg	0	0	0	112.710924385727	112.760905527088	0.0499811413610587
119032	50	371	0	0	joystick	852	62	1	stimuli\joystick\joystick_06s.jpg	5	-1	1	0	joystick_06s.jpg	0	0	0	112.810927872197	112.860911207841	0.049983335644356
119132	50	372	0	0	swan	1591	63	1	stimuli\swan\swan_07s.jpg	6	-1	1	0	swan_07s.jpg	0	0	0	112.910933309147	112.960911280985	0.0499779718375066
119232	50	373	0	0	medal	991	64	1	stimuli\medal\medal_03s.jpg	2	-1	1	0	medal_03s.jpg	0	0	0	113.010932894671	113.060914767455	0.0499818727839738
119332	50	374	0	0	jalapeno	838	65	1	stimuli\jalapeno\jalapeno_05s.jpg	4	-1	1	0	jalapeno_05s.jpg	0	0	0	113.110922240216	113.160916059642	0.0499938194261631
119432	50	375	0	0	dustpan	535	66	1	stimuli\dustpan\dustpan_07s.jpg	6	-1	1	0	dustpan_07s.jpg	0	0	0	113.210940355231	113.260907355652	0.0499670004210202
119532	50	376	0	0	tiara	1655	67	1	stimuli\tiara\tiara_08s.jpg	7	-1	1	0	tiara_08s.jpg	0	0	0	113.310929456959	113.360905965936	0.0499765089771245
119632	50	377	0	0	loincloth	944	68	1	stimuli\loincloth\loincloth_01b.jpg	0	-1	1	0	loincloth_01b.jpg	0	0	0	113.410926360593	113.460909208603	0.0499828480096767
119732	50	378	0	0	ping-pong_table	1184	69	1	stimuli\ping-pong_table\ping-pong_table_12s.jpg	11	-1	1	0	ping-pong_table_12s.jpg	0	0	0	113.510928628006	113.560915376976	0.0499867489706958
119832	50	379	0	0	pajamas	1099	70	1	stimuli\pajamas\pajamas_09s.jpg	8	-1	1	0	pajamas_09s.jpg	0	0	0	113.610936015437	113.660932760584	0.0499967451469274
119932	50	380	0	0	luggage	948	71	1	stimuli\luggage\luggage_11s.jpg	10	-1	1	0	luggage_11s.jpg	0	0	0	113.710937551426	113.760935271814	0.0499977203871822
120032	50	381	0	0	contact_lens	397	72	1	stimuli\contact_lens\contact_lens_05s.jpg	4	-1	1	0	contact_lens_05s.jpg	0	0	0	113.810955910274	113.860935101155	0.0499791908805491
120132	50	382	0	0	headset	769	73	1	stimuli\headset\headset_08s.jpg	7	-1	1	0	headset_08s.jpg	0	0	0	113.91094818151	113.960914206691	0.0499660251807654
120232	50	383	0	0	television	1641	74	1	stimuli\television\television_07s.jpg	6	-1	1	0	television_07s.jpg	0	0	0	114.010929481345	114.060912816989	0.049983335644356
120332	50	384	0	0	marker	975	75	1	stimuli\marker\marker_09s.jpg	8	-1	1	0	marker_09s.jpg	0	0	0	114.110977097298	114.160928006298	0.0499509090004722
120432	50	385	0	0	combination_lock	390	76	1	stimuli\combination_lock\combination_lock_04s.jpg	3	-1	1	1	combination_lock_04s.jpg	1	0.0419037406973075	1	114.210966686631	114.260948559415	0.0499818727839738
120532	50	386	0	0	train_set	1700	77	1	stimuli\train_set\train_set_12s.jpg	11	-1	1	0	train_set_12s.jpg	0	0	0	114.310953837892	114.360952289702	0.0499984518100973
120632	50	387	0	0	piglet	1173	78	1	stimuli\piglet\piglet_03s.jpg	2	-1	1	0	piglet_03s.jpg	0	0	0	114.410970002442	114.460956019975	0.0499860175332287
120732	50	388	0	0	banner	70	79	1	stimuli\banner\banner_07s.jpg	6	-1	1	0	banner_07s.jpg	0	0	0	114.510975927013	114.560960237883	0.0499843108700588
120832	50	389	0	0	meat	987	80	1	stimuli\meat\meat_11s.jpg	10	-1	1	0	meat_11s.jpg	0	0	0	114.610981607766	114.660942512943	0.0499609051767038
120932	50	390	0	0	motorcycle	1025	81	1	stimuli\motorcycle\motorcycle_05s.jpg	4	-1	1	0	motorcycle_05s.jpg	0	0	0	114.71095534951	114.76093356515	0.0499782156402944
121032	50	391	0	0	clover	366	82	1	stimuli\clover\clover_10s.jpg	9	-1	1	0	clover_10s.jpg	0	0	0	114.810954447414	114.860948266854	0.049993819440715
121132	50	392	0	0	candy_bar	256	83	1	stimuli\candy_bar\candy_bar_03s.jpg	2	-1	1	0	candy_bar_03s.jpg	0	0	0	114.91097451291	114.960950534267	0.0499760213569971
121232	50	393	0	0	buckle	210	84	1	stimuli\buckle\buckle_04s.jpg	3	-1	1	0	buckle_04s.jpg	0	0	0	115.010966784161	115.060950363608	0.0499835794471437
121332	50	394	0	0	wig	1816	85	1	stimuli\wig\wig_05s.jpg	4	-1	1	0	wig_05s.jpg	0	0	0	115.110977828721	115.160956775784	0.0499789470632095
121432	50	395	0	0	pocket_watch	1206	86	1	stimuli\pocket_watch\pocket_watch_07s.jpg	6	-1	1	0	pocket_watch_07s.jpg	0	0	0	115.210963029502	115.260942708002	0.0499796785006765
121532	50	396	0	0	cardboard	272	87	1	stimuli\cardboard\cardboard_10s.jpg	9	-1	1	0	cardboard_10s.jpg	0	0	0	115.310971148341	115.360946682093	0.0499755337514216
121632	50	397	0	0	football	629	88	1	stimuli\football\football_01b.jpg	0	-1	1	0	football_01b.jpg	0	0	0	115.410976585292	115.460952606649	0.0499760213569971
121732	50	398	0	0	book	165	89	1	stimuli\book\book_10s.jpg	9	-1	1	0	book_10s.jpg	0	0	0	115.510966174639	115.560954630273	0.0499884556338657
121832	50	399	0	0	monkey	1017	90	1	stimuli\monkey\monkey_04s.jpg	3	-1	1	0	monkey_04s.jpg	0	0	0	115.610984289669	115.660969331962	0.049985042292974
121932	50	400	0	0	piecrust	1169	91	1	stimuli\piecrust\piecrust_08s.jpg	7	-1	1	0	piecrust_08s.jpg	0	0	0	115.710977779963	115.76095989655	0.0499821165867615
122032	50	401	0	0	nutcracker	1067	92	1	stimuli\nutcracker\nutcracker_08s.jpg	7	-1	1	0	nutcracker_08s.jpg	0	0	0	115.810981022616	115.86099117728	0.0500101546640508
122132	50	402	0	0	beer	113	93	1	stimuli\beer\beer_09s.jpg	8	-1	1	0	beer_09s.jpg	0	0	0	115.911011571923	115.960991006606	0.0499794346833369
122232	50	403	0	0	woman	1832	94	1	stimuli\woman\woman_01b.jpg	0	-1	1	0	woman_01b.jpg	0	0	0	116.01100774412	116.060987422621	0.0499796785006765
122332	50	404	0	0	trumpet	1721	95	1	stimuli\trumpet\trumpet_07s.jpg	6	-1	1	0	trumpet_07s.jpg	0	0	0	116.111016106777	116.160997248124	0.0499811413465068
122432	50	405	0	0	roof_rack	1329	96	1	stimuli\roof_rack\roof_rack_07s.jpg	6	-1	1	0	roof_rack_07s.jpg	0	0	0	116.211017642767	116.260995370802	0.0499777280347189
122532	50	406	0	0	window	1818	97	1	stimuli\window\window_07s.jpg	6	-1	1	0	window_07s.jpg	0	0	0	116.311020885434	116.360999588695	0.0499787032604218
122632	50	407	0	0	knee	877	98	1	stimuli\knee\knee_02s.jpg	1	-1	1	0	knee_02s.jpg	0	0	0	116.411001697648	116.460975768525	0.0499740708764875
122732	50	408	0	0	bagel	55	99	1	stimuli\bagel\bagel_09s.jpg	8	-1	1	0	bagel_09s.jpg	0	0	0	116.510991043178	116.560977548346	0.049986505167908
122832	50	409	0	0	wooden_leg	1834	100	1	stimuli\wooden_leg\wooden_leg_05s.jpg	4	-1	1	0	wooden_leg_05s.jpg	0	0	0	116.611000624893	116.660994200516	0.0499935756233754
122932	50	410	0	0	axe	45	101	1	stimuli\axe\axe_12n.jpg	11	-1	1	0	axe_12n.jpg	0	0	0	116.711009475155	116.760994517463	0.0499850423075259
123032	50	411	0	0	seafood	1394	102	1	stimuli\seafood\seafood_09s.jpg	8	-1	1	0	seafood_09s.jpg	0	0	0	116.81101247402	116.861027261053	0.0500147870334331
123132	50	412	0	0	cellphone	293	103	1	stimuli\cellphone\cellphone_12s.jpg	11	-1	1	0	cellphone_12s.jpg	0	0	0	116.911040097606	116.96100027136	0.0499601737537887
123232	50	413	0	0	squid	1528	104	1	stimuli\squid\squid_12s.jpg	11	-1	1	0	squid_12s.jpg	0	0	0	117.011017496479	117.061002051167	0.0499845546873985
123332	50	414	0	0	rack1	1268	105	1	stimuli\rack1\rack1_05s.jpg	4	-1	1	0	rack1_05s.jpg	0	0	0	117.111021714387	117.161004318594	0.0499826042068889
123432	50	415	0	0	cheesecake	314	106	1	stimuli\cheesecake\cheesecake_03s.jpg	2	-1	1	0	cheesecake_03s.jpg	0	0	0	117.211049825593	117.261029260277	0.0499794346833369
123532	50	416	0	0	root	1331	107	1	stimuli\root\root_05s.jpg	4	-1	1	0	root_05s.jpg	0	0	0	117.311033563514	117.361017874384	0.0499843108700588
123632	50	417	0	0	bedpan	109	108	1	stimuli\bedpan\bedpan_01b.jpg	0	-1	1	0	bedpan_01b.jpg	0	0	0	117.411034124278	117.461015753244	0.0499816289666342
123732	50	418	0	0	slicer	1463	109	1	stimuli\slicer\slicer_01b.jpg	0	-1	1	0	slicer_01b.jpg	0	0	0	117.511036635507	117.561016557825	0.0499799223180162
123832	50	419	0	0	tape_recorder	1624	110	1	stimuli\tape_recorder\tape_recorder_08s.jpg	7	-1	1	0	tape_recorder_08s.jpg	0	0	0	117.611039146752	117.661018581435	0.0499794346833369
123932	50	420	0	0	duct	527	111	1	stimuli\duct\duct_03s.jpg	2	-1	1	0	duct_03s.jpg	0	0	0	117.711036537992	117.761020848862	0.0499843108700588
124032	50	421	0	0	curb	462	112	1	stimuli\curb\curb_05s.jpg	4	-1	1	0	curb_05s.jpg	0	0	0	117.811039536842	117.861023603909	0.0499840670672711
124132	50	422	0	0	weed	1802	113	1	stimuli\weed\weed_04s.jpg	3	-1	1	0	weed_04s.jpg	0	0	0	117.911041804269	117.961024652293	0.0499828480242286
124232	50	423	0	0	awning	44	114	1	stimuli\awning\awning_02s.jpg	1	-1	1	1	awning_02s.jpg	0	0	0	118.011043827879	118.061028870186	0.0499850423075259
124332	50	424	0	0	puck	1245	115	1	stimuli\puck\puck_06s.jpg	5	-1	1	0	puck_06s.jpg	0	0	0	118.111048045786	118.16103552618	0.0499874803936109
124432	50	425	0	0	branch	192	116	1	stimuli\branch\branch_09s.jpg	8	-1	1	0	branch_09s.jpg	0	0	0	118.211047875113	118.261030479334	0.0499826042214409
124532	50	426	0	0	doll	499	117	1	stimuli\doll\doll_04s.jpg	3	-1	1	0	doll_04s.jpg	0	0	0	118.311050386357	118.361034941045	0.0499845546873985
124632	50	427	0	0	fudge	647	118	1	stimuli\fudge\fudge_01b.jpg	0	-1	1	0	fudge_01b.jpg	1	0.392167920217616	1	118.41108288613	118.461045741788	0.0499628556572134
124732	50	428	0	0	ottoman	1086	119	1	stimuli\ottoman\ottoman_08s.jpg	7	-1	1	0	ottoman_08s.jpg	0	0	0	118.511066624051	118.561064344438	0.0499977203871822
124832	50	429	0	0	mouthpiece	1032	120	1	stimuli\mouthpiece\mouthpiece_07s.jpg	6	-1	1	0	mouthpiece_07s.jpg	0	0	0	118.611089615268	118.661058809972	0.0499691947043175
124932	50	430	0	0	ambulance	19	121	1	stimuli\ambulance\ambulance_06s.jpg	5	-1	1	0	ambulance_06s.jpg	0	0	0	118.711081155081	118.761058151678	0.0499769965972519
125032	50	431	0	0	pig	1170	122	1	stimuli\pig\pig_02s.jpg	1	-1	1	0	pig_02s.jpg	0	0	0	118.811080252985	118.861064563869	0.0499843108846107
125132	50	432	0	0	syrup	1605	123	1	stimuli\syrup\syrup_11s.jpg	10	-1	1	0	syrup_11s.jpg	0	0	0	118.911085446132	118.961050739876	0.0499652937432984
125232	50	433	0	0	gourd	696	124	1	stimuli\gourd\gourd_05s.jpg	4	-1	1	0	gourd_05s.jpg	0	0	0	119.011069427856	119.06105227588	0.0499828480242286
125332	50	434	0	0	rubber_band	1337	125	1	stimuli\rubber_band\rubber_band_10s.jpg	9	-1	1	0	rubber_band_10s.jpg	0	0	0	119.111072914326	119.161058444253	0.0499855299276533
125432	50	435	0	0	crumb	451	126	1	stimuli\crumb\crumb_08s.jpg	7	-1	1	0	crumb_08s.jpg	0	0	0	119.211077376036	119.261061686921	0.0499843108846107
125532	50	436	0	0	turntable	1735	127	1	stimuli\turntable\turntable_01b.jpg	0	-1	1	0	turntable_01b.jpg	0	0	0	119.311108900583	119.361083702883	0.0499748022994027
125632	50	437	0	0	beanie	104	128	1	stimuli\beanie\beanie_07s.jpg	6	-1	1	0	beanie_07s.jpg	0	0	0	119.41110824229	119.461085482704	0.0499772404145915
125732	50	438	0	0	okra	1074	129	1	stimuli\okra\okra_04s.jpg	3	-1	1	0	okra_04s.jpg	0	0	0	119.511106364967	119.561071414908	0.0499650499405107
125832	50	439	0	0	kite	874	130	1	stimuli\kite\kite_09n.jpg	8	-1	1	0	kite_09n.jpg	0	0	0	119.611090834311	119.661068806148	0.0499779718375066
125932	50	440	0	0	taxi	1630	131	1	stimuli\taxi\taxi_01s.jpg	0	-1	1	0	taxi_01s.jpg	0	0	0	119.711086762691	119.761073267859	0.049986505167908
126032	50	441	0	0	mustard	1044	132	1	stimuli\mustard\mustard_11s.jpg	10	-1	1	0	mustard_11s.jpg	0	0	0	119.811090736781	119.861071390522	0.0499806537409313
126132	50	442	0	0	antelope	26	133	1	stimuli\antelope\antelope_06n.jpg	5	-1	1	0	antelope_06n.jpg	0	0	0	119.911114703238	119.961075608429	0.0499609051912557
126232	50	443	0	0	brush	205	134	1	stimuli\brush\brush_09s.jpg	8	-1	1	0	brush_09s.jpg	0	0	0	120.011091370689	120.061083727269	0.0499923565803329
126332	50	444	0	0	harp	755	135	1	stimuli\harp\harp_04s.jpg	3	-1	1	0	harp_04s.jpg	0	0	0	120.111123382841	120.161084531836	0.0499611489940435
126432	50	445	0	0	sweet_potato	1595	136	1	stimuli\sweet_potato\sweet_potato_09s.jpg	8	-1	1	0	sweet_potato_09s.jpg	0	0	0	120.211099318869	120.261083142133	0.0499838232644834
126532	50	446	0	0	maggot	955	137	1	stimuli\maggot\maggot_01b.jpg	0	-1	1	0	maggot_01b.jpg	0	0	0	120.311103536776	120.361111009523	0.0500074727460742
126632	50	447	0	0	guillotine	721	138	1	stimuli\guillotine\guillotine_03s.jpg	2	-1	1	0	guillotine_03s.jpg	0	0	0	120.41112994132	120.46110157411	0.0499716327904025
126732	50	448	0	0	cardigan	273	139	1	stimuli\cardigan\cardigan_05s.jpg	4	-1	1	0	cardigan_05s.jpg	0	0	0	120.51113952302	120.56111261867	0.0499730956507847
126832	50	449	0	0	stool	1561	140	1	stimuli\stool\stool_02s.jpg	1	-1	1	0	stool_02s.jpg	0	0	0	120.6111354514	120.661116348943	0.049980897543719
126932	50	450	0	0	stilt	1555	141	1	stimuli\stilt\stilt_08s.jpg	7	-1	1	0	stilt_08s.jpg	0	0	0	120.711128941693	120.761108620194	0.0499796785006765
127032	50	451	0	0	curry	464	142	1	stimuli\curry\curry_07s.jpg	6	-1	1	0	curry_07s.jpg	0	0	0	120.811132915784	120.861113325707	0.0499804099235917
127132	50	452	0	0	saw	1366	143	1	stimuli\saw\saw_03s.jpg	2	-1	1	0	saw_03s.jpg	0	0	0	120.911132745125	120.961115836952	0.0499830918270163
127232	50	453	0	0	ferry	580	144	1	stimuli\ferry\ferry_05s.jpg	4	-1	1	0	ferry_05s.jpg	0	0	0	121.011135012552	121.061117372941	0.0499823603895493
127332	50	454	0	0	poinsettia	1209	145	1	stimuli\poinsettia\poinsettia_11s.jpg	10	-1	1	0	poinsettia_11s.jpg	0	0	0	121.111144350449	121.161119640368	0.04997528991953
127432	50	455	0	0	braid	190	146	1	stimuli\braid\braid_10s.jpg	9	-1	1	0	braid_10s.jpg	0	0	0	121.211142229295	121.261121663993	0.0499794346978888
127532	50	456	0	0	duckling	526	147	1	stimuli\duckling\duckling_02s.jpg	1	-1	1	0	duckling_02s.jpg	0	0	0	121.311144496722	121.361125150463	0.0499806537409313
127632	50	457	0	0	sewage	1405	148	1	stimuli\sewage\sewage_05s.jpg	4	-1	1	0	sewage_05s.jpg	0	0	0	121.411148470812	121.46112839313	0.0499799223180162
127732	50	458	0	0	sledgehammer	1461	149	1	stimuli\sledgehammer\sledgehammer_08s.jpg	7	-1	1	0	sledgehammer_08s.jpg	0	0	0	121.511150250633	121.561129685317	0.0499794346833369
127832	50	459	0	0	clove	365	150	1	stimuli\clove\clove_09s.jpg	8	-1	1	0	clove_09s.jpg	0	0	0	121.61115056758	121.661138535594	0.0499879680137383
127932	50	460	0	0	poodle	1221	151	1	stimuli\poodle\poodle_09s.jpg	8	-1	1	0	poodle_09s.jpg	0	0	0	121.71115600453	121.761137389694	0.0499813851638464
128032	50	461	0	0	buggy	213	152	1	stimuli\buggy\buggy_01s.jpg	0	-1	1	0	buggy_01s.jpg	1	0	0	121.81115754052	121.861138438064	0.049980897543719
128132	50	462	0	0	beetle	115	153	1	stimuli\beetle\beetle_08n.jpg	7	-1	1	0	beetle_08n.jpg	0	0	0	121.911166634614	121.961140705491	0.0499740708764875
128232	50	463	0	0	parfait	1119	154	1	stimuli\parfait\parfait_10s.jpg	9	-1	1	0	parfait_10s.jpg	0	0	0	122.011168902041	122.061141510057	0.0499726080161054
128332	50	464	0	0	riser	1314	155	1	stimuli\riser\riser_09s.jpg	8	-1	1	0	riser_09s.jpg	0	0	0	122.111167756128	122.161152310815	0.0499845546873985
128432	50	465	0	0	tuxedo	1738	156	1	stimuli\tuxedo\tuxedo_06s.jpg	5	-1	1	0	tuxedo_06s.jpg	0	0	0	122.211161246421	122.261140437302	0.0499791908805491
128532	50	466	0	0	pug	1249	157	1	stimuli\pug\pug_04s.jpg	3	-1	1	0	pug_04s.jpg	0	0	0	122.311159856705	122.361143192349	0.049983335644356
128632	50	467	0	0	nail_clippers	1047	158	1	stimuli\nail_clippers\nail_clippers_11s.jpg	10	-1	1	0	nail_clippers_11s.jpg	0	0	0	122.411162855569	122.46114107121	0.0499782156402944
128732	50	468	0	0	badger	53	159	1	stimuli\badger\badger_05s.jpg	4	-1	1	0	badger_05s.jpg	0	0	0	122.511156345863	122.56113895007	0.0499826042068889
128832	50	469	0	0	loom	946	160	1	stimuli\loom\loom_06s.jpg	5	-1	1	0	loom_06s.jpg	0	0	0	122.611162758039	122.661155358437	0.0499926003976725
128932	50	470	0	0	vulture	1768	161	1	stimuli\vulture\vulture_01b.jpg	0	-1	1	0	vulture_01b.jpg	0	0	0	122.711174534023	122.761154700143	0.0499801661208039
129032	50	471	0	0	hip	780	162	1	stimuli\hip\hip_03s.jpg	2	-1	1	0	hip_03s.jpg	0	0	0	122.811170950037	122.861173790414	0.0500028403766919
129132	50	472	0	0	pinecone	1183	163	1	stimuli\pinecone\pinecone_05s.jpg	4	-1	1	0	pinecone_05s.jpg	0	0	0	122.911191990774	122.961179471167	0.0499874803936109
129232	50	473	0	0	ski_boots	1453	164	1	stimuli\ski_boots\ski_boots_04s.jpg	3	-1	1	0	ski_boots_04s.jpg	0	0	0	123.011197183907	123.061160283381	0.049963099474553
129332	50	474	0	0	moss	1022	165	1	stimuli\moss\moss_11s.jpg	10	-1	1	0	moss_11s.jpg	0	0	0	123.11120335228	123.161183518401	0.0499801661208039
129432	50	475	0	0	pigeon	1171	166	1	stimuli\pigeon\pigeon_10s.jpg	9	-1	1	0	pigeon_10s.jpg	0	0	0	123.211175874982	123.261157260145	0.0499813851638464
129532	50	476	0	0	napkin_ring	1051	167	1	stimuli\napkin_ring\napkin_ring_10s.jpg	9	-1	1	0	napkin_ring_10s.jpg	0	0	0	123.311177167168	123.361164403759	0.0499872365908232
129632	50	477	0	0	jet	847	168	1	stimuli\jet\jet_07s.jpg	6	-1	1	0	jet_07s.jpg	0	0	0	123.411183091739	123.461165208326	0.0499821165867615
129732	50	478	0	0	blender	138	169	1	stimuli\blender\blender_04s.jpg	3	-1	1	0	blender_04s.jpg	0	0	0	123.511182921065	123.561169426219	0.0499865051533561
129832	50	479	0	0	leek	910	170	1	stimuli\leek\leek_08s.jpg	7	-1	1	0	leek_08s.jpg	0	0	0	123.611185676113	123.661201194569	0.0500155184563482
129932	50	480	0	0	orange_rind	1079	171	1	stimuli\orange_rind\orange_rind_12s.jpg	11	-1	1	0	orange_rind_12s.jpg	0	0	0	123.711212568276	123.761178593457	0.0499660251807654
130032	50	481	0	0	feather	574	172	1	stimuli\feather\feather_08s.jpg	7	-1	1	0	feather_08s.jpg	0	0	0	123.811200938566	123.86120304752	0.0500021089537768
130132	50	482	0	0	gong	692	173	1	stimuli\gong\gong_02s.jpg	1	-1	1	0	gong_02s.jpg	0	0	0	123.911219297413	123.961183372114	0.0499640747002559
130232	50	483	0	0	highchair	777	174	1	stimuli\highchair\highchair_05s.jpg	4	-1	1	0	highchair_05s.jpg	0	0	0	124.01122766007	124.061194660477	0.0499670004064683
130332	50	484	0	0	candy	255	175	1	stimuli\candy\candy_04s.jpg	3	-1	1	0	candy_04s.jpg	0	0	0	124.111228464637	124.161188394588	0.049959929951001
130432	50	485	0	0	cotton_candy	421	176	1	stimuli\cotton_candy\cotton_candy_10s.jpg	9	-1	1	0	cotton_candy_10s.jpg	0	0	0	124.21120635113	124.261187492491	0.0499811413610587
130532	50	486	0	0	gem	670	177	1	stimuli\gem\gem_10s.jpg	9	-1	1	0	gem_10s.jpg	0	0	0	124.311221540454	124.361213409415	0.0499918689602055
130632	50	487	0	0	headscarf	768	178	1	stimuli\headscarf\headscarf_10s.jpg	9	-1	1	0	headscarf_10s.jpg	0	0	0	124.411235266918	124.461195196869	0.049959929951001
130732	50	488	0	0	pipe2	1187	179	1	stimuli\pipe2\pipe2_08s.jpg	7	-1	1	0	pipe2_08s.jpg	0	0	0	124.511212665791	124.561186736682	0.0499740708910394
130832	50	489	0	0	bolt	159	180	1	stimuli\bolt\bolt_11s.jpg	10	-1	1	0	bolt_11s.jpg	0	0	0	124.611217371319	124.661194124099	0.0499767527799122
130932	50	490	0	0	mashed_potato	979	181	1	stimuli\mashed_potato\mashed_potato_08s.jpg	7	-1	1	0	mashed_potato_08s.jpg	0	0	0	124.711212568276	124.761197122949	0.0499845546728466
131033	50	491	0	0	jetski	848	182	1	stimuli\jetski\jetski_09s.jpg	8	-1	1	0	jetski_09s.jpg	0	0	0	124.811233365195	124.861202803717	0.0499694385216571
131132	50	492	0	0	flip_flop	614	183	1	stimuli\flip_flop\flip_flop_02s.jpg	1	-1	1	0	flip_flop_02s.jpg	0	0	0	124.911217834553	124.961204583524	0.0499867489706958
131232	50	493	0	0	scrabble	1385	184	1	stimuli\scrabble\scrabble_08s.jpg	7	-1	1	0	scrabble_08s.jpg	0	0	0	125.011224490547	125.061209045234	0.0499845546873985
131332	50	494	0	0	lens	916	185	1	stimuli\lens\lens_08s.jpg	7	-1	1	0	lens_08s.jpg	0	0	0	125.111227733214	125.161209605983	0.0499818727694219
131432	50	495	0	0	horn	797	186	1	stimuli\horn\horn_09s.jpg	8	-1	1	0	horn_09s.jpg	0	0	0	125.21122707492	125.261210410565	0.049983335644356
131532	50	496	0	0	jar	840	187	1	stimuli\jar\jar_07s.jpg	6	-1	1	0	jar_07s.jpg	0	0	0	125.311242264244	125.361211458934	0.0499691946897656
131632	50	497	0	0	measuring_cup	986	188	1	stimuli\measuring_cup\measuring_cup_01b.jpg	0	-1	1	0	measuring_cup_01b.jpg	0	0	0	125.411231853577	125.461216408265	0.0499845546873985
131732	50	498	0	0	webcam	1799	189	1	stimuli\webcam\webcam_07s.jpg	6	-1	1	0	webcam_07s.jpg	0	0	0	125.511233145779	125.561213311885	0.049980166106252
131832	50	499	0	0	bikini	124	190	1	stimuli\bikini\bikini_01b.jpg	0	-1	1	0	bikini_01b.jpg	0	0	0	125.611228586538	125.661242398332	0.0500138117931783
131933	50	500	0	0	bonnet	163	191	1	stimuli\bonnet\bonnet_04s.jpg	3	-1	1	0	bonnet_04s.jpg	0	0	0	125.711265474878	125.761234669582	0.0499691947043175
132033	50	501	0	0	doorstop	512	192	1	stimuli\doorstop\doorstop_02s.jpg	1	-1	1	0	doorstop_02s.jpg	0	0	0	125.811254332802	125.861234255106	0.0499799223034643
132133	50	502	0	0	crib	441	193	1	stimuli\crib\crib_05s.jpg	4	-1	1	0	crib_05s.jpg	0	0	0	125.911253186889	125.961251394896	0.0499982080073096
132233	50	503	0	0	tomato_sauce	1673	194	1	stimuli\tomato_sauce\tomato_sauce_10s.jpg	9	-1	1	0	tomato_sauce_10s.jpg	0	0	0	126.011272764779	126.061253174703	0.0499804099235917
132333	50	504	0	0	chain	298	195	1	stimuli\chain\chain_09s.jpg	8	-1	1	0	chain_09s.jpg	0	0	0	126.111243580803	126.161224478361	0.049980897558271
132433	50	505	0	0	overalls	1090	196	1	stimuli\overalls\overalls_04s.jpg	3	-1	1	0	overalls_04s.jpg	0	0	0	126.211251455854	126.261223088644	0.0499716327904025
132533	50	506	0	0	gauze	664	197	1	stimuli\gauze\gauze_09s.jpg	8	-1	1	0	gauze_09s.jpg	0	0	0	126.31127859182	126.361230963681	0.0499523718608543
132633	50	507	0	0	satellite_dish	1361	198	1	stimuli\satellite_dish\satellite_dish_05s.jpg	4	-1	1	0	satellite_dish_05s.jpg	0	0	0	126.411245019292	126.461245909188	0.0500008898961823
132733	50	508	0	0	outfit	1087	199	1	stimuli\outfit\outfit_10s.jpg	9	-1	1	0	outfit_10s.jpg	0	0	0	126.511248261944	126.561240374722	0.0499921127775451
132833	50	509	0	0	coverall	425	200	1	stimuli\coverall\coverall_10s.jpg	9	-1	1	0	coverall_10s.jpg	0	0	0	126.611257843644	126.661254344988	0.0499965013441397
132933	50	510	0	0	wire	1828	201	1	stimuli\wire\wire_12s.jpg	11	-1	1	0	wire_12s.jpg	0	0	0	126.711272789165	126.761247835282	0.0499750461167423
133033	50	511	0	0	pepper1	1149	202	1	stimuli\pepper1\pepper1_01b.jpg	0	-1	1	0	pepper1_01b.jpg	0	0	0	126.811295048945	126.861271070302	0.0499760213569971
133133	50	512	0	0	wok	1830	203	1	stimuli\wok\wok_12s.jpg	11	-1	1	0	wok_12s.jpg	0	0	0	126.911277811625	126.961256514885	0.0499787032604218
133233	50	513	0	0	anklet	23	204	1	stimuli\anklet\anklet_08s.jpg	7	-1	1	0	anklet_08s.jpg	0	0	0	127.011282273335	127.06124634805	0.0499640747148078
133333	50	514	0	0	tape_measure	1623	205	1	stimuli\tape_measure\tape_measure_12s.jpg	11	-1	1	0	tape_measure_12s.jpg	0	0	0	127.111285516003	127.161267144969	0.0499816289666342
133433	50	515	0	0	unicycle	1746	206	1	stimuli\unicycle\unicycle_07s.jpg	6	-1	1	0	unicycle_07s.jpg	0	0	0	127.211269741543	127.261256978134	0.0499872365908232
133533	50	516	0	0	boxer_shorts	182	207	1	stimuli\boxer_shorts\boxer_shorts_03s.jpg	2	-1	1	0	boxer_shorts_03s.jpg	0	0	0	127.311288344194	127.361268266497	0.0499799223034643
133633	50	517	0	0	button2	231	208	1	stimuli\button2\button2_02s.jpg	1	-1	1	0	button2_02s.jpg	0	0	0	127.41128719828	127.461254442518	0.0499672442383599
133733	50	518	0	0	cantaloupe	263	209	1	stimuli\cantaloupe\cantaloupe_05s.jpg	4	-1	1	0	cantaloupe_05s.jpg	0	0	0	127.511288002861	127.561274508014	0.0499865051533561
133833	50	519	0	0	blazer	137	210	1	stimuli\blazer\blazer_08s.jpg	7	-1	1	0	blazer_08s.jpg	1	0	0	127.611291245514	127.661271411635	0.0499801661208039
133933	50	520	0	0	swordfish	1603	211	1	stimuli\swordfish\swordfish_04s.jpg	3	-1	1	0	swordfish_04s.jpg	0	0	0	127.711279128198	127.761272947639	0.049993819440715
134033	50	521	0	0	hood	791	212	1	stimuli\hood\hood_09s.jpg	8	-1	1	0	hood_09s.jpg	0	0	0	127.811281883245	127.861275215066	0.0499933318205876
134133	50	522	0	0	ratchet	1286	213	1	stimuli\ratchet\ratchet_08s.jpg	7	-1	1	0	ratchet_08s.jpg	0	0	0	127.911294390666	127.961266267259	0.0499718765931902
134233	50	523	0	0	crayfish	434	214	1	stimuli\crayfish\crayfish_02s.jpg	1	-1	1	0	crayfish_02s.jpg	0	0	0	128.011285930479	128.061283407049	0.0499974765698425
134333	50	524	0	0	french_fries	641	215	1	stimuli\french_fries\french_fries_02s.jpg	1	-1	1	0	french_fries_02s.jpg	0	0	0	128.111305020735	128.161272264973	0.0499672442383599
134433	50	525	0	0	chickpea	325	216	1	stimuli\chickpea\chickpea_09s.jpg	8	-1	1	0	chickpea_09s.jpg	0	0	0	128.21130094913	128.26127916477	0.0499782156402944
134533	50	526	0	0	applesauce	32	217	1	stimuli\applesauce\applesauce_06s.jpg	5	-1	1	0	applesauce_06s.jpg	0	0	0	128.311333448903	128.361309226457	0.0499757775542093
134633	50	527	0	0	turban	1730	218	1	stimuli\turban\turban_05s.jpg	4	-1	1	0	turban_05s.jpg	0	0	0	128.411326207774	128.461309299601	0.0499830918270163
134733	50	528	0	0	coffee_filter	379	219	1	stimuli\coffee_filter\coffee_filter_11s.jpg	10	-1	1	1	coffee_filter_11s.jpg	0	0	0	128.511314821881	128.561314248916	0.0499994270358002
134833	50	529	0	0	straw2	1569	220	1	stimuli\straw2\straw2_09s.jpg	8	-1	1	0	straw2_09s.jpg	0	0	0	128.611333668334	128.661314565878	0.049980897543719
134933	50	530	0	0	skewer	1451	221	1	stimuli\skewer\skewer_07s.jpg	6	-1	1	0	skewer_07s.jpg	0	0	0	128.711335935761	128.761305374268	0.0499694385071052
135033	50	531	0	0	dart	473	222	1	stimuli\dart\dart_10s.jpg	9	-1	1	0	dart_10s.jpg	0	0	0	128.811312359394	128.861307885498	0.0499955261038849
135133	50	532	0	0	lantern	895	223	1	stimuli\lantern\lantern_09s.jpg	8	-1	1	0	lantern_09s.jpg	0	0	0	128.911313651595	128.961306983401	0.0499933318060357
135233	50	533	0	0	petal	1158	224	1	stimuli\petal\petal_08s.jpg	7	-1	1	0	petal_08s.jpg	0	0	0	129.011325183761	129.061301448935	0.0499762651743367
135333	50	534	0	0	cloud	364	225	1	stimuli\cloud\cloud_12s.jpg	11	-1	1	0	cloud_12s.jpg	0	0	0	129.111321843578	129.161303716362	0.0499818727839738
135433	50	535	0	0	snow	1479	226	1	stimuli\snow\snow_10s.jpg	9	-1	1	0	snow_10s.jpg	0	0	0	129.211321916722	129.26129988856	0.0499779718375066
135533	50	536	0	0	ski_pole	1455	227	1	stimuli\ski_pole\ski_pole_09s.jpg	8	-1	1	0	ski_pole_09s.jpg	0	0	0	129.311360511725	129.361335314039	0.0499748023139546
135633	50	537	0	0	metronome	997	228	1	stimuli\metronome\metronome_06s.jpg	5	-1	1	0	metronome_06s.jpg	0	0	0	129.411355708682	129.461323440526	0.0499677318439353
135733	50	538	0	0	scarf	1377	229	1	stimuli\scarf\scarf_08s.jpg	7	-1	1	0	scarf_08s.jpg	0	0	0	129.511358463729	129.56134472508	0.0499862613505684
135833	50	539	0	0	snake	1477	230	1	stimuli\snake\snake_04s.jpg	3	-1	1	0	snake_04s.jpg	0	0	0	129.61135829307	129.661365278196	0.0500069851259468
135933	50	540	0	0	butter	228	231	1	stimuli\butter\butter_11s.jpg	10	-1	1	0	butter_11s.jpg	0	0	0	129.711344712894	129.761342189464	0.0499974765698425
136033	50	541	0	0	bedpost	110	232	1	stimuli\bedpost\bedpost_02s.jpg	1	-1	1	0	bedpost_02s.jpg	0	0	0	129.811367947914	129.861348357837	0.0499804099235917
136133	50	542	0	0	grill	714	233	1	stimuli\grill\grill_07s.jpg	6	-1	1	0	grill_07s.jpg	0	0	0	129.911367045817	129.961347211938	0.0499801661208039
136233	50	543	0	0	radar	1271	234	1	stimuli\radar\radar_02s.jpg	1	-1	1	0	radar_02s.jpg	0	0	0	130.011352734218	130.061351917451	0.0499991832330124
136333	50	544	0	0	sprouts	1524	235	1	stimuli\sprouts\sprouts_11s.jpg	10	-1	1	0	sprouts_11s.jpg	0	0	0	130.111373287335	130.161351502975	0.0499782156402944
136433	50	545	0	0	noose	1062	236	1	stimuli\noose\noose_11s.jpg	10	-1	1	0	noose_11s.jpg	0	0	0	130.211358731918	130.261355477065	0.0499967451469274
136533	50	546	0	0	nut	1066	237	1	stimuli\nut\nut_03s.jpg	2	-1	1	0	nut_03s.jpg	0	0	0	130.311351978409	130.36133068167	0.0499787032604218
136633	50	547	0	0	clipper1	356	238	1	stimuli\clipper1\clipper1_05s.jpg	4	-1	1	0	clipper1_05s.jpg	0	0	0	130.411349613452	130.461331486236	0.0499818727839738
136733	50	548	0	0	bracelet1	187	239	1	stimuli\bracelet1\bracelet1_07s.jpg	6	-1	1	0	bracelet1_07s.jpg	0	0	0	130.511359682772	130.561349357449	0.0499896746769082
136833	50	549	0	0	kimono	873	240	1	stimuli\kimono\kimono_06s.jpg	5	-1	1	0	kimono_06s.jpg	0	0	0	130.611365119723	130.66134918679	0.0499840670672711
136933	50	550	0	0	foam	624	241	1	stimuli\foam\foam_09s.jpg	8	-1	1	0	foam_09s.jpg	0	0	0	130.711366655727	130.761354867544	0.049988211816526
137033	50	551	0	0	kayak	863	242	1	stimuli\kayak\kayak_05s.jpg	4	-1	1	0	kayak_05s.jpg	0	0	0	130.811397448837	130.861362011157	0.0499645623203833
137133	50	552	0	0	flan	609	243	1	stimuli\flan\flan_12s.jpg	11	-1	1	0	flan_12s.jpg	0	0	0	130.91137484771	130.961356232874	0.0499813851638464
137233	50	553	0	0	dolly	501	244	1	stimuli\dolly\dolly_01s.jpg	0	-1	1	0	dolly_01s.jpg	0	0	0	131.011396619884	131.061355330778	0.0499587108934065
137333	50	554	0	0	whoopee_cushion	1814	245	1	stimuli\whoopee_cushion\whoopee_cushion_06s.jpg	5	-1	1	0	whoopee_cushion_06s.jpg	0	0	0	131.111360853058	131.161383685801	0.0500228327437071
137433	50	555	0	0	fencepost	576	246	1	stimuli\fencepost\fencepost_05s.jpg	4	-1	1	0	fencepost_05s.jpg	0	0	0	131.211385307135	131.261370349428	0.049985042292974
137533	50	556	0	0	pinwheel	1185	247	1	stimuli\pinwheel\pinwheel_12s.jpg	11	-1	1	0	pinwheel_12s.jpg	0	0	0	131.311412930721	131.361389439699	0.0499765089771245
137633	50	557	0	0	pearl	1134	248	1	stimuli\pearl\pearl_03s.jpg	2	-1	1	0	pearl_03s.jpg	0	0	0	131.411409590539	131.461390244265	0.0499806537263794
137733	50	558	0	0	juicer1	855	249	1	stimuli\juicer1\juicer1_01s.jpg	0	-1	1	0	juicer1_01s.jpg	0	0	0	131.511394059882	131.561377395527	0.049983335644356
137833	50	559	0	0	ferris_wheel	579	250	1	stimuli\ferris_wheel\ferris_wheel_10s.jpg	9	-1	1	0	ferris_wheel_10s.jpg	0	0	0	131.611415100619	131.661394535317	0.0499794346978888
137933	50	560	0	0	videogame	1762	251	1	stimuli\videogame\videogame_09s.jpg	8	-1	1	0	videogame_09s.jpg	0	0	0	131.711396644256	131.761393389403	0.0499967451469274
138033	50	561	0	0	tree_trunk	1709	252	1	stimuli\tree_trunk\tree_trunk_06s.jpg	5	-1	1	0	tree_trunk_06s.jpg	0	0	0	131.81141329644	131.861370788291	0.049957491850364
138133	50	562	0	0	breathalyzer	198	253	1	stimuli\breathalyzer\breathalyzer_03s.jpg	2	-1	1	0	breathalyzer_03s.jpg	0	0	0	131.91140215435	131.961384270937	0.0499821165867615
138233	50	563	0	0	windowsill	1819	254	1	stimuli\windowsill\windowsill_06s.jpg	5	-1	1	0	windowsill_06s.jpg	0	0	0	132.011395157024	132.061388488844	0.0499933318205876
138333	50	564	0	0	chimney	329	255	1	stimuli\chimney\chimney_05s.jpg	4	-1	1	0	chimney_05s.jpg	0	0	0	132.111405470161	132.161389049608	0.0499835794471437
138433	50	565	0	0	taco	1613	256	1	stimuli\taco\taco_11s.jpg	10	-1	1	0	taco_11s.jpg	0	0	0	132.211407981391	132.261378882758	0.0499709013674874
138533	50	566	0	0	camcorder	244	257	1	stimuli\camcorder\camcorder_02s.jpg	1	-1	1	0	camcorder_02s.jpg	0	0	0	132.311401959305	132.361382613031	0.0499806537263794
138633	50	567	0	0	drink	521	258	1	stimuli\drink\drink_01b.jpg	0	-1	1	0	drink_01b.jpg	0	0	0	132.411396424839	132.461392926169	0.0499965013295878
138733	50	568	0	0	sombrero	1495	259	1	stimuli\sombrero\sombrero_11s.jpg	10	-1	1	0	sombrero_11s.jpg	0	0	0	132.511417953196	132.561392999312	0.0499750461167423
138833	50	569	0	0	crucifix	449	260	1	stimuli\crucifix\crucifix_08s.jpg	7	-1	1	0	crucifix_08s.jpg	0	0	0	132.611408761586	132.661391609596	0.0499828480096767
138933	50	570	0	0	raincoat	1279	261	1	stimuli\raincoat\raincoat_06s.jpg	5	-1	1	0	raincoat_06s.jpg	0	0	0	132.711424682318	132.761406067482	0.0499813851638464
139033	50	571	0	0	folder	625	262	1	stimuli\folder\folder_10s.jpg	9	-1	1	0	folder_10s.jpg	0	0	0	132.811434264033	132.861429302517	0.0499950384837575
139133	50	572	0	0	shaving_cream	1410	263	1	stimuli\shaving_cream\shaving_cream_11s.jpg	10	-1	1	0	shaving_cream_11s.jpg	0	0	0	132.911446527636	132.961425474699	0.0499789470632095
139233	50	573	0	0	buffet	211	264	1	stimuli\buffet\buffet_06s.jpg	5	-1	1	0	buffet_06s.jpg	0	0	0	133.011441724593	133.061421646897	0.0499799223034643
139333	50	574	0	0	mixer	1009	265	1	stimuli\mixer\mixer_02s.jpg	1	-1	1	0	mixer_02s.jpg	0	0	0	133.111444723443	133.16142879051	0.0499840670672711
139433	50	575	0	0	subway	1578	266	1	stimuli\subway\subway_09s.jpg	8	-1	1	0	subway_09s.jpg	0	0	0	133.211454792763	133.261430570317	0.0499757775542093
139533	50	576	0	0	porcupine	1226	267	1	stimuli\porcupine\porcupine_02s.jpg	1	-1	1	0	porcupine_02s.jpg	0	0	0	133.311452671624	133.361419915847	0.0499672442238079
139633	50	577	0	0	scuba	1392	268	1	stimuli\scuba\scuba_10s.jpg	9	-1	1	0	scuba_10s.jpg	0	0	0	133.411442504788	133.461427303278	0.0499847984901862
139733	50	578	0	0	baton3	94	269	1	stimuli\baton3\baton3_11s.jpg	10	-1	1	0	baton3_11s.jpg	0	0	0	133.511443796975	133.561424206899	0.0499804099235917
139833	50	579	0	0	pinball	1178	270	1	stimuli\pinball\pinball_02s.jpg	1	-1	1	0	pinball_02s.jpg	0	0	0	133.611445576782	133.661426474326	0.049980897543719
139933	50	580	0	0	strainer	1566	271	1	stimuli\strainer\strainer_05s.jpg	4	-1	1	1	strainer_05s.jpg	0	0	0	133.711444430868	133.76142703509	0.0499826042214409
140033	50	581	0	0	kale	860	272	1	stimuli\kale\kale_12s.jpg	11	-1	1	0	kale_12s.jpg	0	0	0	133.811474492555	133.861432472026	0.0499579794704914
140133	50	582	0	0	stamp2	1536	273	1	stimuli\stamp2\stamp2_06s.jpg	5	-1	1	0	stamp2_06s.jpg	0	0	0	133.911455304769	133.96145521944	0.0499999146704795
140233	50	583	0	0	mascara	978	274	1	stimuli\mascara\mascara_08s.jpg	7	-1	1	0	mascara_08s.jpg	1	0.292262445072993	1	134.011476345506	134.061441639264	0.0499652937578503
140333	50	584	0	0	defibrillator	477	275	1	stimuli\defibrillator\defibrillator_04s.jpg	3	-1	1	0	defibrillator_04s.jpg	0	0	0	134.111479831976	134.161458779054	0.0499789470777614
140433	50	585	0	0	saucer	1363	276	1	stimuli\saucer\saucer_12s.jpg	11	-1	1	0	saucer_12s.jpg	0	0	0	134.211482099403	134.261446905541	0.0499648061377229
140533	50	586	0	0	snowsuit	1486	277	1	stimuli\snowsuit\snowsuit_04s.jpg	3	-1	1	0	snowsuit_04s.jpg	0	0	0	134.311479734461	134.36146258247	0.0499828480096767
140633	50	587	0	0	hand	744	278	1	stimuli\hand\hand_11s.jpg	10	-1	1	0	hand_11s.jpg	0	0	0	134.411485659017	134.461463874657	0.0499782156402944
140733	50	588	0	0	scaffold	1369	279	1	stimuli\scaffold\scaffold_07s.jpg	6	-1	1	0	scaffold_07s.jpg	0	0	0	134.511484513117	134.561463216378	0.0499787032604218
140833	50	589	0	0	umbrella	1743	280	1	stimuli\umbrella\umbrella_01b.jpg	0	-1	1	0	umbrella_01b.jpg	0	0	0	134.611485561501	134.661442809549	0.0499572480475763
140933	50	590	0	0	minivan	1003	281	1	stimuli\minivan\minivan_02s.jpg	1	-1	1	0	minivan_02s.jpg	0	0	0	134.711455889905	134.761452878869	0.0499969889642671
141033	50	591	0	0	bowtie	180	282	1	stimuli\bowtie\bowtie_07s.jpg	6	-1	1	0	bowtie_07s.jpg	0	0	0	134.811472542089	134.861442224399	0.049969682309893
141133	50	592	0	0	bubble	207	283	1	stimuli\bubble\bubble_10s.jpg	9	-1	1	0	bubble_10s.jpg	0	0	0	134.911467251426	134.961457413723	0.0499901622970356
141233	50	593	0	0	toaster_oven	1667	284	1	stimuli\toaster_oven\toaster_oven_03s.jpg	2	-1	1	0	toaster_oven_03s.jpg	0	0	0	135.011463423623	135.06145968115	0.0499962575268
141333	50	594	0	0	sardine	1359	285	1	stimuli\sardine\sardine_04s.jpg	3	-1	1	0	sardine_04s.jpg	0	0	0	135.111466422473	135.161465118086	0.0499986956128851
141433	50	595	0	0	spout	1520	286	1	stimuli\spout\spout_04s.jpg	3	-1	1	0	spout_04s.jpg	0	0	0	135.211484781306	135.261465922667	0.0499811413610587
141533	50	596	0	0	remote_control	1302	287	1	stimuli\remote_control\remote_control_02s.jpg	1	-1	1	0	remote_control_02s.jpg	0	0	0	135.31148436683	135.361467946277	0.0499835794471437
141633	50	597	0	0	whip	1809	288	1	stimuli\whip\whip_02s.jpg	1	-1	1	0	whip_02s.jpg	0	0	0	135.411493217107	135.461468750844	0.0499755337368697
141733	50	598	0	0	accordion	2	289	1	stimuli\accordion\accordion_12s.jpg	11	-1	1	0	accordion_12s.jpg	0	0	0	135.511497678817	135.56147662588	0.0499789470632095
141833	50	599	0	0	trough	1718	290	1	stimuli\trough\trough_11s.jpg	10	-1	1	0	trough_11s.jpg	0	0	0	135.611497264341	135.661468897131	0.0499716327904025
141933	50	600	0	0	catfish	287	291	1	stimuli\catfish\catfish_09s.jpg	8	-1	1	0	catfish_09s.jpg	0	0	0	135.711494899384	135.761479210269	0.0499843108846107
142033	50	601	0	0	shopping_basket	1427	292	1	stimuli\shopping_basket\shopping_basket_09s.jpg	8	-1	1	0	shopping_basket_09s.jpg	0	0	0	135.811484244929	135.861480258638	0.0499960137094604
142133	50	602	0	0	green_beans	712	293	1	stimuli\green_beans\green_beans_10s.jpg	9	-1	1	0	green_beans_10s.jpg	0	0	0	135.911490169485	135.961483988925	0.049993819440715
142233	50	603	0	0	chariot	309	294	1	stimuli\chariot\chariot_10s.jpg	9	-1	1	0	chariot_10s.jpg	1	0	0	136.011490486446	136.061484305872	0.0499938194261631
142333	50	604	0	0	sim_card	1446	295	1	stimuli\sim_card\sim_card_06s.jpg	5	-1	1	0	sim_card_06s.jpg	0	0	0	136.111507382418	136.161477064743	0.0499696823244449
142433	50	605	0	0	lampshade	893	296	1	stimuli\lampshade\lampshade_08s.jpg	7	-1	1	0	lampshade_08s.jpg	0	0	0	136.211508430802	136.26149201025	0.0499835794471437
142533	50	606	0	0	artichoke	39	297	1	stimuli\artichoke\artichoke_10s.jpg	9	-1	1	0	artichoke_10s.jpg	0	0	0	136.311499239193	136.361494033874	0.0499947946809698
142633	50	607	0	0	gyro	730	298	1	stimuli\gyro\gyro_09s.jpg	8	-1	1	0	gyro_09s.jpg	0	0	0	136.411517841843	136.46149435082	0.0499765089771245
142733	50	608	0	0	hammer	741	299	1	stimuli\hammer\hammer_05n.jpg	4	-1	1	0	hammer_05n.jpg	0	0	0	136.51151206356	136.56151856108	0.0500064975203713
142833	50	609	0	0	gift	672	300	1	stimuli\gift\gift_07s.jpg	6	-1	1	0	gift_07s.jpg	0	0	0	136.611537980483	136.661504249481	0.0499662689981051
142933	50	610	0	0	rifle	1311	301	1	stimuli\rifle\rifle_07n.jpg	6	-1	1	0	rifle_07n.jpg	0	0	0	136.711513916511	136.761495545492	0.0499816289811861
143033	50	611	0	0	tractor	1695	302	1	stimuli\tractor\tractor_12s.jpg	11	-1	1	0	tractor_12s.jpg	0	0	0	136.811516915361	136.861499031962	0.0499821166013135
143133	50	612	0	0	spoon	1519	303	1	stimuli\spoon\spoon_02s.jpg	1	-1	1	0	spoon_02s.jpg	0	0	0	136.911523571354	136.961502518432	0.0499789470777614
143233	50	613	0	0	shaker	1408	304	1	stimuli\shaker\shaker_06s.jpg	5	-1	1	0	shaker_06s.jpg	0	0	0	137.011519499749	137.061503566816	0.0499840670672711
143333	50	614	0	0	rollerblade	1326	305	1	stimuli\rollerblade\rollerblade_07s.jpg	6	-1	1	0	rollerblade_07s.jpg	0	0	0	137.111522498599	137.161518024703	0.0499955261038849
143433	50	615	0	0	pepperoni	1153	306	1	stimuli\pepperoni\pepperoni_05s.jpg	4	-1	1	0	pepperoni_05s.jpg	0	0	0	137.211525009829	137.261515415943	0.0499904061143752
143533	50	616	0	0	cigarette_holder	346	307	1	stimuli\cigarette_holder\cigarette_holder_05s.jpg	4	-1	1	0	cigarette_holder_05s.jpg	0	0	0	137.311536542009	137.3615106129	0.0499740708910394
143633	50	617	0	0	kitten	875	308	1	stimuli\kitten\kitten_05s.jpg	4	-1	1	0	kitten_05s.jpg	0	0	0	137.411561971312	137.461543600293	0.0499816289811861
151400	50	618	0	0	bell	116	0	2	stimuli\bell\bell_08s.jpg	7	-1	2	0	bell_08s.jpg	0	0	0	145.178410836641	145.228377105625	0.0499662689835532
151500	50	619	0	0	porthole	1227	1	2	stimuli\porthole\porthole_10s.jpg	9	-1	2	0	porthole_10s.jpg	0	0	0	145.278398719325	145.328379860672	0.0499811413465068
151600	50	620	0	0	lab_coat	885	2	2	stimuli\lab_coat\lab_coat_05s.jpg	4	-1	2	0	lab_coat_05s.jpg	0	0	0	145.378399767695	145.428417236632	0.0500174689368578
151700	50	621	0	0	candelabra	252	3	2	stimuli\candelabra\candelabra_07s.jpg	6	-1	2	0	candelabra_07s.jpg	0	0	0	145.478414225596	145.528411214545	0.0499969889497152
151800	50	622	0	0	mistletoe	1007	4	2	stimuli\mistletoe\mistletoe_02s.jpg	1	-1	2	0	mistletoe_02s.jpg	0	0	0	145.578418931109	145.62839909723	0.0499801661208039
151900	50	623	0	0	sandwich	1357	5	2	stimuli\sandwich\sandwich_04s.jpg	3	-1	2	0	sandwich_04s.jpg	0	0	0	145.678437289942	145.728421357009	0.0499840670672711
152000	50	624	0	0	peach	1129	6	2	stimuli\peach\peach_02n.jpg	1	-1	2	0	peach_02n.jpg	1	0	0	145.778432974519	145.828414847303	0.0499818727839738
152100	50	625	0	0	cow	426	7	2	stimuli\cow\cow_09s.jpg	8	-1	2	0	cow_09s.jpg	0	0	0	145.87843938671	145.92842223472	0.0499828480096767
152200	50	626	0	0	cheetah	315	8	2	stimuli\cheetah\cheetah_09s.jpg	8	-1	2	0	cheetah_09s.jpg	0	0	0	145.978441654137	146.02841962596	0.0499779718229547
152300	50	627	0	0	hearse	771	9	2	stimuli\hearse\hearse_07s.jpg	6	-1	2	0	hearse_07s.jpg	0	0	0	146.078448310131	146.128427744814	0.0499794346833369
152400	50	628	0	0	ashtray	41	10	2	stimuli\ashtray\ashtray_04s.jpg	3	-1	2	0	ashtray_04s.jpg	0	0	0	146.178447408034	146.228416115118	0.0499687070841901
152500	50	629	0	0	hyena	815	11	2	stimuli\hyena\hyena_07s.jpg	6	-1	2	0	hyena_07s.jpg	0	0	0	146.278431389757	146.328416188248	0.0499847984901862
152600	50	630	0	0	hotplate	806	12	2	stimuli\hotplate\hotplate_04s.jpg	3	-1	2	0	hotplate_04s.jpg	0	0	0	146.378437801948	146.428438691844	0.0500008898961823
152700	50	631	0	0	shield	1420	13	2	stimuli\shield\shield_07s.jpg	6	-1	2	0	shield_07s.jpg	0	0	0	146.478455673161	146.528437058325	0.0499813851638464
152800	50	632	0	0	tortellini	1686	14	2	stimuli\tortellini\tortellini_05s.jpg	4	-1	2	0	tortellini_05s.jpg	0	0	0	146.578465742481	146.628443958136	0.0499782156548463
152900	50	633	0	0	ice_cube	819	15	2	stimuli\ice_cube\ice_cube_09s.jpg	8	-1	2	0	ice_cube_09s.jpg	0	0	0	146.678464352779	146.728442324602	0.0499779718229547
153000	50	634	0	0	wheelchair	1808	16	2	stimuli\wheelchair\wheelchair_02s.jpg	1	-1	2	0	wheelchair_02s.jpg	0	0	0	146.778463450682	146.828446054889	0.0499826042068889
153100	50	635	0	0	bonsai	164	17	2	stimuli\bonsai\bonsai_04s.jpg	3	-1	2	0	bonsai_04s.jpg	0	0	0	146.878464986672	146.92844442137	0.0499794346978888
153200	50	636	0	0	touchpad	1691	18	2	stimuli\touchpad\touchpad_01b.jpg	0	-1	2	0	touchpad_01b.jpg	0	0	0	146.978464816013	147.028451564984	0.0499867489706958
153300	50	637	0	0	dogfood	496	19	2	stimuli\dogfood\dogfood_07s.jpg	6	-1	2	0	dogfood_07s.jpg	0	0	0	147.07844782251	147.128427501011	0.0499796785006765
153400	50	638	0	0	icemaker	821	20	2	stimuli\icemaker\icemaker_11s.jpg	10	-1	2	0	icemaker_11s.jpg	0	0	0	147.178480566086	147.22844171508	0.0499611489940435
153500	50	639	0	0	cigarette_butt	345	21	2	stimuli\cigarette_butt\cigarette_butt_10s.jpg	9	-1	2	0	cigarette_butt_10s.jpg	0	0	0	147.278476494481	147.328443982507	0.0499674880265957
153600	50	640	0	0	pencil_sharpener	1143	22	2	stimuli\pencil_sharpener\pencil_sharpener_10s.jpg	9	-1	2	0	pencil_sharpener_10s.jpg	0	0	0	147.378483881897	147.428465267061	0.0499813851638464
153700	50	641	0	0	roller	1324	23	2	stimuli\roller\roller_06s.jpg	5	-1	2	0	roller_06s.jpg	0	0	0	147.478486393127	147.528446323078	0.049959929951001
153800	50	642	0	0	snail	1476	24	2	stimuli\snail\snail_07s.jpg	6	-1	2	0	snail_07s.jpg	0	0	0	147.578458184405	147.628440788612	0.0499826042068889
153900	50	643	0	0	wedge	1801	25	2	stimuli\wedge\wedge_07s.jpg	6	-1	2	0	wedge_07s.jpg	0	0	0	147.678457526112	147.728451101735	0.0499935756233754
154000	50	644	0	0	sled	1460	26	2	stimuli\sled\sled_07s.jpg	6	-1	2	0	sled_07s.jpg	0	0	0	147.778488319222	147.828470435808	0.0499821165867615
154100	50	645	0	0	painting	1098	27	2	stimuli\painting\painting_02s.jpg	1	-1	2	0	painting_02s.jpg	0	0	0	147.878491318072	147.928448322316	0.0499570042447885
154200	50	646	0	0	nail_polish	1049	28	2	stimuli\nail_polish\nail_polish_08s.jpg	7	-1	2	0	nail_polish_08s.jpg	0	0	0	147.978467497916	148.028448151643	0.0499806537263794
154300	50	647	0	0	light_switch	926	29	2	stimuli\light_switch\light_switch_03s.jpg	2	-1	2	0	light_switch_03s.jpg	0	0	0	148.078497559589	148.12847821333	0.0499806537409313
154400	50	648	0	0	cello	292	30	2	stimuli\cello\cello_09s.jpg	8	-1	2	0	cello_09s.jpg	0	0	0	148.178498120353	148.228479017896	0.049980897543719
154500	50	649	0	0	pencil	1142	31	2	stimuli\pencil\pencil_01s.jpg	0	-1	2	0	pencil_01s.jpg	0	0	0	148.27850185064	148.32845885487	0.0499570042302366
154600	50	650	0	0	whale	1804	32	2	stimuli\whale\whale_01b.jpg	0	-1	2	0	whale_01b.jpg	0	0	0	148.378480224754	148.428463316581	0.0499830918270163
154700	50	651	0	0	pedal	1136	33	2	stimuli\pedal\pedal_12s.jpg	11	-1	2	0	pedal_12s.jpg	0	0	0	148.478482004561	148.528463877345	0.0499818727839738
154800	50	652	0	0	coin	385	34	2	stimuli\coin\coin_01b.jpg	0	-1	2	0	coin_01b.jpg	0	0	0	148.578486466271	148.628464925729	0.049978459457634
154900	50	653	0	0	silverware	1445	35	2	stimuli\silverware\silverware_01b.jpg	0	-1	2	0	silverware_01b.jpg	0	0	0	148.678487758458	148.728497425502	0.0500096670439234
155000	50	654	0	0	diskette	493	36	2	stimuli\diskette\diskette_10s.jpg	9	-1	2	0	diskette_10s.jpg	0	0	0	148.778519770611	148.828471654866	0.0499518842552789
