onset	duration	eventnumber	blocksequencenumber	isteststim	object	objectnumber	presentationnumber	sequencenumber	stim	stimnumber	teststimnumber	withinsequencenumber	istarget	stimname	response	rt	correct	time_stimon	time_stimoff	stimdur
34806	50	0	0	0	skull	1458	0	0	stimuli\skull\skull_05s.jpg	4	-1	0	0	skull_05s.jpg	0	0	0	29.6402623486938	29.6902418199461	0.0499794712522998
34906	50	1	0	0	hoe	784	1	0	stimuli\hoe\hoe_03s.jpg	2	-1	0	0	hoe_03s.jpg	0	0	0	29.7402646892733	29.790242941468	0.0499782521947054
35006	50	2	0	0	trowel	1719	2	0	stimuli\trowel\trowel_10s.jpg	9	-1	0	0	trowel_10s.jpg	0	0	0	29.8402511822205	29.8902506458398	0.0499994636193151
35106	50	3	0	0	place_mat	1193	3	0	stimuli\place_mat\place_mat_06s.jpg	5	-1	0	0	place_mat_06s.jpg	0	0	0	29.9402805856371	29.9902471349924	0.0499665493553039
35206	50	4	0	0	cockroach	373	4	0	stimuli\cockroach\cockroach_11s.jpg	10	-1	0	0	cockroach_11s.jpg	0	0	0	30.0402522062213	30.0902263136668	0.0499741074454505
35306	50	5	0	0	crowbar	447	5	0	stimuli\crowbar\crowbar_04s.jpg	3	-1	0	0	crowbar_04s.jpg	0	0	0	30.1402728325047	30.19092082922	0.05064799671527
35406	50	6	0	0	chute	342	6	0	stimuli\chute\chute_03s.jpg	2	-1	0	0	chute_03s.jpg	0	0	0	30.2402783425932	30.2902570824081	0.0499787398148328
35506	50	7	0	0	contact_lens	397	7	0	stimuli\contact_lens\contact_lens_04s.jpg	3	-1	0	0	contact_lens_04s.jpg	0	0	0	30.3402780012693	30.3902625925111	0.0499845912418095
35606	50	8	0	0	cigarette_holder	346	8	0	stimuli\cigarette_holder\cigarette_holder_03s.jpg	2	-1	0	0	cigarette_holder_03s.jpg	0	0	0	30.4402808294544	30.4902668835566	0.0499860541021917
35706	50	9	0	0	scallop	1373	9	0	stimuli\scallop\scallop_07s.jpg	6	-1	0	0	scallop_07s.jpg	0	0	0	30.5402824385965	30.5902631288918	0.0499806902953424
35806	50	10	0	0	seahorse	1396	10	0	stimuli\seahorse\seahorse_08s.jpg	7	-1	0	0	seahorse_08s.jpg	0	0	0	30.6402769772685	30.6902471837529	0.0499702064844314
35906	50	11	0	0	bracelet1	187	11	0	stimuli\bracelet1\bracelet1_12s.jpg	11	-1	0	0	bracelet1_12s.jpg	0	0	0	30.7402634702157	30.7902553757449	0.0499919055291684
36006	50	12	0	0	silverware	1445	12	0	stimuli\silverware\silverware_08s.jpg	7	-1	0	0	silverware_08s.jpg	0	0	0	30.8402755631687	30.8902813658351	0.0500058026664192
36106	50	13	0	0	stew	1551	13	0	stimuli\stew\stew_08s.jpg	7	-1	0	0	stew_08s.jpg	0	0	0	30.9402859494439	30.9902795616363	0.0499936121923383
36206	50	14	0	0	chariot	309	14	0	stimuli\chariot\chariot_01b.jpg	0	-1	0	0	chariot_01b.jpg	0	0	0	31.0403002366802	31.0902662984154	0.0499660617351765
36306	50	15	0	0	thread	1651	15	0	stimuli\thread\thread_03s.jpg	2	-1	0	0	thread_03s.jpg	0	0	0	31.1403059905861	31.1902886313474	0.0499826407613
36406	50	16	0	0	sink	1447	16	0	stimuli\sink\sink_04s.jpg	3	-1	0	0	sink_04s.jpg	0	0	0	31.240312232112	31.2902702481224	0.0499580160103505
36506	50	17	0	0	ferry	580	17	0	stimuli\ferry\ferry_07s.jpg	6	-1	0	0	ferry_07s.jpg	0	0	0	31.3402916545892	31.3902916058287	0.0499999512394425
36606	50	18	0	0	snowmobile	1483	18	0	stimuli\snowmobile\snowmobile_11s.jpg	10	-1	0	0	snowmobile_11s.jpg	0	0	0	31.4403186199197	31.4902939463936	0.0499753264739411
36706	50	19	0	0	straw1	1568	19	0	stimuli\straw1\straw1_10s.jpg	9	-1	0	0	straw1_10s.jpg	0	0	0	31.5403151090577	31.5902977498336	0.0499826407758519
36806	50	20	0	0	antelope	26	20	0	stimuli\antelope\antelope_10n.jpg	9	-1	0	0	antelope_10n.jpg	0	0	0	31.6403167181998	31.6902976522979	0.0499809340981301
36906	50	21	0	0	lava	903	21	0	stimuli\lava\lava_01b.jpg	0	-1	0	0	lava_01b.jpg	0	0	0	31.7403183273418	31.7902999928774	0.0499816655355971
37006	50	22	0	0	magnifier	957	22	0	stimuli\magnifier\magnifier_05s.jpg	4	-1	0	0	magnifier_05s.jpg	0	0	0	31.8403211555269	31.8903028210625	0.0499816655355971
37106	50	23	0	0	walker1	1773	23	0	stimuli\walker1\walker1_07s.jpg	6	-1	0	0	walker1_07s.jpg	0	0	0	31.9403234961064	31.9902854130632	0.0499619169568177
37206	50	24	0	0	snail	1476	24	0	stimuli\snail\snail_04s.jpg	3	-1	0	0	snail_04s.jpg	0	0	0	32.0403248614311	32.0903043326834	0.0499794712522998
37306	50	25	0	0	refrigerator	1300	25	0	stimuli\refrigerator\refrigerator_04s.jpg	3	-1	0	0	refrigerator_04s.jpg	0	0	0	32.1403259829531	32.1903059418255	0.0499799588724272
37406	50	26	0	0	cage	236	26	0	stimuli\cage\cage_07s.jpg	6	-1	0	0	cage_07s.jpg	0	0	0	32.2403124759148	32.2903119395341	0.0499994636193151
37506	50	27	0	0	baklava	57	27	0	stimuli\baklava\baklava_09s.jpg	8	-1	0	0	baklava_09s.jpg	0	0	0	32.3403296888573	32.3903142801137	0.0499845912563615
37606	50	28	0	0	nightshirt	1058	28	0	stimuli\nightshirt\nightshirt_04s.jpg	3	-1	0	0	nightshirt_04s.jpg	0	0	0	32.4403332484799	32.4902963844943	0.0499631360144122
37706	50	29	0	0	cigarette_butt	345	29	0	stimuli\cigarette_butt\cigarette_butt_10s.jpg	9	-1	0	0	cigarette_butt_10s.jpg	0	0	0	32.5403368081024	32.5903165231575	0.0499797150550876
37806	50	30	0	0	missile	1006	30	0	stimuli\missile\missile_03s.jpg	2	-1	0	0	missile_03s.jpg	0	0	0	32.6403386610473	32.6903186199197	0.0499799588724272
37906	50	31	0	0	spider	1513	31	0	stimuli\spider\spider_09n.jpg	8	-1	0	0	spider_09n.jpg	0	0	0	32.7403241787688	32.7903199852444	0.0499958064756356
38006	50	32	0	0	turbine	1731	32	0	stimuli\turbine\turbine_05s.jpg	4	-1	0	0	turbine_05s.jpg	0	0	0	32.840327494574	32.8903272020107	0.0499997074366547
38106	50	33	0	0	leech	909	33	0	stimuli\leech\leech_12s.jpg	11	-1	0	0	leech_12s.jpg	0	0	0	32.9403434884734	32.9903236911487	0.049980202675215
38206	50	34	0	0	xylophone	1843	34	0	stimuli\xylophone\xylophone_05s.jpg	4	-1	0	0	xylophone_05s.jpg	0	0	0	33.0403443661926	33.090326275531	0.0499819093383849
38306	50	35	0	0	flyswatter	623	35	0	stimuli\flyswatter\flyswatter_02s.jpg	1	-1	0	0	flyswatter_02s.jpg	0	0	0	33.1403479258151	33.190327884673	0.0499799588578753
38406	50	36	0	0	moth	1023	36	0	stimuli\moth\moth_03n.jpg	2	-1	0	0	moth_03n.jpg	0	0	0	33.24034977876	33.2903387585684	0.0499889798084041
38506	50	37	0	0	bow1	174	37	0	stimuli\bow1\bow1_10s.jpg	9	-1	0	0	bow1_10s.jpg	0	0	0	33.3403533383826	33.3903340286779	0.0499806902953424
38606	50	38	0	0	sewing_machine	1407	38	0	stimuli\sewing_machine\sewing_machine_04s.jpg	3	-1	0	0	sewing_machine_04s.jpg	0	0	0	33.4403556789475	33.4903361254255	0.0499804464780027
38706	50	39	0	0	stir_fry	1557	39	0	stimuli\stir_fry\stir_fry_08s.jpg	7	-1	0	0	stir_fry_08s.jpg	0	0	0	33.5403572880896	33.5903379783849	0.0499806902953424
38806	50	40	0	0	drill	520	40	0	stimuli\drill\drill_04s.jpg	3	-1	0	0	drill_04s.jpg	0	0	0	33.6403586534288	33.6903303227737	0.0499716693448136
38906	50	41	0	0	tulip	1726	41	0	stimuli\tulip\tulip_09s.jpg	8	-1	0	0	tulip_09s.jpg	0	0	0	33.7403492911399	33.7903299814352	0.0499806902953424
39006	50	42	0	0	pump	1252	42	0	stimuli\pump\pump_05s.jpg	4	-1	0	0	pump_05s.jpg	0	0	0	33.8403723555093	33.8903525581845	0.049980202675215
39106	50	43	0	0	chicken1	322	43	0	stimuli\chicken1\chicken1_03s.jpg	2	-1	0	0	chicken1_03s.jpg	0	0	0	33.9403749398916	33.9903512416204	0.0499763017287478
39206	50	44	0	0	seagull	1395	44	0	stimuli\seagull\seagull_08s.jpg	7	-1	0	0	seagull_08s.jpg	0	0	0	34.0403733795101	34.0903530945652	0.0499797150550876
39306	50	45	0	0	gel	669	45	0	stimuli\gel\gel_05s.jpg	4	-1	0	0	gel_05s.jpg	0	0	0	34.1403808400792	34.1903490960976	0.0499682560184738
39406	50	46	0	0	folder	625	46	0	stimuli\folder\folder_12s.jpg	11	-1	0	0	folder_12s.jpg	0	0	0	34.2403787920775	34.2903577757097	0.0499789836321725
39506	50	47	0	0	board	152	47	0	stimuli\board\board_01b.jpg	0	-1	0	0	board_01b.jpg	0	0	0	34.3403652850393	34.3903640172357	0.0499987321963999
39606	50	48	0	0	pantyhose	1110	48	0	stimuli\pantyhose\pantyhose_05s.jpg	4	-1	0	0	pantyhose_05s.jpg	0	0	0	34.4403876179858	34.4903470968566	0.0499594788707327
39706	50	49	0	0	roof_rack	1329	49	0	stimuli\roof_rack\roof_rack_09s.jpg	8	-1	0	0	roof_rack_09s.jpg	0	0	0	34.5403863014071	34.5903509002819	0.0499645988747943
39806	50	50	0	0	hanger	751	50	0	stimuli\hanger\hanger_12s.jpg	11	-1	0	0	hanger_12s.jpg	0	0	0	34.6403925429331	34.6903469018143	0.049954358881223
39906	50	51	0	0	sandbag	1353	51	0	stimuli\sandbag\sandbag_03s.jpg	2	-1	0	0	sandbag_03s.jpg	0	0	0	34.7403617254167	34.7903446099954	0.0499828845786396
40006	50	52	0	0	banjo	68	52	0	stimuli\banjo\banjo_04s.jpg	3	-1	0	0	banjo_04s.jpg	0	0	0	34.8403645536164	34.8903476819978	0.0499831283814274
40106	50	53	0	0	cream_cheese	437	53	0	stimuli\cream_cheese\cream_cheese_11s.jpg	10	-1	0	0	cream_cheese_11s.jpg	0	0	0	34.9403712827479	34.9903485597169	0.0499772769690026
40206	50	54	0	0	fudge	647	54	0	stimuli\fudge\fudge_09s.jpg	8	-1	0	0	fudge_09s.jpg	0	0	0	35.0403721604671	35.0903652850393	0.0499931245722109
40306	50	55	0	0	gopher	694	55	0	stimuli\gopher\gopher_04s.jpg	3	-1	0	0	gopher_04s.jpg	0	0	0	35.1404020515038	35.1903839608422	0.0499819093383849
40406	50	56	0	0	spring_roll	1521	56	0	stimuli\spring_roll\spring_roll_11s.jpg	10	-1	0	0	spring_roll_11s.jpg	0	0	0	35.2404070739722	35.2903863014071	0.0499792274349602
40506	50	57	0	0	blindfold	142	57	0	stimuli\blindfold\blindfold_07s.jpg	6	-1	0	0	blindfold_07s.jpg	0	0	0	35.3404072202684	35.3903866915061	0.0499794712377479
40606	50	58	0	0	fossil	636	58	0	stimuli\fossil\fossil_03s.jpg	2	-1	0	0	fossil_03s.jpg	0	0	0	35.4404076103528	35.4903909825516	0.049983372198767
40706	50	59	0	0	breathalyzer	198	59	0	stimuli\breathalyzer\breathalyzer_01b.jpg	0	-1	0	0	breathalyzer_01b.jpg	0	0	0	35.5404158023593	35.590392835511	0.0499770331516629
40806	50	60	0	0	domino	503	60	0	stimuli\domino\domino_09s.jpg	8	-1	0	0	domino_09s.jpg	0	0	0	35.6404188743472	35.6903754275118	0.0499565531645203
40906	50	61	0	0	sauce	1362	61	0	stimuli\sauce\sauce_09s.jpg	8	-1	0	0	sauce_09s.jpg	0	0	0	35.7403900073114	35.7903697223664	0.0499797150550876
41006	50	62	0	0	poodle	1221	62	0	stimuli\poodle\poodle_01b.jpg	0	-1	0	0	poodle_01b.jpg	0	0	0	35.8403921040735	35.890410828637	0.0500187245634152
41106	50	63	0	0	tee	1636	63	0	stimuli\tee\tee_05s.jpg	4	-1	0	0	tee_05s.jpg	0	0	0	35.9404212636873	35.9904019539827	0.0499806902953424
41206	50	64	0	0	cheeseburger	313	64	0	stimuli\cheeseburger\cheeseburger_11s.jpg	10	-1	0	0	cheeseburger_11s.jpg	0	0	0	36.0404279928334	36.0903891783673	0.0499611855339026
41306	50	65	0	0	toolbox	1677	65	0	stimuli\toolbox\toolbox_11s.jpg	10	-1	0	0	toolbox_11s.jpg	0	0	0	36.1404278952978	36.1904151684575	0.0499872731597861
41406	50	66	0	0	turtle	1736	66	0	stimuli\turtle\turtle_02s.jpg	1	-1	0	0	turtle_02s.jpg	0	0	0	36.2404312111175	36.2904055623658	0.0499743512482382
41506	50	67	0	0	milkshake	1002	67	0	stimuli\milkshake\milkshake_02s.jpg	1	-1	0	0	milkshake_02s.jpg	0	0	0	36.3404189231223	36.390415948641	0.0499970255186781
41606	50	68	0	0	vial	1760	68	0	stimuli\vial\vial_05s.jpg	4	-1	0	0	vial_05s.jpg	0	0	0	36.4404183379665	36.4904151196824	0.0499967817158904
41706	50	69	0	0	fig	581	69	0	stimuli\fig\fig_12s.jpg	11	-1	0	0	fig_12s.jpg	0	0	0	36.5404377452069	36.590418679305	0.0499809340981301
41806	50	70	0	0	eel	545	70	0	stimuli\eel\eel_04s.jpg	3	-1	0	0	eel_04s.jpg	0	0	0	36.6404391105316	36.6904271151143	0.0499880045827013
41906	50	71	0	0	pepper_mill	1151	71	0	stimuli\pepper_mill\pepper_mill_04s.jpg	3	-1	0	0	pepper_mill_04s.jpg	0	0	0	36.7404273101565	36.7904228728294	0.0499955626728479
42006	50	72	0	0	weasel	1797	72	0	stimuli\weasel\weasel_02s.jpg	1	-1	0	0	weasel_02s.jpg	0	0	0	36.8404272126354	36.890428870538	0.0500016579026124
42106	50	73	0	0	espresso	560	73	0	stimuli\espresso\espresso_09s.jpg	8	-1	0	0	espresso_09s.jpg	0	0	0	36.9404527151055	36.9904134130193	0.0499606979137752
42206	50	74	0	0	copier	405	74	0	stimuli\copier\copier_09s.jpg	8	-1	0	0	copier_09s.jpg	0	0	0	37.0404509109067	37.0904350145429	0.0499841036362341
42306	50	75	0	0	brake	191	75	0	stimuli\brake\brake_06s.jpg	5	-1	0	0	brake_06s.jpg	0	0	0	37.1404483752995	37.1904334541614	0.0499850788619369
42406	50	76	0	0	pine_needle	1180	76	0	stimuli\pine_needle\pine_needle_07s.jpg	6	-1	0	0	pine_needle_07s.jpg	0	0	0	37.2404543730081	37.2904321375827	0.049977764574578
42506	50	77	0	0	mold1	1012	77	0	stimuli\mold1\mold1_11s.jpg	10	-1	0	0	mold1_11s.jpg	0	0	0	37.3404547631071	37.390435941008	0.0499811779009178
42606	50	78	0	0	tab	1607	78	0	stimuli\tab\tab_09s.jpg	8	-1	0	0	tab_09s.jpg	0	0	0	37.4404568598693	37.4904375501501	0.0499806902807904
42706	50	79	0	0	cheetah	315	79	0	stimuli\cheetah\cheetah_12s.jpg	11	-1	0	0	cheetah_12s.jpg	0	0	0	37.5404589566315	37.5904535440495	0.0499945874180412
42806	50	80	0	0	router	1336	80	0	stimuli\router\router_08s.jpg	7	-1	0	0	router_08s.jpg	0	0	0	37.6404430114926	37.6904176065436	0.049974595051026
42906	50	81	0	0	cellphone	293	81	0	stimuli\cellphone\cellphone_06s.jpg	5	-1	0	0	cellphone_06s.jpg	0	0	0	37.7404387692077	37.7904204347287	0.0499816655210452
43006	50	82	0	0	gauze	664	82	0	stimuli\gauze\gauze_07s.jpg	6	-1	0	0	gauze_07s.jpg	0	0	0	37.8404513497662	37.8904605657735	0.0500092160073109
43106	50	83	0	0	mat	982	83	0	stimuli\mat\mat_11s.jpg	10	-1	0	0	mat_11s.jpg	0	0	0	37.9404766084335	37.9904548606282	0.0499782521947054
43206	50	84	0	0	walrus	1779	84	0	stimuli\walrus\walrus_06s.jpg	5	-1	0	0	walrus_06s.jpg	0	0	0	38.0404594442371	38.0904586640536	0.0499992198165273
43306	50	85	0	0	scallion	1372	85	0	stimuli\scallion\scallion_09s.jpg	8	-1	0	0	scallion_09s.jpg	0	0	0	38.1404803143378	38.1904653931997	0.0499850788619369
43406	50	86	0	0	power_line	1237	86	0	stimuli\power_line\power_line_03s.jpg	2	-1	0	0	power_line_03s.jpg	0	0	0	38.2404787539563	38.2904638328182	0.0499850788619369
43506	50	87	0	0	syringe	1604	87	0	stimuli\syringe\syringe_04s.jpg	3	-1	0	0	syringe_04s.jpg	0	0	0	38.3404847516649	38.3904578838701	0.0499731322051957
43606	50	88	0	0	car_seat	269	88	0	stimuli\car_seat\car_seat_02s.jpg	1	-1	0	0	car_seat_02s.jpg	0	0	0	38.4404829474806	38.4904599806177	0.049977033137111
43706	50	89	0	0	marijuana	974	89	0	stimuli\marijuana\marijuana_08s.jpg	7	-1	0	0	marijuana_08s.jpg	0	0	0	38.5404830937623	38.5904598830966	0.0499767893343233
43806	50	90	0	0	muffin	1035	90	0	stimuli\muffin\muffin_05n.jpg	4	-1	0	0	muffin_05n.jpg	0	0	0	38.6404864095675	38.6904656370025	0.0499792274349602
43906	50	91	0	0	dumbwaiter	531	91	0	stimuli\dumbwaiter\dumbwaiter_11s.jpg	10	-1	0	0	dumbwaiter_11s.jpg	0	0	0	38.7404865558492	38.7904694404278	0.0499828845786396
44006	50	92	0	0	mussel	1042	92	0	stimuli\mussel\mussel_02s.jpg	1	-1	0	0	mussel_02s.jpg	0	0	0	38.8404903592746	38.8904781200399	0.0499877607653616
44106	50	93	0	0	strainer	1566	93	0	stimuli\strainer\strainer_07s.jpg	6	-1	0	0	strainer_07s.jpg	0	0	0	38.9405022084247	38.9904643691989	0.0499621607741574
44206	50	94	0	0	curb	462	94	0	stimuli\curb\curb_04s.jpg	3	-1	0	0	curb_04s.jpg	0	0	0	39.0405035737494	39.0904620773799	0.0499585036304779
44306	50	95	0	0	oven	1089	95	0	stimuli\oven\oven_10s.jpg	9	-1	0	0	oven_10s.jpg	0	0	0	39.1405034762283	39.1904873360472	0.0499838598188944
44406	50	96	0	0	taxi	1630	96	0	stimuli\taxi\taxi_07s.jpg	6	-1	0	0	taxi_07s.jpg	0	0	0	39.2404902129929	39.2904735851916	0.049983372198767
44506	50	97	0	0	dogfood	496	97	0	stimuli\dogfood\dogfood_10s.jpg	9	-1	0	0	dogfood_10s.jpg	0	0	0	39.340502793566	39.3904686114838	0.0499658179178368
44606	50	98	0	0	bouquet	173	98	0	stimuli\bouquet\bouquet_08s.jpg	7	-1	0	0	bouquet_08s.jpg	0	0	0	39.4404963569978	39.4904675387224	0.0499711817246862
44706	50	99	0	0	ready_meal	1292	99	0	stimuli\ready_meal\ready_meal_04s.jpg	3	-1	0	0	ready_meal_04s.jpg	0	0	0	39.5405160080263	39.5905105954589	0.0499945874325931
44806	50	100	0	0	cash_machine	279	100	0	stimuli\cash_machine\cash_machine_12s.jpg	11	-1	0	0	cash_machine_12s.jpg	0	0	0	39.6405198114662	39.6905046465108	0.0499848350445973
44906	50	101	0	0	duster	534	101	0	stimuli\duster\duster_09s.jpg	8	-1	0	0	duster_09s.jpg	0	0	0	39.7405055729905	39.7904911394726	0.0499855664820643
45006	50	102	0	0	french_fries	641	102	0	stimuli\french_fries\french_fries_04s.jpg	3	-1	0	0	french_fries_04s.jpg	0	0	0	39.8405259554565	39.8905103028956	0.0499843474390218
45106	50	103	0	0	robot	1318	103	0	stimuli\robot\robot_04s.jpg	3	-1	0	0	robot_04s.jpg	0	0	0	39.9405314655451	39.9905089863169	0.0499775207717903
45206	50	104	0	0	wheat	1805	104	0	stimuli\wheat\wheat_08n.jpg	7	-1	0	0	wheat_08n.jpg	0	0	0	40.0405311242212	40.0905084011756	0.0499772769544506
45306	50	105	0	0	rolling_pin	1328	105	0	stimuli\rolling_pin\rolling_pin_09s.jpg	8	-1	0	0	rolling_pin_09s.jpg	0	0	0	40.1405315143056	40.1905141550815	0.0499826407758519
45406	50	106	0	0	dalmatian	471	106	0	stimuli\dalmatian\dalmatian_08s.jpg	7	-1	0	0	dalmatian_08s.jpg	0	0	0	40.240533367265	40.2904972347023	0.0499638674373273
45506	50	107	0	0	hot-air_balloon	801	107	0	stimuli\hot-air_balloon\hot-air_balloon_03s.jpg	2	-1	0	0	hot-air_balloon_03s.jpg	0	0	0	40.3405371706904	40.3905032324255	0.0499660617351765
45606	50	108	0	0	cougar	423	108	0	stimuli\cougar\cougar_08s.jpg	7	-1	0	0	cougar_08s.jpg	0	0	0	40.4405397550727	40.4905267844151	0.0499870293424465
45706	50	109	0	0	target	1627	109	0	stimuli\target\target_05s.jpg	4	-1	0	0	target_05s.jpg	0	0	0	40.5405289299379	40.5905120583193	0.0499831283814274
45806	50	110	0	0	fondue	626	110	0	stimuli\fondue\fondue_03s.jpg	2	-1	0	0	fondue_03s.jpg	0	0	0	40.6405324895459	40.6904995265213	0.0499670369754313
45906	50	111	0	0	incense	826	111	0	stimuli\incense\incense_08s.jpg	7	-1	0	0	incense_08s.jpg	0	0	0	40.7405033787072	40.7905104004167	0.0500070217094617
46006	50	112	0	0	blanket	136	112	0	stimuli\blanket\blanket_12s.jpg	11	-1	0	0	blanket_12s.jpg	0	0	0	40.8405622830614	40.8905341962236	0.0499719131621532
46106	50	113	0	0	mailbox	960	113	0	stimuli\mailbox\mailbox_06s.jpg	5	-1	0	0	mailbox_06s.jpg	0	0	0	40.9405556026904	40.990516544407	0.049960941716563
46206	50	114	0	0	hammock	742	114	0	stimuli\hammock\hammock_06s.jpg	5	-1	0	0	hammock_06s.jpg	0	0	0	41.0405528232513	41.0905101078388	0.0499572845874354
46306	50	115	0	0	trapdoor	1703	115	0	stimuli\trapdoor\trapdoor_07s.jpg	6	-1	0	0	trapdoor_07s.jpg	0	0	0	41.1405641847814	41.1905517017294	0.0499875169480219
46406	50	116	0	0	gear	667	116	0	stimuli\gear\gear_05s.jpg	4	-1	0	0	gear_05s.jpg	0	0	0	41.2405448263016	41.2905245413567	0.0499797150550876
46506	50	117	0	0	dough	513	117	0	stimuli\dough\dough_11s.jpg	10	-1	0	0	dough_11s.jpg	0	0	0	41.3405449725979	41.3905437047797	0.049998732181848
46606	50	118	0	0	sunroof	1586	118	0	stimuli\sunroof\sunroof_08s.jpg	7	-1	0	0	sunroof_08s.jpg	0	0	0	41.4405468255427	41.490528247261	0.0499814217182575
46706	50	119	0	0	coffee_filter	379	119	0	stimuli\coffee_filter\coffee_filter_09s.jpg	8	-1	0	0	coffee_filter_09s.jpg	0	0	0	41.5405679394462	41.5905483859242	0.0499804464780027
46806	50	120	0	0	warthog	1781	120	0	stimuli\warthog\warthog_08s.jpg	7	-1	0	1	warthog_08s.jpg	0	0	0	41.6405541885906	41.6905370731693	0.0499828845786396
46906	50	121	0	0	pillow	1176	121	0	stimuli\pillow\pillow_06s.jpg	5	-1	0	0	pillow_06s.jpg	0	0	0	41.7405475082051	41.7905269794574	0.0499794712522998
47006	50	122	0	0	touchpad	1691	122	0	stimuli\touchpad\touchpad_08s.jpg	7	-1	0	0	touchpad_08s.jpg	0	0	0	41.8405749611557	41.890557601917	0.0499826407613
47106	50	123	0	0	lamb_chop	890	123	0	stimuli\lamb_chop\lamb_chop_04s.jpg	3	-1	0	0	lamb_chop_04s.jpg	0	0	0	41.9405777893408	41.9905601862993	0.0499823969585123
47206	50	124	0	0	gramophone	699	124	0	stimuli\gramophone\gramophone_08s.jpg	7	-1	0	0	gramophone_08s.jpg	0	0	0	42.0405779356224	42.0905637459218	0.049985810299404
47306	50	125	0	0	doorknob	509	125	0	stimuli\doorknob\doorknob_01b.jpg	0	-1	0	0	doorknob_01b.jpg	0	0	0	42.140586615249	42.1905663303041	0.0499797150550876
47406	50	126	0	0	hawk	760	126	0	stimuli\hawk\hawk_06s.jpg	5	-1	0	0	hawk_06s.jpg	1	0.606013705997611	1	42.2405840796273	42.2905491661222	0.0499650864949217
47506	50	127	0	0	bank	69	127	0	stimuli\bank\bank_12s.jpg	11	-1	0	0	bank_12s.jpg	0	0	0	42.3405908087734	42.3905695485882	0.0499787398148328
47606	50	128	0	0	belt	118	128	0	stimuli\belt\belt_10s.jpg	9	-1	0	0	belt_10s.jpg	0	0	0	42.4405970502849	42.490568963447	0.0499719131621532
47706	50	129	0	0	lid	923	129	0	stimuli\lid\lid_08s.jpg	7	-1	0	0	lid_08s.jpg	0	0	0	42.5405928079999	42.5905752049584	0.0499823969585123
47806	50	130	0	0	shuffleboard	1439	130	0	stimuli\shuffleboard\shuffleboard_01b.jpg	0	-1	0	0	shuffleboard_01b.jpg	0	0	0	42.6405975866655	42.6905792522011	0.0499816655355971
47906	50	131	0	0	freezer	640	131	0	stimuli\freezer\freezer_10s.jpg	9	-1	0	0	freezer_10s.jpg	0	0	0	42.7406001710478	42.7905808613432	0.0499806902953424
48006	50	132	0	0	lasagna	898	132	0	stimuli\lasagna\lasagna_06s.jpg	5	-1	0	0	lasagna_06s.jpg	0	0	0	42.8405815440055	42.8905612590606	0.0499797150550876
48106	50	133	0	0	leotard	918	133	0	stimuli\leotard\leotard_03s.jpg	2	-1	0	0	leotard_03s.jpg	0	0	0	42.9405743760144	42.9905545786896	0.049980202675215
48206	50	134	0	0	tack	1611	134	0	stimuli\tack\tack_07s.jpg	6	-1	0	0	tack_07s.jpg	0	0	0	43.0405789108627	43.0905922716192	0.0500133607565658
48306	50	135	0	0	stove2	1564	135	0	stimuli\stove2\stove2_01b.jpg	0	-1	0	0	stove2_01b.jpg	0	0	0	43.1406080704764	43.1905714502936	0.0499633798171999
48406	50	136	0	0	boxing_gloves	183	136	0	stimuli\boxing_gloves\boxing_gloves_04s.jpg	3	-1	0	0	boxing_gloves_04s.jpg	0	0	0	43.240593588198	43.2905918327742	0.0499982445762726
48506	50	137	0	0	barrel	76	137	0	stimuli\barrel\barrel_10s.jpg	9	-1	0	0	barrel_10s.jpg	0	0	0	43.3406003173295	43.3905956361996	0.0499953188700601
48606	50	138	0	0	bookmark	166	138	0	stimuli\bookmark\bookmark_01s.jpg	0	-1	0	0	bookmark_01s.jpg	0	0	0	43.4405980255251	43.4905811539065	0.0499831283814274
48706	50	139	0	0	generator	671	139	0	stimuli\generator\generator_12s.jpg	11	-1	0	0	generator_12s.jpg	0	0	0	43.540621821332	43.5906025116274	0.0499806902953424
48806	50	140	0	0	skirt	1457	140	0	stimuli\skirt\skirt_09s.jpg	8	-1	0	0	skirt_09s.jpg	0	0	0	43.6406190418929	43.6905851036281	0.0499660617351765
48906	50	141	0	0	jackhammer	837	141	0	stimuli\jackhammer\jackhammer_08s.jpg	7	-1	0	0	jackhammer_08s.jpg	0	0	0	43.7406065100949	43.7906047546712	0.0499982445762726
49006	50	142	0	0	timer	1661	142	0	stimuli\timer\timer_02s.jpg	1	-1	0	0	timer_02s.jpg	0	0	0	43.8406242106576	43.8906078266591	0.0499836160015548
49106	50	143	0	0	hearing_aid	770	143	0	stimuli\hearing_aid\hearing_aid_10s.jpg	9	-1	0	0	hearing_aid_10s.jpg	0	0	0	43.9406270388426	43.9906094358012	0.0499823969585123
49206	50	144	0	0	pan	1103	144	0	stimuli\pan\pan_10s.jpg	9	-1	0	0	pan_10s.jpg	0	0	0	44.0406140194245	44.0906154335244	0.0500014140998246
49306	50	145	0	0	moose	1018	145	0	stimuli\moose\moose_11s.jpg	10	-1	0	0	moose_11s.jpg	0	0	0	44.1406395218946	44.1906165550463	0.0499770331516629
49406	50	146	0	0	wallpaper	1777	146	0	stimuli\wallpaper\wallpaper_08s.jpg	7	-1	0	0	wallpaper_08s.jpg	0	0	0	44.2406406434166	44.2906225527549	0.0499819093383849
49506	50	147	0	0	oilcan	1073	147	0	stimuli\oilcan\oilcan_12s.jpg	11	-1	0	0	oilcan_12s.jpg	0	0	0	44.3406405458954	44.39060416953	0.0499636236345395
49606	50	148	0	0	jalapeno	838	148	0	stimuli\jalapeno\jalapeno_12s.jpg	11	-1	0	0	jalapeno_12s.jpg	0	0	0	44.4406255759968	44.4906221138954	0.0499965378985507
49706	50	149	0	0	hummingbird	811	149	0	stimuli\hummingbird\hummingbird_06s.jpg	5	-1	0	0	hummingbird_06s.jpg	0	0	0	44.5406440079823	44.5906254297006	0.0499814217182575
49806	50	150	0	0	crutch	452	150	0	stimuli\crutch\crutch_11s.jpg	10	-1	0	0	crutch_11s.jpg	0	0	0	44.6406490304653	44.6906319150439	0.0499828845786396
49906	50	151	0	0	fencepost	576	151	0	stimuli\fencepost\fencepost_05s.jpg	4	-1	0	0	fencepost_05s.jpg	0	0	0	44.7406496643671	44.7906310860853	0.0499814217182575
50006	50	152	0	0	flute	620	152	0	stimuli\flute\flute_02s.jpg	1	-1	0	0	flute_02s.jpg	0	0	0	44.8406581001764	44.8906378152315	0.0499797150550876
50106	50	153	0	0	hay	761	153	0	stimuli\hay\hay_07s.jpg	6	-1	0	0	hay_07s.jpg	0	0	0	44.9406384978938	44.99063625485	0.0499977569561452
50206	50	154	0	0	fishbowl	601	154	0	stimuli\fishbowl\fishbowl_09s.jpg	8	-1	0	0	fishbowl_09s.jpg	0	0	0	45.0406561984564	45.090637863992	0.0499816655355971
50306	50	155	0	0	chain	298	155	0	stimuli\chain\chain_11s.jpg	10	-1	0	0	chain_11s.jpg	0	0	0	45.1406624399824	45.1906414236	0.0499789836176205
50406	50	156	0	0	goldfish	688	156	0	stimuli\goldfish\goldfish_05s.jpg	4	-1	0	0	goldfish_05s.jpg	0	0	0	45.2406650243647	45.2906254784757	0.0499604541109875
50506	50	157	0	0	spur	1525	157	0	stimuli\spur\spur_03s.jpg	2	-1	0	0	spur_03s.jpg	0	0	0	45.3406641954061	45.390646836182	0.0499826407758519
50606	50	158	0	0	birdbath	129	158	0	stimuli\birdbath\birdbath_10s.jpg	9	-1	0	0	birdbath_10s.jpg	0	0	0	45.440651175988	45.4906479577039	0.0499967817158904
50706	50	159	0	0	teddy_bear	1635	159	0	stimuli\teddy_bear\teddy_bear_03s.jpg	2	-1	0	0	teddy_bear_03s.jpg	0	0	0	45.5406579051196	45.5906512735091	0.0499933683895506
50806	50	160	0	0	pinwheel	1185	160	0	stimuli\pinwheel\pinwheel_12s.jpg	11	-1	0	0	pinwheel_12s.jpg	0	0	0	45.6406736552162	45.6906372788508	0.0499636236345395
50906	50	161	0	0	rim	1312	161	0	stimuli\rim\rim_12s.jpg	11	-1	0	0	rim_12s.jpg	0	0	0	45.7406750205409	45.7906423013192	0.049967280778219
51006	50	162	0	0	test_tube	1645	162	0	stimuli\test_tube\test_tube_01b.jpg	0	-1	0	0	test_tube_01b.jpg	0	0	0	45.8406797992066	45.8906592704589	0.0499794712522998
51106	50	163	0	0	arch	35	163	0	stimuli\arch\arch_06s.jpg	5	-1	0	0	arch_06s.jpg	0	0	0	45.9406850654923	45.9906440567429	0.0499589912506053
51206	50	164	0	0	eagle	537	164	0	stimuli\eagle\eagle_12s.jpg	11	-1	0	0	eagle_12s.jpg	0	0	0	46.0406813108275	46.090664926829	0.0499836160015548
51306	50	165	0	0	paper	1112	165	0	stimuli\paper\paper_10s.jpg	9	-1	0	0	paper_10s.jpg	0	0	0	46.1406875523535	46.1906660483655	0.0499784960120451
51406	50	166	0	0	apple_tree	31	166	0	stimuli\apple_tree\apple_tree_03s.jpg	2	-1	0	0	apple_tree_03s.jpg	0	0	0	46.2406906243559	46.2906532727502	0.0499626483942848
51506	50	167	0	0	shell1	1417	167	0	stimuli\shell1\shell1_03s.jpg	2	-1	0	0	shell1_03s.jpg	0	0	0	46.3406946715841	46.3906743866391	0.0499797150550876
51606	50	168	0	0	rocking_horse	1322	168	0	stimuli\rocking_horse\rocking_horse_11s.jpg	10	-1	0	0	rocking_horse_11s.jpg	0	0	0	46.4406762883591	46.4906716072146	0.0499953188555082
51706	50	169	0	0	jump_rope	858	169	0	stimuli\jump_rope\jump_rope_07s.jpg	6	-1	0	0	jump_rope_07s.jpg	0	0	0	46.5406937451044	46.59067541064	0.0499816655355971
51806	50	170	0	0	ice_cube	819	170	0	stimuli\ice_cube\ice_cube_03s.jpg	2	-1	0	0	ice_cube_03s.jpg	0	0	0	46.6406968171068	46.6906609283615	0.0499641112546669
51906	50	171	0	0	record	1295	171	0	stimuli\record\record_11s.jpg	10	-1	0	0	record_11s.jpg	0	0	0	46.740700132912	46.7906691203534	0.0499689874413889
52006	50	172	0	0	hot_tub	804	172	0	stimuli\hot_tub\hot_tub_04s.jpg	3	-1	0	0	hot_tub_04s.jpg	0	0	0	46.8406902830175	46.8907124209072	0.050022137889755
52106	50	173	0	0	firetruck	596	173	0	stimuli\firetruck\firetruck_06s.jpg	5	-1	0	0	firetruck_06s.jpg	0	0	0	46.9407079835801	46.990673070075	0.0499650864949217
52206	50	174	0	0	egg_roll	547	174	0	stimuli\egg_roll\egg_roll_02s.jpg	1	-1	0	0	egg_roll_02s.jpg	0	0	0	47.0407054479583	47.090687601114	0.0499821531557245
52306	50	175	0	0	licorice	922	175	0	stimuli\licorice\licorice_03s.jpg	2	-1	0	0	licorice_03s.jpg	0	0	0	47.1407060818747	47.1906704369321	0.0499643550574547
52406	50	176	0	0	hobbyhorse	782	176	0	stimuli\hobbyhorse\hobbyhorse_05s.jpg	4	-1	0	0	hobbyhorse_05s.jpg	0	0	0	47.240693062442	47.2906944765418	0.0500014140998246
52506	50	177	0	0	scraper	1387	177	0	stimuli\scraper\scraper_06s.jpg	5	-1	0	0	scraper_06s.jpg	0	0	0	47.340719296335	47.3906980361498	0.0499787398148328
52606	50	178	0	0	stingray	1556	178	0	stimuli\stingray\stingray_04s.jpg	3	-1	0	0	stingray_04s.jpg	0	0	0	47.4407221245347	47.4906842853088	0.0499621607741574
52706	50	179	0	0	tumbleweed	1727	179	0	stimuli\tumbleweed\tumbleweed_01b.jpg	0	-1	0	0	tumbleweed_01b.jpg	0	0	0	47.5407222708163	47.590705155395	0.0499828845786396
52806	50	180	0	0	fuse	652	180	0	stimuli\fuse\fuse_02s.jpg	1	-1	0	0	fuse_02s.jpg	0	0	0	47.6407263180445	47.6906792140653	0.0499528960208409
52906	50	181	0	0	snake	1477	181	0	stimuli\snake\snake_07s.jpg	6	-1	0	0	snake_07s.jpg	0	0	0	47.7407242700574	47.7906893565378	0.0499650864803698
53006	50	182	0	0	aluminum_foil	17	182	0	stimuli\aluminum_foil\aluminum_foil_10s.jpg	9	-1	0	0	aluminum_foil_10s.jpg	0	0	0	47.8407319744292	47.8907126647246	0.0499806902953424
53106	50	183	0	0	humvee	813	183	0	stimuli\humvee\humvee_08s.jpg	7	-1	0	0	humvee_08s.jpg	0	0	0	47.940731389288	47.9906969633885	0.0499655741004972
53206	50	184	0	0	artichoke	39	184	0	stimuli\artichoke\artichoke_05n.jpg	4	-1	0	0	artichoke_05n.jpg	0	0	0	48.0407344612904	48.0907166144316	0.0499821531411726
53306	50	185	0	0	mattress	985	185	0	stimuli\mattress\mattress_02s.jpg	1	-1	0	0	mattress_02s.jpg	0	0	0	48.1407185161515	48.1906928673998	0.0499743512482382
53406	50	186	0	0	loveseat	947	186	0	stimuli\loveseat\loveseat_11s.jpg	10	-1	0	0	loveseat_11s.jpg	0	0	0	48.2407384109974	48.2907052041555	0.0499667931580916
53506	50	187	0	0	tape_measure	1623	187	0	stimuli\tape_measure\tape_measure_11s.jpg	10	-1	0	0	tape_measure_11s.jpg	0	0	0	48.3407407515624	48.3907238799584	0.0499831283959793
53606	50	188	0	0	blimp	139	188	0	stimuli\blimp\blimp_02n.jpg	1	-1	0	0	blimp_02n.jpg	0	0	0	48.4407472369057	48.4907115919632	0.0499643550574547
53706	50	189	0	0	wine_bottle	1824	189	0	stimuli\wine_bottle\wine_bottle_09s.jpg	8	-1	0	0	wine_bottle_09s.jpg	0	0	0	48.540751771754	48.5907283172855	0.0499765455315355
53806	50	190	0	0	wall	1775	190	0	stimuli\wall\wall_05s.jpg	4	-1	0	0	wall_05s.jpg	0	0	0	48.6407504551898	48.6907057892968	0.0499553341069259
53906	50	191	0	0	dartboard	474	191	0	stimuli\dartboard\dartboard_02s.jpg	1	-1	0	0	dartboard_02s.jpg	0	0	0	48.7407242700574	48.7907342174731	0.0500099474156741
54006	50	192	0	0	cane	258	192	0	stimuli\cane\cane_07s.jpg	6	-1	0	0	cane_07s.jpg	0	0	0	48.8407556239399	48.8907394837588	0.0499838598188944
54106	50	193	0	0	ostrich	1084	193	0	stimuli\ostrich\ostrich_08s.jpg	7	-1	0	0	ostrich_08s.jpg	0	0	0	48.9407569892792	48.9907398738578	0.0499828845786396
54206	50	194	0	0	rubber_band	1337	194	0	stimuli\rubber_band\rubber_band_07s.jpg	6	-1	0	0	rubber_band_07s.jpg	0	0	0	49.0407461641444	49.0907427020429	0.0499965378985507
54306	50	195	0	0	pocket_watch	1206	195	0	stimuli\pocket_watch\pocket_watch_04s.jpg	3	-1	0	0	pocket_watch_04s.jpg	0	0	0	49.1407631332695	49.1907272445242	0.0499641112546669
54406	50	196	0	0	cream	436	196	0	stimuli\cream\cream_02s.jpg	1	-1	0	0	cream_02s.jpg	0	0	0	49.2407376795745	49.2907176384324	0.0499799588578753
54506	50	197	0	0	leggings	912	197	0	stimuli\leggings\leggings_05s.jpg	4	-1	0	0	leggings_05s.jpg	0	0	0	49.340771715375	49.3907480170892	0.0499763017141959
54606	50	198	0	0	cardigan	273	198	0	stimuli\cardigan\cardigan_12s.jpg	11	-1	0	0	cardigan_12s.jpg	0	0	0	49.4407691797533	49.4907393862377	0.0499702064844314
54706	50	199	0	0	clock	359	199	0	stimuli\clock\clock_02n.jpg	1	-1	0	0	clock_02n.jpg	0	0	0	49.540781516509	49.5907568429975	0.049975326488493
54806	50	200	0	0	beachball	99	200	0	stimuli\beachball\beachball_07s.jpg	6	-1	0	0	beachball_07s.jpg	0	0	0	49.6407775180269	49.6907413854788	0.0499638674518792
54906	50	201	0	0	button2	231	201	0	stimuli\button2\button2_12s.jpg	11	-1	0	0	button2_12s.jpg	0	0	0	49.7407762014627	49.7907400689	0.0499638674373273
55006	50	202	0	0	boomerang	168	202	0	stimuli\boomerang\boomerang_10s.jpg	9	-1	0	0	boomerang_10s.jpg	0	0	0	49.8407831744116	49.8907660589903	0.0499828845786396
55106	50	203	0	0	beard	106	203	0	stimuli\beard\beard_12s.jpg	11	-1	0	0	beard_12s.jpg	0	0	0	49.9407835645106	49.9907669367094	0.049983372198767
55206	50	204	0	0	desk	480	204	0	stimuli\desk\desk_02s.jpg	1	-1	0	0	desk_02s.jpg	0	0	0	50.0407890745992	50.0907687896542	0.0499797150550876
55306	50	205	0	0	backgammon	48	205	0	stimuli\backgammon\backgammon_12s.jpg	11	-1	0	0	backgammon_12s.jpg	0	0	0	50.1407867827947	50.1907523568952	0.0499655741004972
55406	50	206	0	0	pelican	1140	206	0	stimuli\pelican\pelican_05s.jpg	4	-1	0	0	pelican_05s.jpg	0	0	0	50.240767424315	50.2907481146103	0.0499806902953424
55506	50	207	0	0	shower_cap	1434	207	0	stimuli\shower_cap\shower_cap_06s.jpg	5	-1	0	0	shower_cap_06s.jpg	0	0	0	50.3407936582225	50.3907570380397	0.0499633798171999
55606	50	208	0	0	milk	1001	208	0	stimuli\milk\milk_12s.jpg	11	-1	0	0	milk_12s.jpg	0	0	0	50.4407981930708	50.4907788833661	0.0499806902953424
55706	50	209	0	0	beaker	101	209	0	stimuli\beaker\beaker_04s.jpg	3	-1	0	0	beaker_04s.jpg	0	0	0	50.5407878555561	50.5907826867915	0.0499948312353808
55806	50	210	0	0	coconut	375	210	0	stimuli\coconut\coconut_01b.jpg	0	-1	0	0	coconut_01b.jpg	0	0	0	50.6408048246958	50.690782345453	0.0499775207572384
55906	50	211	0	0	glue	681	211	0	stimuli\glue\glue_07s.jpg	6	-1	0	0	glue_07s.jpg	0	0	0	50.7408020452567	50.7907871241187	0.0499850788619369
56006	50	212	0	0	tapestry	1625	212	0	stimuli\tapestry\tapestry_11s.jpg	10	-1	0	0	tapestry_11s.jpg	0	0	0	50.8408058486821	50.8907758113637	0.0499699626816437
56106	50	213	0	0	footprint	632	213	0	stimuli\footprint\footprint_08s.jpg	7	-1	0	0	footprint_08s.jpg	0	0	0	50.940792829264	50.9907749824197	0.0499821531557245
56206	50	214	0	0	bug	212	214	0	stimuli\bug\bug_08s.jpg	7	-1	0	0	bug_08s.jpg	0	0	0	51.0407920003199	51.0907683020341	0.0499763017141959
56306	50	215	0	0	cocktail	374	215	0	stimuli\cocktail\cocktail_10s.jpg	9	-1	0	0	cocktail_10s.jpg	0	0	0	51.1408097008825	51.190768204513	0.0499585036304779
56406	50	216	0	0	bush	227	216	0	stimuli\bush\bush_10s.jpg	9	-1	0	0	bush_10s.jpg	0	0	0	51.2407891233597	51.2907854174555	0.049996294095763
56506	50	217	0	0	cauliflower	288	217	0	stimuli\cauliflower\cauliflower_03s.jpg	2	-1	0	0	cauliflower_03s.jpg	0	0	0	51.3407926829823	51.3907711789943	0.0499784960120451
56606	50	218	0	0	sweet_potato	1595	218	0	stimuli\sweet_potato\sweet_potato_08s.jpg	7	-1	0	0	sweet_potato_08s.jpg	0	0	0	51.4408203797357	51.4907900986	0.049969718864304
56706	50	219	0	0	mouthpiece	1032	219	0	stimuli\mouthpiece\mouthpiece_12s.jpg	11	-1	0	0	mouthpiece_12s.jpg	0	0	0	51.5408251584013	51.5908056048793	0.0499804464780027
56806	50	220	0	0	wasp	1785	220	0	stimuli\wasp\wasp_01b.jpg	0	-1	0	0	wasp_01b.jpg	0	0	0	51.6408292056294	51.6907913664036	0.0499621607741574
56906	50	221	0	0	bone	161	221	0	stimuli\bone\bone_08s.jpg	7	-1	0	0	bone_08s.jpg	0	0	0	51.7408288643055	51.7908151622105	0.0499862979049794
57006	50	222	0	0	pool_table	1222	222	0	stimuli\pool_table\pool_table_04s.jpg	3	-1	0	0	pool_table_04s.jpg	0	0	0	51.8408160886902	51.8908192094386	0.0500031207484426
57106	50	223	0	0	octopus	1070	223	0	stimuli\octopus\octopus_09s.jpg	8	-1	0	0	octopus_09s.jpg	0	0	0	51.9408181854524	51.9908161862113	0.0499980007589329
57206	50	224	0	0	mongoose	1016	224	0	stimuli\mongoose\mongoose_01b.jpg	0	-1	0	0	mongoose_01b.jpg	0	0	0	52.0408395431587	52.0908216962998	0.0499821531411726
57306	50	225	0	0	oar	1068	225	0	stimuli\oar\oar_10s.jpg	9	-1	0	0	oar_10s.jpg	0	0	0	52.1408467599103	52.1908211111586	0.0499743512482382
57406	50	226	0	0	sickle	1441	226	0	stimuli\sickle\sickle_08s.jpg	7	-1	0	0	sickle_08s.jpg	0	0	0	52.2408427614428	52.2908115050668	0.0499687436240492
57506	50	227	0	0	umbrella	1743	227	0	stimuli\umbrella\umbrella_01b.jpg	0	-1	0	0	umbrella_01b.jpg	0	0	0	52.3408485153341	52.3908499294339	0.0500014140998246
57606	50	228	0	0	drink	521	228	0	stimuli\drink\drink_07s.jpg	6	-1	0	0	drink_07s.jpg	0	0	0	52.4408459797269	52.4908132604905	0.0499672807636671
57706	50	229	0	0	sequin	1404	229	0	stimuli\sequin\sequin_10s.jpg	9	-1	0	0	sequin_10s.jpg	0	0	0	52.5408527088584	52.5908324239135	0.0499797150550876
57806	50	230	0	0	rudder	1339	230	0	stimuli\rudder\rudder_05s.jpg	4	-1	0	0	rudder_05s.jpg	0	0	0	52.6408577313414	52.6908350082958	0.0499772769544506
57906	50	231	0	0	lighter	928	231	0	stimuli\lighter\lighter_05s.jpg	4	-1	0	0	lighter_05s.jpg	0	0	0	52.7408425176254	52.7908385679184	0.0499960502929753
58006	50	232	0	0	log	943	232	0	stimuli\log\log_10s.jpg	9	-1	0	0	log_10s.jpg	0	0	0	52.8408616810484	52.890827742769	0.0499660617206246
58106	50	233	0	0	rollerskate	1327	233	0	stimuli\rollerskate\rollerskate_01b.jpg	0	-1	0	0	rollerskate_01b.jpg	0	0	0	52.9408601206669	52.9908142357308	0.0499541150638834
58206	50	234	0	0	helicopter	775	234	0	stimuli\helicopter\helicopter_03s.jpg	2	-1	0	0	helicopter_03s.jpg	0	0	0	53.0408339355345	53.0908321801107	0.0499982445762726
58306	50	235	0	0	javelin	841	235	0	stimuli\javelin\javelin_03s.jpg	2	-1	0	0	javelin_03s.jpg	0	0	0	53.1408530989575	53.1908289130661	0.0499758141086204
58406	50	236	0	0	saltshaker	1350	236	0	stimuli\saltshaker\saltshaker_04s.jpg	3	-1	0	0	saltshaker_04s.jpg	0	0	0	53.2408488566725	53.290831985054	0.0499831283814274
58506	50	237	0	0	windsock	1822	237	0	stimuli\windsock\windsock_08s.jpg	7	-1	0	0	windsock_08s.jpg	0	0	0	53.3408875248424	53.3908526113373	0.0499650864949217
58606	50	238	0	0	cherry	316	238	0	stimuli\cherry\cherry_08s.jpg	7	-1	0	0	cherry_08s.jpg	0	0	0	53.4408552444802	53.4908378852415	0.0499826407613
58706	50	239	0	0	grain	698	239	0	stimuli\grain\grain_04s.jpg	3	-1	0	0	grain_04s.jpg	0	0	0	53.5408761145663	53.5908560734388	0.0499799588724272
58806	50	240	0	0	book	165	240	0	stimuli\book\book_12s.jpg	11	-1	0	0	book_12s.jpg	0	0	0	53.6408665084746	53.6908610959072	0.0499945874325931
58906	50	241	0	0	comic_book	391	241	0	stimuli\comic_book\comic_book_11s.jpg	10	-1	0	0	comic_book_11s.jpg	0	0	0	53.7408807957108	53.7908446631482	0.0499638674373273
59006	50	242	0	0	outfit	1087	242	0	stimuli\outfit\outfit_10s.jpg	9	-1	0	0	outfit_10s.jpg	0	0	0	53.8408677762782	53.8908660208544	0.0499982445762726
59106	50	243	0	0	cheesecake	314	243	0	stimuli\cheesecake\cheesecake_06s.jpg	5	-1	0	0	cheesecake_06s.jpg	0	0	0	53.9408869397012	53.9908530014363	0.0499660617351765
59206	50	244	0	0	cobra	371	244	0	stimuli\cobra\cobra_03s.jpg	2	-1	0	0	cobra_03s.jpg	0	0	0	54.0408895240835	54.0908743591426	0.0499848350591492
59306	50	245	0	0	vise	1765	245	0	stimuli\vise\vise_07s.jpg	6	-1	0	0	vise_07s.jpg	0	0	0	54.1408901579853	54.1908567073406	0.0499665493553039
59406	50	246	0	0	laundry_basket	902	246	0	stimuli\laundry_basket\laundry_basket_09s.jpg	8	-1	0	0	laundry_basket_09s.jpg	0	0	0	54.2408764071442	54.2908775774267	0.050001170282485
59506	50	247	0	0	graffiti	697	247	0	stimuli\graffiti\graffiti_12s.jpg	11	-1	0	0	graffiti_12s.jpg	0	0	0	54.3408836238959	54.390875041805	0.049991417909041
59606	50	248	0	0	fern	577	248	0	stimuli\fern\fern_04n.jpg	3	-1	0	0	fern_04n.jpg	0	0	0	54.4408969358919	54.4908690928569	0.049972156964941
59706	50	249	0	0	dashboard	475	249	0	stimuli\dashboard\dashboard_05s.jpg	4	-1	0	0	dashboard_05s.jpg	0	0	0	54.5409119545511	54.5908697267587	0.0499577722075628
59806	50	250	0	0	ring	1313	250	0	stimuli\ring\ring_09s.jpg	8	-1	0	0	ring_09s.jpg	0	0	0	54.6409040551225	54.690885233038	0.0499811779154697
59906	50	251	0	0	rack2	1269	251	0	stimuli\rack2\rack2_01s.jpg	0	-1	0	0	rack2_01s.jpg	0	0	0	54.740911028086	54.7908885488432	0.0499775207572384
60006	50	252	0	0	carriage	276	252	0	stimuli\carriage\carriage_05s.jpg	4	-1	0	0	carriage_05s.jpg	0	0	0	54.8409180010349	54.8908964970324	0.0499784959974932
60106	50	253	0	0	doorknocker	510	253	0	stimuli\doorknocker\doorknocker_02s.jpg	1	-1	0	0	doorknocker_02s.jpg	0	0	0	54.9409181473166	54.9908761633269	0.0499580160103505
60206	50	254	0	0	brownie	204	254	0	stimuli\brownie\brownie_06s.jpg	5	-1	0	0	brownie_06s.jpg	0	0	0	55.0408995202743	55.0908987400762	0.0499992198019754
60306	50	255	0	0	football	629	255	0	stimuli\football\football_07s.jpg	6	-1	0	0	football_07s.jpg	0	0	0	55.1409016170364	55.1908969358919	0.0499953188555082
60406	50	256	0	0	stained_glass	1531	256	0	stimuli\stained_glass\stained_glass_02s.jpg	1	-1	0	0	stained_glass_02s.jpg	0	0	0	55.2409042014187	55.2909002516972	0.0499960502784234
60506	50	257	0	0	revolver	1304	257	0	stimuli\revolver\revolver_08s.jpg	7	-1	0	0	revolver_08s.jpg	0	0	0	55.3409038600803	55.39090478656	0.0500009264796972
60606	50	258	0	0	puck	1245	258	0	stimuli\puck\puck_02s.jpg	1	-1	0	0	puck_02s.jpg	0	0	0	55.4409242425463	55.4909076147451	0.049983372198767
60706	50	259	0	0	praying_mantis	1238	259	0	stimuli\praying_mantis\praying_mantis_04s.jpg	3	-1	0	0	praying_mantis_04s.jpg	0	0	0	55.5409246326453	55.5909070296038	0.0499823969585123
60807	50	260	0	0	dice	486	260	0	stimuli\dice\dice_12s.jpg	11	-1	0	0	dice_12s.jpg	0	0	0	55.6409298989311	55.6908942539885	0.0499643550574547
60907	50	261	0	0	electric_chair	553	261	0	stimuli\electric_chair\electric_chair_08s.jpg	7	-1	0	0	electric_chair_08s.jpg	0	0	0	55.7409354090196	55.7909148802719	0.0499794712522998
61007	50	262	0	0	lollipop	945	262	0	stimuli\lollipop\lollipop_01b.jpg	0	-1	0	0	lollipop_01b.jpg	0	0	0	55.8409353114985	55.8909184398799	0.0499831283814274
61107	50	263	0	0	bird	128	263	0	stimuli\bird\bird_03s.jpg	2	-1	0	0	bird_03s.jpg	0	0	0	55.9409252177866	55.9909022509382	0.0499770331516629
61207	50	264	0	0	coil	384	264	0	stimuli\coil\coil_03s.jpg	2	-1	0	0	coil_03s.jpg	0	0	0	56.040947063113	56.0909265343653	0.0499794712522998
61307	50	265	0	0	credit_card	438	265	0	stimuli\credit_card\credit_card_01b.jpg	0	-1	0	0	credit_card_01b.jpg	0	0	0	56.1409442836884	56.1909071758855	0.0499628921970725
61407	50	266	0	0	hearse	771	266	0	stimuli\hearse\hearse_06s.jpg	5	-1	0	0	hearse_06s.jpg	0	0	0	56.2409210242622	56.2909117107483	0.0499906864861259
61507	50	267	0	0	rain_gauge	1278	267	0	stimuli\rain_gauge\rain_gauge_04s.jpg	3	-1	0	0	rain_gauge_04s.jpg	0	0	0	56.3409577419661	56.3909294113109	0.0499716693448136
61607	50	268	0	0	perfume	1154	268	0	stimuli\perfume\perfume_08s.jpg	7	-1	0	0	perfume_08s.jpg	0	0	0	56.4409498425375	56.4909329709335	0.0499831283959793
61707	50	269	0	0	margarita	973	269	0	stimuli\margarita\margarita_10s.jpg	9	-1	0	0	margarita_10s.jpg	0	0	0	56.5409587659669	56.5909338486381	0.0499750826711534
61807	50	270	0	0	pliers	1201	270	0	stimuli\pliers\pliers_11s.jpg	10	-1	0	0	pliers_11s.jpg	0	0	0	56.6409540360619	56.6909369206405	0.0499828845786396
61907	50	271	0	0	tadpole	1614	271	0	stimuli\tadpole\tadpole_09s.jpg	8	-1	0	0	tadpole_09s.jpg	0	0	0	56.7409434547299	56.7909197564586	0.0499763017287478
62007	50	272	0	0	stilt	1555	272	0	stimuli\stilt\stilt_04s.jpg	3	-1	0	0	stilt_04s.jpg	0	0	0	56.8409692010027	56.8909420894051	0.049972888402408
62107	50	273	0	0	lingerie	932	273	0	stimuli\lingerie\lingerie_01b.jpg	0	-1	0	0	lingerie_01b.jpg	0	0	0	56.9409683720587	56.990931020453	0.0499626483942848
62207	50	274	0	0	shawl	1411	274	0	stimuli\shawl\shawl_11s.jpg	10	-1	0	0	shawl_11s.jpg	0	0	0	57.0409438935894	57.0909521343565	0.0500082407670561
62307	50	275	0	0	chessboard	318	275	0	stimuli\chessboard\chessboard_07s.jpg	6	-1	0	0	chessboard_07s.jpg	0	0	0	57.1409686646221	57.1909464292112	0.0499777645891299
62407	50	276	0	0	baton3	94	276	0	stimuli\baton3\baton3_11s.jpg	10	-1	0	0	baton3_11s.jpg	0	0	0	57.2409663728176	57.2909492573963	0.0499828845786396
62507	50	277	0	0	clipboard	355	277	0	stimuli\clipboard\clipboard_11s.jpg	10	-1	0	0	clipboard_11s.jpg	0	0	0	57.3409465267323	57.3909281922679	0.0499816655355971
62607	50	278	0	0	toad	1664	278	0	stimuli\toad\toad_09s.jpg	8	-1	0	1	toad_09s.jpg	0	0	0	57.4409459415911	57.4909276071267	0.0499816655355971
62707	50	279	0	0	column	388	279	0	stimuli\column\column_05s.jpg	4	-1	0	0	column_05s.jpg	0	0	0	57.540983878338	57.5909589610092	0.0499750826711534
62807	50	280	0	0	soy_sauce	1500	280	0	stimuli\soy_sauce\soy_sauce_02s.jpg	1	-1	0	0	soy_sauce_02s.jpg	0	0	0	57.640966226536	57.6909605701512	0.0499943436152535
62907	50	281	0	0	curling_iron	463	281	0	stimuli\curling_iron\curling_iron_03s.jpg	2	-1	0	0	curling_iron_03s.jpg	0	0	0	57.7409680794808	57.7909660802543	0.0499980007734848
63007	50	282	0	0	anteater	25	282	0	stimuli\anteater\anteater_10s.jpg	9	-1	0	0	anteater_10s.jpg	0	0	0	57.840988218144	57.8909686646221	0.0499804464780027
63107	50	283	0	0	deodorant	479	283	0	stimuli\deodorant\deodorant_03s.jpg	2	-1	0	0	deodorant_03s.jpg	0	0	0	57.9409898272861	57.9909534509206	0.0499636236345395
63207	50	284	0	0	eye_patch	565	284	0	stimuli\eye_patch\eye_patch_04s.jpg	3	-1	0	0	eye_patch_04s.jpg	0	0	0	58.0409933869087	58.0909750524297	0.0499816655210452
63307	50	285	0	0	swing	1598	285	0	stimuli\swing\swing_05s.jpg	4	-1	0	0	swing_05s.jpg	1	0.69219107637764	1	58.1409937770077	58.1909749549086	0.0499811779009178
63407	50	286	0	0	violin	1764	286	0	stimuli\violin\violin_03n.jpg	2	-1	0	0	violin_03n.jpg	0	0	0	58.2409958737553	58.2909772954881	0.0499814217328094
63507	50	287	0	0	screwdriver	1391	287	0	stimuli\screwdriver\screwdriver_01s.jpg	0	-1	0	0	screwdriver_01s.jpg	0	0	0	58.3410106486117	58.3909620817722	0.0499514331604587
63607	50	288	0	0	radio	1273	288	0	stimuli\radio\radio_09s.jpg	8	-1	0	0	radio_09s.jpg	0	0	0	58.441002261563	58.4909700299613	0.0499677683983464
63707	50	289	0	0	stair	1532	289	0	stimuli\stair\stair_10s.jpg	9	-1	0	0	stair_10s.jpg	0	0	0	58.5410043583252	58.5909877305239	0.049983372198767
63807	50	290	0	0	pitcher	1190	290	0	stimuli\pitcher\pitcher_09s.jpg	8	-1	0	0	pitcher_09s.jpg	0	0	0	58.6409828055766	58.6909632520546	0.0499804464780027
63907	50	291	0	0	dirt_bike	488	291	0	stimuli\dirt_bike\dirt_bike_09s.jpg	8	-1	0	0	dirt_bike_09s.jpg	0	0	0	58.7409831956757	58.7909914364282	0.0500082407525042
64007	50	292	0	0	ginger	673	292	0	stimuli\ginger\ginger_12s.jpg	11	-1	0	0	ginger_12s.jpg	0	0	0	58.8410121114721	58.8909954836708	0.049983372198767
64107	50	293	0	0	earring	540	293	0	stimuli\earring\earring_04n.jpg	3	-1	0	0	earring_04n.jpg	0	0	0	58.9410159148974	58.9909844147187	0.0499684998212615
64207	50	294	0	0	diaper	485	294	0	stimuli\diaper\diaper_05s.jpg	4	-1	0	0	diaper_05s.jpg	0	0	0	59.0410180116596	59.0910028467188	0.0499848350591492
64307	50	295	0	0	first-aid_kit	599	295	0	stimuli\first-aid_kit\first-aid_kit_06s.jpg	5	-1	0	0	first-aid_kit_06s.jpg	0	0	0	59.1410162074753	59.1909993358568	0.0499831283814274
64407	50	296	0	0	maple_syrup	971	296	0	stimuli\maple_syrup\maple_syrup_12s.jpg	11	-1	0	0	maple_syrup_12s.jpg	0	0	0	59.2410241556499	59.2909997259558	0.0499755703058327
64507	50	297	0	0	peach	1129	297	0	stimuli\peach\peach_04s.jpg	3	-1	0	0	peach_04s.jpg	0	0	0	59.3410467324138	59.3910023103381	0.0499555779242655
64607	50	298	0	0	ferret	578	298	0	stimuli\ferret\ferret_11s.jpg	10	-1	0	0	ferret_11s.jpg	0	0	0	59.4410254234681	59.4910039194801	0.0499784960120451
64707	50	299	0	0	balloon	60	299	0	stimuli\balloon\balloon_07s.jpg	6	-1	0	0	balloon_07s.jpg	0	0	0	59.5410314211767	59.5910077229055	0.0499763017287478
64807	50	300	0	0	dog	495	300	0	stimuli\dog\dog_12s.jpg	11	-1	0	0	dog_12s.jpg	0	0	0	59.6410322988959	59.691013232994	0.0499809340981301
64907	50	301	0	0	grass	705	301	0	stimuli\grass\grass_11s.jpg	10	-1	0	0	grass_11s.jpg	0	0	0	59.7410322013748	59.7910221564234	0.0499899550486589
65007	50	302	0	0	top_hat	1682	302	0	stimuli\top_hat\top_hat_06s.jpg	5	-1	0	0	top_hat_06s.jpg	0	0	0	59.8410406371695	59.8910186455614	0.0499780083919177
65107	50	303	0	0	water_heater	1791	303	0	stimuli\water_heater\water_heater_02s.jpg	1	-1	0	0	water_heater_02s.jpg	0	0	0	59.9410400520283	59.9910212299437	0.0499811779154697
65207	50	304	0	0	photograph	1164	304	0	stimuli\photograph\photograph_09s.jpg	8	-1	0	0	photograph_09s.jpg	0	0	0	60.0410448306939	60.091025764792	0.0499809340981301
65307	50	305	0	0	train_car	1699	305	0	stimuli\train_car\train_car_02s.jpg	1	-1	0	0	train_car_02s.jpg	0	0	0	60.1410303484154	60.1910103072878	0.0499799588724272
65407	50	306	0	0	crown	448	306	0	stimuli\crown\crown_07s.jpg	6	-1	0	0	crown_07s.jpg	0	0	0	60.2410343956581	60.2910309335566	0.0499965378985507
65507	50	307	0	0	handcuff	746	307	0	stimuli\handcuff\handcuff_07s.jpg	6	-1	0	0	handcuff_07s.jpg	0	0	0	60.3410547781241	60.391034005559	0.0499792274349602
65607	50	308	0	0	cutting_board	467	308	0	stimuli\cutting_board\cutting_board_10s.jpg	9	-1	0	0	cutting_board_10s.jpg	0	0	0	60.4410541929828	60.4910353708838	0.0499811779009178
69823	50	309	0	0	videocassette	1761	0	1	stimuli\videocassette\videocassette_11n.jpg	10	-1	1	0	videocassette_11n.jpg	0	0	0	64.6578346698952	64.7078117030469	0.0499770331516629
69923	50	310	0	0	toothpick	1681	1	1	stimuli\toothpick\toothpick_07s.jpg	6	-1	1	0	toothpick_07s.jpg	0	0	0	64.7578379857005	64.8078116055112	0.0499736198107712
70023	50	311	0	0	tennis_ball	1642	2	1	stimuli\tennis_ball\tennis_ball_06s.jpg	5	-1	1	0	tennis_ball_06s.jpg	0	0	0	64.8578283796087	64.9078017556167	0.0499733760079835
70123	50	312	0	0	board_game	153	3	1	stimuli\board_game\board_game_01b.jpg	0	-1	1	0	board_game_01b.jpg	0	0	0	64.9578446173109	65.0078175056988	0.0499728883878561
70223	50	313	0	0	wig	1816	4	1	stimuli\wig\wig_03s.jpg	2	-1	1	0	wig_03s.jpg	0	0	0	65.0578418378864	65.1078210653213	0.0499792274349602
70323	50	314	0	0	hair	733	5	1	stimuli\hair\hair_07s.jpg	6	-1	1	0	hair_07s.jpg	0	0	0	65.157839546082	65.2078187735169	0.0499792274349602
70423	50	315	0	0	windshield	1820	6	1	stimuli\windshield\windshield_05s.jpg	4	-1	1	0	windshield_05s.jpg	0	0	0	65.2578428618872	65.3078301350324	0.0499872731452342
70523	50	316	0	0	light_switch	926	7	1	stimuli\light_switch\light_switch_12s.jpg	11	-1	1	0	light_switch_12s.jpg	0	0	0	65.3578449586494	65.4078251613246	0.049980202675215
70623	50	317	0	0	gyroscope	731	8	1	stimuli\gyroscope\gyroscope_03s.jpg	2	-1	1	0	gyroscope_03s.jpg	0	0	0	65.457843885888	65.5078270142694	0.0499831283814274
70723	50	318	0	0	truck	1720	9	1	stimuli\truck\truck_03s.jpg	2	-1	1	0	truck_03s.jpg	0	0	0	65.5578562226437	65.6078147262742	0.0499585036304779
70823	50	319	0	0	mandolin	965	10	1	stimuli\mandolin\mandolin_04s.jpg	3	-1	1	0	mandolin_04s.jpg	0	0	0	65.6578305251314	65.7078092649463	0.0499787398148328
70923	50	320	0	0	periscope	1155	11	1	stimuli\periscope\periscope_08s.jpg	7	-1	1	0	periscope_08s.jpg	0	0	0	65.7578362790373	65.807840375026	0.0500040959886974
71023	50	321	0	0	jet	847	12	1	stimuli\jet\jet_02s.jpg	1	-1	1	0	jet_02s.jpg	0	0	0	65.8578459338896	65.9078127270477	0.0499667931580916
71123	50	322	0	0	dip	487	13	1	stimuli\dip\dip_09s.jpg	8	-1	1	0	dip_09s.jpg	0	0	0	65.9578360839805	66.0078187247564	0.0499826407758519
71223	50	323	0	0	whistle	1812	14	1	stimuli\whistle\whistle_01b.jpg	0	-1	1	0	whistle_01b.jpg	0	0	0	66.0578418378864	66.1078035110404	0.04996167315403
71323	50	324	0	0	bunkbed	222	15	1	stimuli\bunkbed\bunkbed_05s.jpg	4	-1	1	0	bunkbed_05s.jpg	0	0	0	66.157857587983	66.2078334020771	0.0499758140940685
71423	50	325	0	0	chip	333	16	1	stimuli\chip\chip_11n.jpg	10	-1	1	0	chip_11n.jpg	0	0	0	66.2578711437818	66.3078530531202	0.0499819093383849
71523	50	326	0	0	noose	1062	17	1	stimuli\noose\noose_10s.jpg	9	-1	1	0	noose_10s.jpg	0	0	0	66.357872021501	66.4078578317858	0.0499858102848521
71623	50	327	0	0	bamboo	62	18	1	stimuli\bamboo\bamboo_10s.jpg	9	-1	1	0	bamboo_10s.jpg	0	0	0	66.4578789944499	66.507865048552	0.0499860541021917
71723	50	328	0	0	flour	618	19	1	stimuli\flour\flour_05s.jpg	4	-1	1	0	flour_05s.jpg	0	0	0	66.5578798721544	66.6078581243637	0.0499782522092573
71823	50	329	0	0	recorder	1297	20	1	stimuli\recorder\recorder_04s.jpg	3	-1	1	0	recorder_04s.jpg	0	0	0	66.6578702660627	66.7078609525488	0.0499906864861259
71923	50	330	0	0	pants	1108	21	1	stimuli\pants\pants_02s.jpg	1	-1	1	0	pants_02s.jpg	0	0	0	66.7578884542454	66.807855978841	0.0499675245955586
72023	50	331	0	0	block	143	22	1	stimuli\block\block_11s.jpg	10	-1	1	1	block_11s.jpg	0	0	0	66.8579012786213	66.9078719727258	0.0499706941045588
72123	50	332	0	0	plant	1194	23	1	stimuli\plant\plant_08s.jpg	7	-1	1	0	plant_08s.jpg	0	0	0	66.9578892344434	67.0078730942623	0.0499838598188944
72223	50	333	0	0	salami	1349	24	1	stimuli\salami\salami_10s.jpg	9	-1	1	0	salami_10s.jpg	0	0	0	67.0578898683452	67.107872021501	0.0499821531557245
72323	50	334	0	0	hairnet	736	25	1	stimuli\hairnet\hairnet_05s.jpg	4	-1	1	0	hairnet_05s.jpg	0	0	0	67.1578783117729	67.2078750934888	0.0499967817158904
72423	50	335	0	0	cookie_cutter	401	26	1	stimuli\cookie_cutter\cookie_cutter_05s.jpg	4	-1	1	0	cookie_cutter_05s.jpg	0	0	0	67.2578999132966	67.3078798721544	0.0499799588578753
72523	50	336	0	0	undershirt	1744	27	1	stimuli\undershirt\undershirt_08s.jpg	7	-1	1	0	undershirt_08s.jpg	1	0.541887436120305	1	67.3578871376812	67.4078663651162	0.0499792274349602
72623	50	337	0	0	sewage	1405	28	1	stimuli\sewage\sewage_12s.jpg	11	-1	1	0	sewage_12s.jpg	0	0	0	67.45790069348	67.5078830904386	0.0499823969585123
72723	50	338	0	0	projector	1242	29	1	stimuli\projector\projector_10s.jpg	9	-1	1	0	projector_10s.jpg	0	0	0	67.5579054721456	67.6078703148232	0.0499648426775821
72823	50	339	0	0	wedding_cake	1800	30	1	stimuli\wedding_cake\wedding_cake_08s.jpg	7	-1	1	0	wedding_cake_08s.jpg	0	0	0	67.6579058622447	67.7078875277803	0.0499816655355971
72923	50	340	0	0	stamp2	1536	31	1	stimuli\stamp2\stamp2_06s.jpg	5	-1	1	0	stamp2_06s.jpg	0	0	0	67.7579082028096	67.8078905997681	0.0499823969585123
73023	50	341	0	0	caviar	289	32	1	stimuli\caviar\caviar_10s.jpg	9	-1	1	0	caviar_10s.jpg	0	0	0	67.857917857662	67.9078946470108	0.0499767893488752
73123	50	342	0	0	cabinet	233	33	1	stimuli\cabinet\cabinet_08s.jpg	7	-1	1	0	cabinet_08s.jpg	0	0	0	67.9579004496773	68.00789552473	0.0499950750527205
73223	50	343	0	0	rocking_chair	1321	34	1	stimuli\rocking_chair\rocking_chair_08s.jpg	7	-1	1	0	rocking_chair_08s.jpg	0	0	0	68.0578898683452	68.1078659262566	0.0499760579114081
73323	50	344	0	0	notebook	1064	35	1	stimuli\notebook\notebook_06s.jpg	5	-1	1	0	notebook_06s.jpg	0	0	0	68.1579200031847	68.2078833830165	0.0499633798317518
73423	50	345	0	0	spider_web	1514	36	1	stimuli\spider_web\spider_web_12s.jpg	11	-1	1	0	spider_web_12s.jpg	0	0	0	68.2579299018544	68.3079059597658	0.0499760579114081
73523	50	346	0	0	wine_cooler	1825	37	1	stimuli\wine_cooler\wine_cooler_01b.jpg	0	-1	1	0	wine_cooler_01b.jpg	0	0	0	68.3579259033868	68.4079051308217	0.0499792274349602
73623	50	347	0	0	dreidel	517	38	1	stimuli\dreidel\dreidel_08s.jpg	7	-1	1	0	dreidel_08s.jpg	0	0	0	68.4579114210937	68.5079118599533	0.0500004388595698
73723	50	348	0	0	pulpit	1251	39	1	stimuli\pulpit\pulpit_06s.jpg	5	-1	1	0	pulpit_06s.jpg	0	0	0	68.5579296092765	68.6079112748121	0.0499816655355971
73823	50	349	0	0	razor	1290	40	1	stimuli\razor\razor_12s.jpg	11	-1	1	0	razor_12s.jpg	0	0	0	68.6579304869956	68.7079141029972	0.0499836160015548
73923	50	350	0	0	siren	1448	41	1	stimuli\siren\siren_12s.jpg	11	-1	1	0	siren_12s.jpg	0	0	0	68.7579386789876	68.8079183940426	0.0499797150550876
74023	50	351	0	0	hatbox	758	42	1	stimuli\hatbox\hatbox_01b.jpg	0	-1	1	0	hatbox_01b.jpg	0	0	0	68.8579412633699	68.9079192717618	0.0499780083919177
74123	50	352	0	0	chick	321	43	1	stimuli\chick\chick_01b.jpg	0	-1	1	0	chick_01b.jpg	0	0	0	68.9579423848918	69.0079091780499	0.0499667931580916
74223	50	353	0	0	face	569	44	1	stimuli\face\face_02s.jpg	1	-1	1	0	face_02s.jpg	0	0	0	69.0579481387977	69.1079078614857	0.0499597226880724
74323	50	354	0	0	nose	1063	45	1	stimuli\nose\nose_09s.jpg	8	-1	1	0	nose_09s.jpg	0	0	0	69.1579436527099	69.2079301944323	0.0499865417223191
74423	50	355	0	0	leopard	917	46	1	stimuli\leopard\leopard_07s.jpg	6	-1	1	0	leopard_07s.jpg	0	0	0	69.2579491627985	69.3079298530938	0.0499806902953424
74523	50	356	0	0	finger	588	47	1	stimuli\finger\finger_06s.jpg	5	-1	1	0	finger_06s.jpg	0	0	0	69.3579344367172	69.4079180527187	0.0499836160015548
74624	50	357	0	0	chips	335	48	1	stimuli\chips\chips_11s.jpg	10	-1	1	0	chips_11s.jpg	0	0	0	69.4579401906085	69.5079362409015	0.0499960502929753
74723	50	358	0	0	file1	583	49	1	stimuli\file1\file1_05s.jpg	4	-1	1	0	file1_05s.jpg	0	0	0	69.5579569159454	69.607935899563	0.0499789836176205
74823	50	359	0	0	pipe1	1186	50	1	stimuli\pipe1\pipe1_05s.jpg	4	-1	1	0	pipe1_05s.jpg	0	0	0	69.6579582812701	69.707940922046	0.0499826407758519
74923	50	360	0	0	celery	291	51	1	stimuli\celery\celery_04s.jpg	3	-1	1	0	celery_04s.jpg	0	0	0	69.7579618408927	69.8079400930874	0.0499782521947054
75024	50	361	0	0	hip	780	52	1	stimuli\hip\hip_01b.jpg	0	-1	1	0	hip_01b.jpg	0	0	0	69.8579724709853	69.9079441403301	0.0499716693448136
75124	50	362	0	0	pulley	1250	53	1	stimuli\pulley\pulley_02s.jpg	1	-1	1	0	pulley_02s.jpg	0	0	0	69.9579701791663	70.0079501380387	0.0499799588724272
75224	50	363	0	0	apron	33	54	1	stimuli\apron\apron_05s.jpg	4	-1	1	0	apron_05s.jpg	0	0	0	70.0579678873619	70.1079497967003	0.0499819093383849
75324	50	364	0	0	bobsled	155	55	1	stimuli\bobsled\bobsled_11s.jpg	10	-1	1	0	bobsled_11s.jpg	0	0	0	70.1579712031671	70.2079518934625	0.0499806902953424
75424	50	365	0	0	diving_board	494	56	1	stimuli\diving_board\diving_board_11s.jpg	10	-1	1	0	diving_board_11s.jpg	0	0	0	70.257976957073	70.3079566721281	0.0499797150550876
75524	50	366	0	0	meatloaf	990	57	1	stimuli\meatloaf\meatloaf_07s.jpg	6	-1	1	0	meatloaf_07s.jpg	0	0	0	70.3579593052709	70.4079580374673	0.0499987321963999
75624	50	367	0	0	aircraft_carrier	9	58	1	stimuli\aircraft_carrier\aircraft_carrier_01b.jpg	0	-1	1	0	aircraft_carrier_01b.jpg	0	0	0	70.4579799315543	70.5079606218496	0.0499806902953424
75724	50	368	0	0	door	506	59	1	stimuli\door\door_09s.jpg	8	-1	1	0	door_09s.jpg	0	0	0	70.5579886111664	70.6079617433716	0.0499731322051957
75824	50	369	0	0	steak	1544	60	1	stimuli\steak\steak_09s.jpg	8	-1	1	0	steak_09s.jpg	0	0	0	70.6579865631647	70.7079440915695	0.0499575284047751
75924	50	370	0	0	melon	994	61	1	stimuli\melon\melon_01b.jpg	0	-1	1	0	melon_01b.jpg	0	0	0	70.7579718370835	70.8079488702351	0.0499770331516629
76024	50	371	0	0	memory_stick	995	62	1	stimuli\memory_stick\memory_stick_10s.jpg	9	-1	1	0	memory_stick_10s.jpg	0	0	0	70.8579673509812	70.9079499917571	0.0499826407758519
76124	50	372	0	0	catapult	285	63	1	stimuli\catapult\catapult_01b.jpg	0	-1	1	0	catapult_01b.jpg	0	0	0	70.9579767620307	71.0079469685152	0.0499702064844314
76223	50	373	0	0	palette	1100	64	1	stimuli\palette\palette_07s.jpg	6	-1	1	0	palette_07s.jpg	0	0	0	71.057955453085	71.1079771033546	0.0500216502696276
76324	50	374	0	0	uniform	1747	65	1	stimuli\uniform\uniform_04s.jpg	3	-1	1	0	uniform_04s.jpg	0	0	0	71.1579802241176	71.2079960229748	0.0500157988572028
76424	50	375	0	0	potato	1231	66	1	stimuli\potato\potato_03n.jpg	2	-1	1	0	potato_03n.jpg	0	0	0	71.2579815894569	71.3079878797435	0.0500062902865466
76524	50	376	0	0	grits	717	67	1	stimuli\grits\grits_02s.jpg	1	-1	1	0	grits_02s.jpg	0	0	0	71.3580022157403	71.407981686978	0.0499794712377479
76624	50	377	0	0	breadstick	196	68	1	stimuli\breadstick\breadstick_08s.jpg	7	-1	1	0	breadstick_08s.jpg	0	0	0	71.4580189410626	71.5079884161241	0.0499694750615163
76724	50	378	0	0	pretzel	1239	69	1	stimuli\pretzel\pretzel_05s.jpg	4	-1	1	0	pretzel_05s.jpg	0	0	0	71.5580112854368	71.6079905128863	0.0499792274495121
76824	50	379	0	0	revolving_door	1305	70	1	stimuli\revolving_door\revolving_door_01b.jpg	0	-1	1	0	revolving_door_01b.jpg	0	0	0	71.6579953403125	71.7079857829813	0.0499904426687863
76924	50	380	0	0	root	1331	71	1	stimuli\root\root_11s.jpg	10	-1	1	0	root_11s.jpg	0	0	0	71.758014991341	71.8079949502135	0.0499799588724272
77024	50	381	0	0	button1	230	72	1	stimuli\button1\button1_12s.jpg	11	-1	1	0	button1_12s.jpg	0	0	0	71.8580190385837	71.9079963155382	0.0499772769544506
77124	50	382	0	0	grapefruit	703	73	1	stimuli\grapefruit\grapefruit_09s.jpg	8	-1	1	0	grapefruit_09s.jpg	0	0	0	71.9580162591592	72.0080013380211	0.0499850788619369
77224	50	383	0	0	ram	1282	74	1	stimuli\ram\ram_08s.jpg	7	-1	1	0	ram_08s.jpg	0	0	0	72.0580195749644	72.1080014843028	0.0499819093383849
77324	50	384	0	0	coal	367	75	1	stimuli\coal\coal_12s.jpg	11	-1	1	0	coal_12s.jpg	0	0	0	72.1580085060123	72.2080057753483	0.0499972693360178
77424	50	385	0	0	sandcastle	1355	76	1	stimuli\sandcastle\sandcastle_04s.jpg	3	-1	1	0	sandcastle_04s.jpg	0	0	0	72.2580303513387	72.3080088473507	0.0499784960120451
77524	50	386	0	0	volleyball	1767	77	1	stimuli\volleyball\volleyball_09s.jpg	8	-1	1	0	volleyball_09s.jpg	0	0	0	72.3580102614505	72.4079931460292	0.0499828845786396
77624	50	387	0	0	steamroller	1545	78	1	stimuli\steamroller\steamroller_11n.jpg	10	-1	1	0	steamroller_11n.jpg	0	0	0	72.4580347886804	72.5080127970577	0.0499780083773658
77724	50	388	0	0	ping-pong_table	1184	79	1	stimuli\ping-pong_table\ping-pong_table_09s.jpg	8	-1	1	0	ping-pong_table_09s.jpg	0	0	0	72.5580327406788	72.6079970957362	0.0499643550574547
77824	50	389	0	0	corn	412	80	1	stimuli\corn\corn_04s.jpg	3	-1	1	0	corn_04s.jpg	0	0	0	72.6580367879069	72.7080028496421	0.0499660617351765
77924	50	390	0	0	grape	702	81	1	stimuli\grape\grape_08s.jpg	7	-1	1	0	grape_08s.jpg	0	0	0	72.7580430294329	72.8080225006852	0.0499794712522998
78024	50	391	0	0	clipper2	357	82	1	stimuli\clipper2\clipper2_04s.jpg	3	-1	1	0	clipper2_04s.jpg	0	0	0	72.8580461014353	72.9080072869692	0.0499611855339026
78124	50	392	0	0	pot	1230	83	1	stimuli\pot\pot_05s.jpg	4	-1	1	0	pot_05s.jpg	0	0	0	72.958021622966	73.0079971932573	0.0499755702912807
78224	50	393	0	0	kangaroo	862	84	1	stimuli\kangaroo\kangaroo_01b.jpg	0	-1	1	1	kangaroo_01b.jpg	0	0	0	73.0580215254449	73.1080170881032	0.049995562658296
78324	50	394	0	0	dandelion	472	85	1	stimuli\dandelion\dandelion_01s.jpg	0	-1	1	0	dandelion_01s.jpg	0	0	0	73.1580345936236	73.208039177247	0.0500045836233767
78424	50	395	0	0	television	1641	86	1	stimuli\television\television_08s.jpg	7	-1	1	0	television_08s.jpg	0	0	0	73.2580605837138	73.3080390797259	0.0499784960120451
78524	50	396	0	0	sunflower	1584	87	1	stimuli\sunflower\sunflower_03s.jpg	2	-1	1	0	sunflower_03s.jpg	0	0	0	73.3580419566715	73.4080233783898	0.0499814217182575
78624	50	397	0	0	sofa_bed	1492	88	1	stimuli\sofa_bed\sofa_bed_12s.jpg	11	-1	1	0	sofa_bed_12s.jpg	0	0	0	73.4580625829549	73.5080630217999	0.0500004388450179
78724	50	398	0	0	penguin	1145	89	1	stimuli\penguin\penguin_02s.jpg	1	-1	1	0	penguin_02s.jpg	0	0	0	73.5580632168567	73.6080487833387	0.0499855664820643
78824	50	399	0	0	binder	126	90	1	stimuli\binder\binder_02s.jpg	1	-1	1	0	binder_02s.jpg	1	0.592191173898755	1	73.6580504412414	73.7080481981975	0.0499977569561452
78924	50	400	0	0	magnifying_glass	958	91	1	stimuli\magnifying_glass\magnifying_glass_02s.jpg	1	-1	1	0	magnifying_glass_02s.jpg	0	0	0	73.7580749684712	73.8080444435327	0.0499694750615163
79024	50	401	0	0	pancake	1104	92	1	stimuli\pancake\pancake_05s.jpg	4	-1	1	0	pancake_05s.jpg	0	0	0	73.8580719452293	73.9080309364799	0.0499589912506053
79124	50	402	0	0	handbrake	745	93	1	stimuli\handbrake\handbrake_01b.jpg	0	-1	1	0	handbrake_01b.jpg	0	0	0	73.9580711162853	74.0080525380035	0.0499814217182575
79224	50	403	0	0	foot	628	94	1	stimuli\foot\foot_09s.jpg	8	-1	1	0	foot_09s.jpg	0	0	0	74.0580741882732	74.1080551223858	0.049980934112682
79324	50	404	0	0	coral	406	95	1	stimuli\coral\coral_06s.jpg	5	-1	1	0	coral_06s.jpg	0	0	0	74.1580572679086	74.2080567315279	0.0499994636193151
79424	50	405	0	0	mallet	962	96	1	stimuli\mallet\mallet_04s.jpg	3	-1	1	0	mallet_04s.jpg	0	0	0	74.2580817951384	74.30805834067	0.0499765455315355
79524	50	406	0	0	saw	1366	97	1	stimuli\saw\saw_09s.jpg	8	-1	1	0	saw_09s.jpg	0	0	0	74.3580829166604	74.4080511726643	0.0499682560039219
79624	50	407	0	0	dolly	501	98	1	stimuli\dolly\dolly_07s.jpg	6	-1	1	0	dolly_07s.jpg	0	0	0	74.4580806248414	74.5080591208534	0.0499784960120451
79724	50	408	0	0	rollerblade	1326	99	1	stimuli\rollerblade\rollerblade_08s.jpg	7	-1	1	0	rollerblade_08s.jpg	0	0	0	74.5580741882732	74.6080631680961	0.049988979822956
79824	50	409	0	0	chisel	336	100	1	stimuli\chisel\chisel_01b.jpg	0	-1	1	0	chisel_01b.jpg	0	0	0	74.6580784793186	74.7080640458007	0.0499855664820643
79924	50	410	0	0	painting	1098	101	1	stimuli\painting\painting_05s.jpg	4	-1	1	0	painting_05s.jpg	0	0	0	74.7580817951384	74.8080617539963	0.0499799588578753
80024	50	411	0	0	air_pump	6	102	1	stimuli\air_pump\air_pump_12s.jpg	11	-1	1	0	air_pump_12s.jpg	0	0	0	74.8580938880768	74.9080572679086	0.0499633798317518
80124	50	412	0	0	fence	575	103	1	stimuli\fence\fence_07s.jpg	6	-1	1	0	fence_07s.jpg	0	0	0	74.9580962286564	75.0080766751344	0.0499804464780027
80224	50	413	0	0	school_bus	1378	104	1	stimuli\school_bus\school_bus_05s.jpg	4	-1	1	0	school_bus_05s.jpg	0	0	0	75.0580968625582	75.1080792595167	0.0499823969585123
80324	50	414	0	0	cassette	283	105	1	stimuli\cassette\cassette_06s.jpg	5	-1	1	0	cassette_06s.jpg	0	0	0	75.1581011536036	75.2080745296116	0.0499733760079835
80424	50	415	0	0	pen	1141	106	1	stimuli\pen\pen_05s.jpg	4	-1	1	0	pen_05s.jpg	0	0	0	75.2581086141727	75.3080863787472	0.049977764574578
80524	50	416	0	0	blowtorch	148	107	1	stimuli\blowtorch\blowtorch_05s.jpg	4	-1	1	0	blowtorch_05s.jpg	0	0	0	75.3581070537912	75.4080692145653	0.0499621607741574
80624	50	417	0	0	teapot	1634	108	1	stimuli\teapot\teapot_11s.jpg	10	-1	1	0	teapot_11s.jpg	0	0	0	75.458108906736	75.5080903284688	0.0499814217328094
80724	50	418	0	0	orchid	1081	109	1	stimuli\orchid\orchid_03s.jpg	2	-1	1	0	orchid_03s.jpg	0	0	0	75.5581097844552	75.6080912061734	0.0499814217182575
80824	50	419	0	0	origami	1083	110	1	stimuli\origami\origami_02s.jpg	1	-1	1	0	origami_02s.jpg	0	0	0	75.65809749646	75.7080993981799	0.050001901719952
80924	50	420	0	0	quilt	1264	111	1	stimuli\quilt\quilt_02s.jpg	1	-1	1	0	quilt_02s.jpg	0	0	0	75.7581220236898	75.8080980816012	0.0499760579114081
81024	50	421	0	0	dollhouse	500	112	1	stimuli\dollhouse\dollhouse_12s.jpg	11	-1	1	0	dollhouse_12s.jpg	0	0	0	75.8581246080721	75.9080875002692	0.0499628921970725
81124	50	422	0	0	life_jacket	924	113	1	stimuli\life_jacket\life_jacket_07s.jpg	6	-1	1	0	life_jacket_07s.jpg	0	0	0	75.9581215848302	76.0080995932221	0.0499780083919177
81224	50	423	0	0	slot_machine	1470	114	1	stimuli\slot_machine\slot_machine_06s.jpg	5	-1	1	0	slot_machine_06s.jpg	0	0	0	76.0581071025517	76.1080892557075	0.0499821531557245
81324	50	424	0	0	frog	644	115	1	stimuli\frog\frog_01b.jpg	0	-1	1	0	frog_01b.jpg	0	0	0	76.1581269973976	76.2081059810298	0.0499789836321725
81424	50	425	0	0	pinball	1178	116	1	stimuli\pinball\pinball_10s.jpg	9	-1	1	0	pinball_10s.jpg	0	0	0	76.2581325075007	76.3081078339746	0.0499753264739411
81524	50	426	0	0	compass	392	117	1	stimuli\compass\compass_04s.jpg	3	-1	1	0	compass_04s.jpg	0	0	0	76.358131190922	76.4081172450242	0.0499860541021917
81624	50	427	0	0	clasp	351	118	1	stimuli\clasp\clasp_06s.jpg	5	-1	1	0	clasp_06s.jpg	0	0	0	76.458114758163	76.50811592846	0.0500011702970369
81724	50	428	0	0	aardvark	0	119	1	stimuli\aardvark\aardvark_09s.jpg	8	-1	1	0	aardvark_09s.jpg	0	0	0	76.5581368473067	76.6081180252077	0.0499811779009178
81824	50	429	0	0	hash	756	120	1	stimuli\hash\hash_04s.jpg	3	-1	1	0	hash_04s.jpg	0	0	0	76.6581369935884	76.7081198781671	0.0499828845786396
81924	50	430	0	0	potpie	1234	121	1	stimuli\potpie\potpie_06s.jpg	5	-1	1	0	potpie_06s.jpg	0	0	0	76.7581410408311	76.8081219749292	0.0499809340981301
82024	50	431	0	0	trigger	1713	122	1	stimuli\trigger\trigger_09s.jpg	8	-1	1	0	trigger_09s.jpg	0	0	0	76.8581467947224	76.9081299231184	0.0499831283959793
82124	50	432	0	0	sword	1602	123	1	stimuli\sword\sword_11s.jpg	10	-1	1	0	sword_11s.jpg	0	0	0	76.9581274362572	77.0081327513035	0.0500053150462918
82224	50	433	0	0	bathmat	89	124	1	stimuli\bathmat\bathmat_05s.jpg	4	-1	1	0	bathmat_05s.jpg	0	0	0	77.0581314834999	77.1081131490209	0.0499816655210452
82324	50	434	0	0	cannonball	261	125	1	stimuli\cannonball\cannonball_06s.jpg	5	-1	1	0	cannonball_06s.jpg	0	0	0	77.158151134543	77.2081345067272	0.0499833721842151
82424	50	435	0	0	watering_can	1792	126	1	stimuli\watering_can\watering_can_01b.jpg	0	-1	1	0	watering_can_01b.jpg	0	0	0	77.2581544503482	77.3081361158693	0.0499816655210452
82524	50	436	0	0	chime	328	127	1	stimuli\chime\chime_04s.jpg	3	-1	1	0	chime_04s.jpg	0	0	0	77.3581443566363	77.4081396754918	0.0499953188555082
82624	50	437	0	0	slicer	1463	128	1	stimuli\slicer\slicer_01b.jpg	0	-1	1	0	slicer_01b.jpg	0	0	0	77.4581698591064	77.5081410408311	0.0499711817246862
82724	50	438	0	0	saddle	1343	129	1	stimuli\saddle\saddle_10s.jpg	9	-1	1	0	saddle_10s.jpg	0	0	0	77.5581617158605	77.6081250956922	0.0499633798317518
82824	50	439	0	0	face_mask	570	130	1	stimuli\face_mask\face_mask_12s.jpg	11	-1	1	0	face_mask_12s.jpg	0	0	0	77.6581635688199	77.7081476724416	0.0499841036216822
82924	50	440	0	0	kazoo	864	131	1	stimuli\kazoo\kazoo_02s.jpg	1	-1	1	0	kazoo_02s.jpg	0	0	0	77.7581681036681	77.8081502568239	0.0499821531557245
83024	50	441	0	0	suspenders	1589	132	1	stimuli\suspenders\suspenders_08s.jpg	7	-1	1	0	suspenders_08s.jpg	0	0	0	77.8581782461406	77.9081555231096	0.0499772769690026
83124	50	442	0	0	rock	1319	133	1	stimuli\rock\rock_04s.jpg	3	-1	1	0	rock_04s.jpg	0	0	0	77.9581744914758	78.0081581074919	0.0499836160161067
83224	50	443	0	0	candy	255	134	1	stimuli\candy\candy_01b.jpg	0	-1	1	0	candy_01b.jpg	0	0	0	78.0581761006179	78.1081548404327	0.0499787398148328
83324	50	444	0	0	dart	473	135	1	stimuli\dart\dart_08s.jpg	7	-1	1	0	dart_08s.jpg	0	0	0	78.158160155479	78.2081618133961	0.0500016579171643
83424	50	445	0	0	lamb	889	136	1	stimuli\lamb\lamb_09s.jpg	8	-1	1	0	lamb_09s.jpg	0	0	0	78.2581600579579	78.3081451368198	0.0499850788619369
83524	50	446	0	0	radiator	1272	137	1	stimuli\radiator\radiator_11s.jpg	10	-1	1	0	radiator_11s.jpg	0	0	0	78.3581684937672	78.4081662507233	0.0499977569561452
83624	50	447	0	0	flamethrower	607	138	1	stimuli\flamethrower\flamethrower_06s.jpg	5	-1	1	0	flamethrower_06s.jpg	0	0	0	78.4581864381471	78.5081654217647	0.0499789836176205
83724	50	448	0	0	corkscrew	411	139	1	stimuli\corkscrew\corkscrew_07s.jpg	6	-1	1	0	corkscrew_07s.jpg	0	0	0	78.5581629349181	78.6081677623442	0.0500048274261644
83824	50	449	0	0	marshmallow	977	140	1	stimuli\marshmallow\marshmallow_05s.jpg	4	-1	1	0	marshmallow_05s.jpg	0	0	0	78.6581903878541	78.7081740038557	0.0499836160015548
83924	50	450	0	0	cushion	466	141	1	stimuli\cushion\cushion_01b.jpg	0	-1	1	0	cushion_01b.jpg	0	0	0	78.7581795627193	78.8081500130065	0.0499704502872191
84024	50	451	0	0	yogurt	1848	142	1	stimuli\yogurt\yogurt_08s.jpg	7	-1	1	0	yogurt_08s.jpg	0	0	0	78.8581714194879	78.9081450392987	0.0499736198107712
84124	50	452	0	0	eggnog	549	143	1	stimuli\eggnog\eggnog_12s.jpg	11	-1	1	0	eggnog_12s.jpg	0	0	0	78.9581698591064	79.0081824884255	0.0500126293190988
84224	50	453	0	0	shaker	1408	144	1	stimuli\shaker\shaker_03s.jpg	2	-1	1	0	shaker_03s.jpg	0	0	0	79.0581841463281	79.1081799528038	0.0499958064756356
84324	50	454	0	0	checkbook	310	145	1	stimuli\checkbook\checkbook_11s.jpg	10	-1	1	0	checkbook_11s.jpg	0	0	0	79.158202822131	79.2081864381471	0.0499836160161067
84424	50	455	0	0	mouth	1031	146	1	stimuli\mouth\mouth_02s.jpg	1	-1	1	0	mouth_02s.jpg	0	0	0	79.2582122331805	79.3081795139587	0.049967280778219
84524	50	456	0	0	stake	1533	147	1	stimuli\stake\stake_06s.jpg	5	-1	1	0	stake_06s.jpg	0	0	0	79.3582131108997	79.4081952640408	0.0499821531411726
84624	50	457	0	0	shoe	1423	148	1	stimuli\shoe\shoe_06s.jpg	5	-1	1	0	shoe_06s.jpg	0	0	0	79.4582208152715	79.5081963855628	0.0499755702912807
84724	50	458	0	0	visor	1766	149	1	stimuli\visor\visor_03s.jpg	2	-1	1	0	visor_03s.jpg	0	0	0	79.5582207177504	79.6082011642284	0.0499804464780027
84824	50	459	0	0	nutcracker	1067	150	1	stimuli\nutcracker\nutcracker_01b.jpg	0	-1	1	0	nutcracker_01b.jpg	0	0	0	79.6582281783194	79.7082005790871	0.0499724007677287
84924	50	460	0	0	cake	237	151	1	stimuli\cake\cake_09s.jpg	8	-1	1	0	cake_09s.jpg	0	0	0	79.7582241798373	79.8082043825125	0.049980202675215
85024	50	461	0	0	eye	564	152	1	stimuli\eye\eye_08s.jpg	7	-1	1	0	eye_08s.jpg	0	0	0	79.8582262765995	79.9081852678501	0.0499589912506053
85124	50	462	0	0	butter	228	153	1	stimuli\butter\butter_02s.jpg	1	-1	1	0	butter_02s.jpg	0	0	0	79.9582269105013	80.0082080884167	0.0499811779154697
85224	50	463	0	0	anchor	21	154	1	stimuli\anchor\anchor_12s.jpg	11	-1	1	0	anchor_12s.jpg	0	0	0	80.0582290072634	80.1082096975588	0.0499806902953424
85324	50	464	0	0	tricycle	1711	155	1	stimuli\tricycle\tricycle_07s.jpg	6	-1	1	0	tricycle_07s.jpg	0	0	0	80.1582281783194	80.2082100876578	0.0499819093383849
85424	50	465	0	0	hairdryer	735	156	1	stimuli\hairdryer\hairdryer_05s.jpg	4	-1	1	0	hairdryer_05s.jpg	0	0	0	80.2582297874615	80.3081965806196	0.0499667931580916
85524	50	466	0	0	piglet	1173	157	1	stimuli\piglet\piglet_02s.jpg	1	-1	1	0	piglet_02s.jpg	0	0	0	80.3582184747065	80.4082142811822	0.0499958064756356
85624	50	467	0	0	jelly_bean	844	158	1	stimuli\jelly_bean\jelly_bean_02s.jpg	1	-1	1	0	jelly_bean_02s.jpg	0	0	0	80.4582405638357	80.5081885836698	0.0499480198341189
85724	50	468	0	0	cd_player	290	159	1	stimuli\cd_player\cd_player_03s.jpg	2	-1	1	0	cd_player_03s.jpg	0	0	0	80.5582124282228	80.6081904366147	0.0499780083919177
85824	50	469	0	0	treadmill	1706	160	1	stimuli\treadmill\treadmill_04s.jpg	3	-1	1	0	treadmill_04s.jpg	0	0	0	80.6582428068796	80.7082215466944	0.0499787398148328
85924	50	470	0	0	air_conditioner	4	161	1	stimuli\air_conditioner\air_conditioner_05s.jpg	4	-1	1	0	air_conditioner_05s.jpg	0	0	0	80.758245878882	80.8082112091797	0.0499653302977094
86024	50	471	0	0	gyro	730	162	1	stimuli\gyro\gyro_06s.jpg	5	-1	1	0	gyro_06s.jpg	0	0	0	80.8582555337343	80.9082115992787	0.0499560655443929
86124	50	472	0	0	ramp	1283	163	1	stimuli\ramp\ramp_12s.jpg	11	-1	1	0	ramp_12s.jpg	0	0	0	80.958249828589	81.0082305188844	0.0499806902953424
86224	50	473	0	0	coffee_table	381	164	1	stimuli\coffee_table\coffee_table_02s.jpg	1	-1	1	0	coffee_table_02s.jpg	0	0	0	81.058236077748	81.1082331032667	0.0499970255186781
86324	50	474	0	0	tamale	1618	165	1	stimuli\tamale\tamale_07s.jpg	6	-1	1	0	tamale_07s.jpg	0	0	0	81.1582540221134	81.2082400762156	0.0499860541021917
86424	50	475	0	0	owl	1091	166	1	stimuli\owl\owl_04s.jpg	3	-1	1	0	owl_04s.jpg	0	0	0	81.258256850313	81.308241929175	0.0499850788619369
86524	50	476	0	0	fire_pit	593	167	1	stimuli\fire_pit\fire_pit_01b.jpg	0	-1	1	0	fire_pit_01b.jpg	0	0	0	81.3582657737279	81.4082452449802	0.0499794712522998
86624	50	477	0	0	cash_register	280	168	1	stimuli\cash_register\cash_register_08s.jpg	7	-1	1	0	cash_register_08s.jpg	0	0	0	81.4582693333505	81.5082383207919	0.0499689874413889
86724	50	478	0	0	duct_tape	528	169	1	stimuli\duct_tape\duct_tape_06s.jpg	5	-1	1	0	duct_tape_06s.jpg	0	0	0	81.5582604586816	81.6082321280264	0.0499716693448136
86824	50	479	0	0	boa	150	170	1	stimuli\boa\boa_01s.jpg	0	-1	1	1	boa_01s.jpg	0	0	0	81.6582649935444	81.7082620190631	0.0499970255186781
86924	50	480	0	0	counter	424	171	1	stimuli\counter\counter_05s.jpg	4	-1	1	0	counter_05s.jpg	0	0	0	81.758260019822	81.8082602148788	0.0500001950567821
87024	50	481	0	0	swing_set	1599	172	1	stimuli\swing_set\swing_set_06s.jpg	5	-1	1	0	swing_set_06s.jpg	0	0	0	81.8582774765819	81.908261092598	0.0499836160161067
87124	50	482	0	0	lab_coat	885	173	1	stimuli\lab_coat\lab_coat_07s.jpg	6	-1	1	0	lab_coat_07s.jpg	0	0	0	81.9582768914406	82.0082558750728	0.0499789836321725
87224	50	483	0	0	traffic_light	1696	174	1	stimuli\traffic_light\traffic_light_01b.jpg	0	-1	1	0	traffic_light_01b.jpg	0	0	0	82.0582782567799	82.1082604099211	0.0499821531411726
87324	50	484	0	0	chair	300	175	1	stimuli\chair\chair_08s.jpg	7	-1	1	0	chair_08s.jpg	0	0	0	82.1582798659219	82.2082664076297	0.0499865417077672
87424	50	485	0	0	sledgehammer	1461	176	1	stimuli\sledgehammer\sledgehammer_09s.jpg	8	-1	1	0	sledgehammer_09s.jpg	1	0.650156623174553	1	82.2582917150576	82.3082641158253	0.0499724007677287
87524	50	486	0	0	gate	662	177	1	stimuli\gate\gate_09s.jpg	8	-1	1	0	gate_09s.jpg	0	0	0	82.358285034672	82.4082713325915	0.0499862979195314
87624	50	487	0	0	brick	199	178	1	stimuli\brick\brick_03s.jpg	2	-1	1	0	brick_03s.jpg	0	0	0	82.4582739657344	82.5082736731565	0.0499997074221028
87724	50	488	0	0	denture	478	179	1	stimuli\denture\denture_08s.jpg	7	-1	1	0	denture_08s.jpg	0	0	0	82.5582931291574	82.608270893732	0.049977764574578
87824	50	489	0	0	inkwell	830	180	1	stimuli\inkwell\inkwell_07s.jpg	6	-1	1	0	inkwell_07s.jpg	0	0	0	82.6582988830487	82.7082739657344	0.0499750826857053
87924	50	490	0	0	dish	489	181	1	stimuli\dish\dish_01b.jpg	0	-1	1	0	dish_01b.jpg	0	0	0	82.7582963474415	82.8082780129625	0.0499816655210452
88024	50	491	0	0	chimney	329	182	1	stimuli\chimney\chimney_01b.jpg	0	-1	1	0	chimney_01b.jpg	0	0	0	82.8583045394334	82.9082876678149	0.0499831283814274
88124	50	492	0	0	punch2	1255	183	1	stimuli\punch2\punch2_03s.jpg	2	-1	1	0	punch2_03s.jpg	0	0	0	82.9583056609554	83.0082797683863	0.0499741074308986
88224	50	493	0	0	tree	1708	184	1	stimuli\tree\tree_11s.jpg	10	-1	1	0	tree_11s.jpg	0	0	0	83.058303369151	83.1082833280088	0.0499799588578753
88324	50	494	0	0	cable	234	185	1	stimuli\cable\cable_06s.jpg	5	-1	1	0	cable_06s.jpg	0	0	0	83.1582857173489	83.2082878628717	0.0500021455227397
88424	50	495	0	0	bandage	66	186	1	stimuli\bandage\bandage_03s.jpg	2	-1	1	0	bandage_03s.jpg	0	0	0	83.2583107321989	83.3082899596338	0.0499792274349602
88524	50	496	0	0	bread	194	187	1	stimuli\bread\bread_12s.jpg	11	-1	1	0	bread_12s.jpg	0	0	0	83.3582974689634	83.4082501211669	0.0499526522035012
88624	50	497	0	0	racehorse	1267	188	1	stimuli\racehorse\racehorse_03s.jpg	2	-1	1	0	racehorse_03s.jpg	0	0	0	83.458317119992	83.5082961036242	0.0499789836321725
88724	50	498	0	0	eyeliner	567	189	1	stimuli\eyeliner\eyeliner_12s.jpg	11	-1	1	0	eyeliner_12s.jpg	0	0	0	83.5583011748677	83.6082833280088	0.0499821531411726
88824	50	499	0	0	juice	854	190	1	stimuli\juice\juice_02s.jpg	1	-1	1	0	juice_02s.jpg	0	0	0	83.6583188754303	83.7083051733352	0.0499862979049794
88924	50	500	0	0	ladybug	888	191	1	stimuli\ladybug\ladybug_09s.jpg	8	-1	1	0	ladybug_09s.jpg	0	0	0	83.758324141716	83.8083031253336	0.0499789836176205
89024	50	501	0	0	tarp	1628	192	1	stimuli\tarp\tarp_05s.jpg	4	-1	1	0	tarp_05s.jpg	0	0	0	83.8583279451414	83.9082684068708	0.0499404617294203
89124	50	502	0	0	man	963	193	1	stimuli\man\man_05s.jpg	4	-1	1	0	man_05s.jpg	0	0	0	83.9583039542922	84.0082822064869	0.0499782521947054
89224	50	503	0	0	broom	203	194	1	stimuli\broom\broom_10s.jpg	9	-1	1	0	broom_10s.jpg	0	0	0	84.0583131215244	84.1083130727638	0.0499999512394425
89324	50	504	0	0	ferris_wheel	579	195	1	stimuli\ferris_wheel\ferris_wheel_03s.jpg	2	-1	1	0	ferris_wheel_03s.jpg	0	0	0	84.1583361858939	84.2083137066656	0.0499775207717903
89424	50	505	0	0	hand	744	196	1	stimuli\hand\hand_01b.jpg	0	-1	1	0	hand_01b.jpg	0	0	0	84.2583114636218	84.3082833767694	0.0499719131476013
89524	50	506	0	0	possum	1228	197	1	stimuli\possum\possum_07s.jpg	6	-1	1	0	possum_07s.jpg	0	0	0	84.358306489914	84.408288155435	0.0499816655210452
89624	50	507	0	0	sweeper	1594	198	1	stimuli\sweeper\sweeper_10s.jpg	9	-1	1	0	sweeper_10s.jpg	0	0	0	84.4583207771357	84.5082975664845	0.0499767893488752
89724	50	508	0	0	weed	1802	199	1	stimuli\weed\weed_11s.jpg	10	-1	1	0	weed_11s.jpg	0	0	0	84.5583167786681	84.608307708957	0.0499909302889137
89824	50	509	0	0	hot-water_bottle	802	200	1	stimuli\hot-water_bottle\hot-water_bottle_04s.jpg	3	-1	1	0	hot-water_bottle_04s.jpg	0	0	0	84.6583488639881	84.7083271161828	0.0499782521947054
89924	50	510	0	0	horn	797	201	1	stimuli\horn\horn_11s.jpg	10	-1	1	0	horn_11s.jpg	0	0	0	84.7583485226496	84.8083123901015	0.0499638674518792
90024	50	511	0	0	chicken_wire	324	202	1	stimuli\chicken_wire\chicken_wire_12s.jpg	11	-1	1	0	chicken_wire_12s.jpg	0	0	0	84.8583494003688	84.9083144868637	0.0499650864949217
90124	50	512	0	0	chainsaw	299	203	1	stimuli\chainsaw\chainsaw_05s.jpg	4	-1	1	0	chainsaw_05s.jpg	0	0	0	84.9583288228459	85.0083377950359	0.0500089721899712
90224	50	513	0	0	flamingo	608	204	1	stimuli\flamingo\flamingo_08s.jpg	7	-1	1	0	flamingo_08s.jpg	0	0	0	85.0583550567535	85.1083201432339	0.0499650864803698
90324	50	514	0	0	sandwich	1357	205	1	stimuli\sandwich\sandwich_01b.jpg	0	-1	1	0	sandwich_01b.jpg	0	0	0	85.1583576411213	85.2083427199832	0.0499850788619369
90424	50	515	0	0	spaghetti	1503	206	1	stimuli\spaghetti\spaghetti_02s.jpg	1	-1	1	0	spaghetti_02s.jpg	0	0	0	85.2583612007438	85.308328481522	0.049967280778219
90524	50	516	0	0	toilet_paper	1671	207	1	stimuli\toilet_paper\toilet_paper_08s.jpg	7	-1	1	0	toilet_paper_08s.jpg	0	0	0	85.3583481813257	85.4083303344669	0.0499821531411726
90624	50	517	0	0	speedometer	1512	208	1	stimuli\speedometer\speedometer_01b.jpg	0	-1	1	0	speedometer_01b.jpg	0	0	0	85.4583673447487	85.5083475474094	0.0499802026606631
90724	50	518	0	0	soda	1490	209	1	stimuli\soda\soda_12s.jpg	11	-1	1	0	soda_12s.jpg	0	0	0	85.5583684662706	85.6083333089482	0.0499648426775821
90824	50	519	0	0	treasure	1707	210	1	stimuli\treasure\treasure_01b.jpg	0	-1	1	0	treasure_01b.jpg	0	0	0	85.6583730011189	85.7083529599913	0.0499799588724272
90924	50	520	0	0	roller_coaster	1325	211	1	stimuli\roller_coaster\roller_coaster_04s.jpg	3	-1	1	0	roller_coaster_04s.jpg	0	0	0	85.7583731474006	85.8083555443591	0.0499823969585123
91024	50	521	0	0	leaf	906	212	1	stimuli\leaf\leaf_01b.jpg	0	-1	1	0	leaf_01b.jpg	0	0	0	85.8583771946433	85.9083608106448	0.0499836160015548
91124	50	522	0	0	rearview_mirror	1293	213	1	stimuli\rearview_mirror\rearview_mirror_05s.jpg	4	-1	1	0	rearview_mirror_05s.jpg	0	0	0	85.9583829485491	86.008360956941	0.0499780083919177
91224	50	523	0	0	banana_peel	64	214	1	stimuli\banana_peel\banana_peel_10s.jpg	9	-1	1	0	banana_peel_10s.jpg	0	0	0	86.0583811443503	86.1083608594054	0.0499797150550876
91324	50	524	0	0	whiteboard	1813	215	1	stimuli\whiteboard\whiteboard_06s.jpg	5	-1	1	0	whiteboard_06s.jpg	0	0	0	86.1583849477902	86.2083485714102	0.0499636236199876
91424	50	525	0	0	blowgun	147	216	1	stimuli\blowgun\blowgun_02s.jpg	1	-1	1	0	blowgun_02s.jpg	0	0	0	86.2583916769217	86.3083528624556	0.0499611855339026
91524	50	526	0	0	tablecloth	1609	217	1	stimuli\tablecloth\tablecloth_09s.jpg	8	-1	1	0	tablecloth_09s.jpg	0	0	0	86.3583896289201	86.4083730011189	0.049983372198767
91624	50	527	0	0	pony	1220	218	1	stimuli\pony\pony_12s.jpg	11	-1	1	0	pony_12s.jpg	0	0	0	86.4583775847423	86.5083580312203	0.0499804464780027
91724	50	528	0	0	filter	587	219	1	stimuli\filter\filter_11s.jpg	10	-1	1	0	filter_11s.jpg	0	0	0	86.5583687100734	86.6083486689458	0.0499799588724272
91824	50	529	0	0	ice-cream_cone	817	220	1	stimuli\ice-cream_cone\ice-cream_cone_09s.jpg	8	-1	1	0	ice-cream_cone_09s.jpg	0	0	0	86.6584015268309	86.7083788037853	0.0499772769544506
91924	50	530	0	0	clam	349	221	1	stimuli\clam\clam_09s.jpg	8	-1	1	0	clam_09s.jpg	0	0	0	86.7583980159689	86.8083643215068	0.0499663055379642
92024	50	531	0	0	headlamp	764	222	1	stimuli\headlamp\headlamp_10s.jpg	9	-1	1	0	headlamp_10s.jpg	0	0	0	86.8584020632115	86.9083615420823	0.0499594788707327
92124	50	532	0	0	camper	249	223	1	stimuli\camper\camper_04s.jpg	3	-1	1	0	camper_04s.jpg	0	0	0	86.9583805104485	87.0083707093145	0.0499901988659985
92224	50	533	0	0	pinecone	1183	224	1	stimuli\pinecone\pinecone_06s.jpg	5	-1	1	0	pinecone_06s.jpg	0	0	0	87.0584067443415	87.1083715870336	0.049964842692134
92324	50	534	0	0	police_car	1214	225	1	stimuli\police_car\police_car_09s.jpg	8	-1	1	0	police_car_09s.jpg	0	0	0	87.1583812906465	87.2083641752251	0.0499828845786396
92424	50	535	0	0	drain	515	226	1	stimuli\drain\drain_07s.jpg	6	-1	1	0	drain_07s.jpg	0	0	0	87.258412644529	87.3083918719785	0.0499792274495121
92524	50	536	0	0	camera2	247	227	1	stimuli\camera2\camera2_11s.jpg	10	-1	1	0	camera2_11s.jpg	0	0	0	87.3583974308276	87.4083976258698	0.0500001950422302
92624	50	537	0	0	gurney	728	228	1	stimuli\gurney\gurney_07s.jpg	6	-1	1	0	gurney_07s.jpg	0	0	0	87.458419276154	87.5084070369194	0.0499877607653616
92724	50	538	0	0	neck	1053	229	1	stimuli\neck\neck_10s.jpg	9	-1	1	0	neck_10s.jpg	0	0	0	87.5584284433862	87.6084015755914	0.0499731322051957
92824	50	539	0	0	tripod	1714	230	1	stimuli\tripod\tripod_04s.jpg	3	-1	1	0	tripod_04s.jpg	0	0	0	87.6584224944381	87.7084041599737	0.0499816655355971
92924	50	540	0	0	dresser	519	231	1	stimuli\dresser\dresser_06n.jpg	5	-1	1	0	dresser_06n.jpg	0	0	0	87.7584280045266	87.8084060129186	0.0499780083919177
93024	50	541	0	0	pheasant	1160	232	1	stimuli\pheasant\pheasant_08s.jpg	7	-1	1	0	pheasant_08s.jpg	0	0	0	87.8584325393895	87.908411035387	0.0499784959974932
93124	50	542	0	0	outlet	1088	233	1	stimuli\outlet\outlet_01b.jpg	0	-1	1	0	outlet_01b.jpg	0	0	0	87.9584056228196	88.0083841188316	0.0499784960120451
93224	50	543	0	0	guinea_pig	722	234	1	stimuli\guinea_pig\guinea_pig_03s.jpg	2	-1	1	0	guinea_pig_03s.jpg	0	0	0	88.0584128395858	88.1083888974972	0.0499760579114081
93324	50	544	0	0	goggles	686	235	1	stimuli\goggles\goggles_06s.jpg	5	-1	1	0	goggles_06s.jpg	0	0	0	88.1584393172816	88.2084185447166	0.0499792274349602
93424	50	545	0	0	cereal	297	236	1	stimuli\cereal\cereal_09s.jpg	8	-1	1	0	cereal_09s.jpg	0	0	0	88.2584384883376	88.3084023557749	0.0499638674373273
93524	50	546	0	0	penholder	1146	237	1	stimuli\penholder\penholder_02s.jpg	1	-1	1	0	penholder_02s.jpg	0	0	0	88.3584242498619	88.4084249325242	0.0500006826623576
93624	50	547	0	0	stockings	1559	238	1	stimuli\stockings\stockings_05s.jpg	4	-1	1	0	stockings_05s.jpg	0	0	0	88.4584226894804	88.5084426331014	0.0500199436210096
93724	50	548	0	0	table	1608	239	1	stimuli\table\table_03s.jpg	2	-1	1	0	table_03s.jpg	0	0	0	88.558421616719	88.6084015755914	0.0499799588724272
93824	50	549	0	0	centerpiece	295	240	1	stimuli\centerpiece\centerpiece_12s.jpg	11	-1	1	0	centerpiece_12s.jpg	0	0	0	88.6584480944293	88.7083936761628	0.049945581733482
93924	50	550	0	0	daisy	470	241	1	stimuli\daisy\daisy_09s.jpg	8	-1	1	0	daisy_09s.jpg	0	0	0	88.7584531168977	88.8084311252896	0.0499780083919177
94024	50	551	0	0	kaleidoscope	861	242	1	stimuli\kaleidoscope\kaleidoscope_11s.jpg	10	-1	1	0	kaleidoscope_11s.jpg	0	0	0	88.8584537507995	88.9084288334852	0.0499750826857053
94124	50	552	0	0	holster	786	243	1	stimuli\holster\holster_06s.jpg	5	-1	1	0	holster_06s.jpg	0	0	0	88.9584590170853	89.0084355626168	0.0499765455315355
94224	50	553	0	0	jack	835	244	1	stimuli\jack\jack_04s.jpg	3	-1	1	0	jack_04s.jpg	0	0	0	89.0584581881412	89.108437659379	0.0499794712377479
94324	50	554	0	0	pine_tree	1181	245	1	stimuli\pine_tree\pine_tree_08s.jpg	7	-1	1	0	pine_tree_08s.jpg	0	0	0	89.158463454427	89.2084434132848	0.0499799588578753
94424	50	555	0	0	bulldozer	215	246	1	stimuli\bulldozer\bulldozer_11s.jpg	10	-1	1	0	bulldozer_11s.jpg	0	0	0	89.2584465340478	89.3084372205194	0.049990686471574
94524	50	556	0	0	kilt	872	247	1	stimuli\kilt\kilt_01b.jpg	0	-1	1	0	kilt_01b.jpg	0	0	0	89.3584661850909	89.4084500449098	0.0499838598188944
94624	50	557	0	0	duckling	526	248	1	stimuli\duckling\duckling_01b.jpg	0	-1	1	0	duckling_01b.jpg	0	0	0	89.4584699885163	89.5084660387947	0.0499960502784234
94724	50	558	0	0	iceskate	823	249	1	stimuli\iceskate\iceskate_09s.jpg	8	-1	1	0	iceskate_09s.jpg	0	0	0	89.5584733043215	89.6084386346192	0.0499653302977094
94824	50	559	0	0	bead	100	250	1	stimuli\bead\bead_01b.jpg	0	-1	1	0	bead_01b.jpg	0	0	0	89.6584749134636	89.7084563351818	0.0499814217182575
94924	50	560	0	0	wooden_leg	1834	251	1	stimuli\wooden_leg\wooden_leg_09s.jpg	8	-1	1	0	wooden_leg_09s.jpg	0	0	0	89.7584784730861	89.8084608700447	0.0499823969585123
95024	50	561	0	0	hyena	815	252	1	stimuli\hyena\hyena_06s.jpg	5	-1	1	0	hyena_06s.jpg	0	0	0	89.8584810574685	89.9084629668068	0.0499819093383849
95124	50	562	0	0	cotton_candy	421	253	1	stimuli\cotton_candy\cotton_candy_02s.jpg	1	-1	1	0	cotton_candy_02s.jpg	0	0	0	89.9584816913703	90.0084626254684	0.0499809340981301
95224	50	563	0	0	hedge	773	254	1	stimuli\hedge\hedge_01b.jpg	0	-1	1	0	hedge_01b.jpg	0	0	0	90.0584694033751	90.1084510688961	0.0499816655210452
95324	50	564	0	0	calamari	239	255	1	stimuli\calamari\calamari_12s.jpg	11	-1	1	0	calamari_12s.jpg	0	0	0	90.1584936867876	90.2084709637566	0.0499772769690026
95424	50	565	0	0	straw2	1569	256	1	stimuli\straw2\straw2_04s.jpg	3	-1	1	0	straw2_04s.jpg	0	0	0	90.2584889568825	90.3084708662354	0.0499819093529368
95524	50	566	0	0	car	267	257	1	stimuli\car\car_01b.jpg	0	-1	1	0	car_01b.jpg	0	0	0	90.3584917850822	90.4084778391843	0.0499860541021917
95624	50	567	0	0	combination_lock	390	258	1	stimuli\combination_lock\combination_lock_10s.jpg	9	-1	1	0	combination_lock_10s.jpg	0	0	0	90.4584965637478	90.5084748159425	0.0499782521947054
95724	50	568	0	0	swan	1591	259	1	stimuli\swan\swan_12s.jpg	11	-1	1	0	swan_12s.jpg	0	0	0	90.5584823252721	90.6084654536535	0.0499831283814274
95824	50	569	0	0	gavel	665	260	1	stimuli\gavel\gavel_08s.jpg	7	-1	1	0	gavel_08s.jpg	0	0	0	90.6585027077381	90.7084885180375	0.049985810299404
95924	50	570	0	0	space_shuttle	1501	261	1	stimuli\space_shuttle\space_shuttle_04s.jpg	3	-1	1	0	space_shuttle_04s.jpg	0	0	0	90.7585101683071	90.8084659900342	0.0499558217270533
96024	50	571	0	0	pet_food	1157	262	1	stimuli\pet_food\pet_food_06s.jpg	5	-1	1	0	pet_food_06s.jpg	0	0	0	90.8584852022177	90.9084793020302	0.0499940998124657
96124	50	572	0	0	badger	53	263	1	stimuli\badger\badger_05s.jpg	4	-1	1	0	badger_05s.jpg	0	0	0	90.9585053408809	91.0084921264061	0.0499867855251068
96224	50	573	0	0	seesaw	1402	264	1	stimuli\seesaw\seesaw_11s.jpg	10	-1	1	0	seesaw_11s.jpg	0	0	0	91.0585120700271	91.1084795946081	0.0499675245810067
96324	50	574	0	0	shoelace	1426	265	1	stimuli\shoelace\shoelace_05s.jpg	4	-1	1	0	shoelace_05s.jpg	0	0	0	91.1585117286886	91.2084951008874	0.049983372198767
96424	50	575	0	0	plum	1203	266	1	stimuli\plum\plum_04s.jpg	3	-1	1	0	plum_04s.jpg	0	0	0	91.2585150444938	91.3084979290725	0.0499828845786396
96524	50	576	0	0	funnel	649	267	1	stimuli\funnel\funnel_07s.jpg	6	-1	1	0	funnel_07s.jpg	0	0	0	91.3585176288761	91.4084992944117	0.0499816655355971
96624	50	577	0	0	bottle_opener	171	268	1	stimuli\bottle_opener\bottle_opener_03s.jpg	2	-1	1	0	bottle_opener_03s.jpg	0	0	0	91.4585021713574	91.5084862749791	0.0499841036216822
96724	50	578	0	0	cigarette	344	269	1	stimuli\cigarette\cigarette_11s.jpg	10	-1	1	0	cigarette_11s.jpg	0	0	0	91.5585227976408	91.6085017812584	0.0499789836176205
96824	50	579	0	0	waterwheel	1794	270	1	stimuli\waterwheel\waterwheel_02s.jpg	1	-1	1	0	waterwheel_02s.jpg	0	0	0	91.6585090467852	91.7085082666017	0.0499992198165273
96924	50	580	0	0	thermos	1647	271	1	stimuli\thermos\thermos_09s.jpg	8	-1	1	0	thermos_09s.jpg	0	0	0	91.7585121187876	91.8084893957421	0.0499772769544506
97024	50	581	0	0	patch	1125	272	1	stimuli\patch\patch_07s.jpg	6	-1	1	0	patch_07s.jpg	0	0	0	91.8585376212577	91.9084858848946	0.0499482636369066
97124	50	582	0	0	plunger	1204	273	1	stimuli\plunger\plunger_03s.jpg	2	-1	1	0	plunger_03s.jpg	0	0	0	91.9585075351642	92.008483836893	0.0499763017287478
97224	50	583	0	0	skunk	1459	274	1	stimuli\skunk\skunk_09s.jpg	8	-1	1	0	skunk_09s.jpg	0	0	0	92.0585067062202	92.108487396501	0.0499806902807904
97324	50	584	0	0	seismograph	1403	275	1	stimuli\seismograph\seismograph_07s.jpg	6	-1	1	0	seismograph_07s.jpg	0	0	0	92.1585422048665	92.2085238704021	0.0499816655355971
97424	50	585	0	0	cookie_sheet	402	276	1	stimuli\cookie_sheet\cookie_sheet_03s.jpg	2	-1	1	0	cookie_sheet_03s.jpg	0	0	0	92.2585438140086	92.3085247481067	0.0499809340981301
97524	50	586	0	0	guacamole	719	277	1	stimuli\guacamole\guacamole_03s.jpg	2	-1	1	0	guacamole_03s.jpg	0	0	0	92.3585437164875	92.4085268448689	0.0499831283814274
97624	50	587	0	0	napkin	1050	278	1	stimuli\napkin\napkin_12s.jpg	11	-1	1	0	napkin_12s.jpg	0	0	0	92.4585516646766	92.5085113873502	0.0499597226735204
97724	50	588	0	0	piano	1165	279	1	stimuli\piano\piano_07n.jpg	6	-1	1	0	piano_07n.jpg	0	0	0	92.5585347442975	92.6085183602991	0.0499836160015548
97824	50	589	0	0	tiramisu	1663	280	1	stimuli\tiramisu\tiramisu_05s.jpg	4	-1	1	0	tiramisu_05s.jpg	0	0	0	92.6585534201004	92.7085353294387	0.0499819093383849
97924	50	590	0	0	doghouse	497	281	1	stimuli\doghouse\doghouse_02s.jpg	1	-1	1	0	doghouse_02s.jpg	0	0	0	92.7585542978195	92.8085369385808	0.0499826407613
98024	50	591	0	0	lavender	904	282	1	stimuli\lavender\lavender_09s.jpg	8	-1	1	0	lavender_09s.jpg	0	0	0	92.8585451793479	92.9085402544006	0.0499950750527205
98124	50	592	0	0	dishwashing_liquid	492	283	1	stimuli\dishwashing_liquid\dishwashing_liquid_02s.jpg	1	-1	1	0	dishwashing_liquid_02s.jpg	0	0	0	92.9585580037237	93.0085401568649	0.0499821531411726
98224	50	593	0	0	meatball	989	284	1	stimuli\meatball\meatball_05s.jpg	4	-1	1	0	meatball_05s.jpg	0	0	0	93.0585608319088	93.1085432288673	0.0499823969585123
98324	50	594	0	0	step_stool	1548	285	1	stimuli\step_stool\step_stool_03s.jpg	2	-1	1	1	step_stool_03s.jpg	0	0	0	93.1585651229543	93.208548007533	0.0499828845786396
98424	50	595	0	0	turkey	1733	286	1	stimuli\turkey\turkey_10s.jpg	9	-1	1	0	turkey_10s.jpg	0	0	0	93.2585742901865	93.308542546205	0.0499682560184738
98524	50	596	0	0	cornmeal	415	287	1	stimuli\cornmeal\cornmeal_05s.jpg	4	-1	1	0	cornmeal_05s.jpg	0	0	0	93.3585534688609	93.4085497629567	0.049996294095763
98624	50	597	0	0	vent	1758	288	1	stimuli\vent\vent_03s.jpg	2	-1	1	0	vent_03s.jpg	0	0	0	93.4585682437173	93.508552347339	0.0499841036216822
98724	50	598	0	0	ukulele	1742	289	1	stimuli\ukulele\ukulele_03s.jpg	2	-1	1	0	ukulele_03s.jpg	0	0	0	93.5585713157197	93.608566878378	0.049995562658296
98824	50	599	0	0	abacus	1	290	1	stimuli\abacus\abacus_04s.jpg	3	-1	1	0	abacus_04s.jpg	1	0.541913767534425	1	93.6585780448513	93.7085565408634	0.0499784960120451
98924	50	600	0	0	beaver	107	291	1	stimuli\beaver\beaver_01b.jpg	0	-1	1	0	beaver_01b.jpg	0	0	0	93.7585755092441	93.8085552242992	0.0499797150550876
99024	50	601	0	0	waffle_iron	1771	292	1	stimuli\waffle_iron\waffle_iron_09s.jpg	8	-1	1	0	waffle_iron_09s.jpg	0	0	0	93.8585905279033	93.9085626848682	0.049972156964941
99124	50	602	0	0	cashew	281	293	1	stimuli\cashew\cashew_03s.jpg	2	-1	1	0	cashew_03s.jpg	0	0	0	93.9585872608586	94.0085640501929	0.0499767893343233
99224	50	603	0	0	shell3	1419	294	1	stimuli\shell3\shell3_12s.jpg	11	-1	1	0	shell3_12s.jpg	0	0	0	94.0585825309536	94.1085710231418	0.0499884921882767
99324	50	604	0	0	coleslaw	386	295	1	stimuli\coleslaw\coleslaw_06s.jpg	5	-1	1	0	coleslaw_06s.jpg	0	0	0	94.1585880410421	94.2085723884811	0.0499843474390218
99424	50	605	0	0	torch	1683	296	1	stimuli\torch\torch_07s.jpg	6	-1	1	0	torch_07s.jpg	0	0	0	94.2585881873238	94.3085691214364	0.049980934112682
99524	50	606	0	0	silicone	1444	297	1	stimuli\silicone\silicone_02s.jpg	1	-1	1	0	silicone_02s.jpg	0	0	0	94.3585932098067	94.4085763381881	0.0499831283814274
99624	50	607	0	0	crab	428	298	1	stimuli\crab\crab_08s.jpg	7	-1	1	0	crab_08s.jpg	0	0	0	94.4585982322751	94.508576240667	0.0499780083919177
99724	50	608	0	0	washing_machine	1784	299	1	stimuli\washing_machine\washing_machine_12s.jpg	11	-1	1	0	washing_machine_12s.jpg	0	0	0	94.558599353797	94.6085790688521	0.0499797150550876
99824	50	609	0	0	bus	226	300	1	stimuli\bus\bus_07n.jpg	6	-1	1	0	bus_07n.jpg	0	0	0	94.6586021819967	94.7085826284747	0.0499804464780027
99924	50	610	0	0	fly	621	301	1	stimuli\fly\fly_07s.jpg	6	-1	1	0	fly_07s.jpg	0	0	0	94.7586033035186	94.8085820433334	0.0499787398148328
100024	50	611	0	0	sandpaper	1356	302	1	stimuli\sandpaper\sandpaper_08s.jpg	7	-1	1	0	sandpaper_08s.jpg	0	0	0	94.8585961355129	94.9085919419886	0.0499958064756356
100124	50	612	0	0	mango	966	303	1	stimuli\mango\mango_04s.jpg	3	-1	1	0	mango_04s.jpg	0	0	0	94.958614567513	95.0085908692272	0.0499763017141959
100224	50	613	0	0	vacuum	1750	304	1	stimuli\vacuum\vacuum_03s.jpg	2	-1	1	0	vacuum_03s.jpg	0	0	0	95.0586152014148	95.1085846764763	0.0499694750615163
100324	50	614	0	0	game	654	305	1	stimuli\game\game_09s.jpg	8	-1	1	0	game_09s.jpg	0	0	0	95.1586155915138	95.2085967694147	0.0499811779009178
100424	50	615	0	0	trolley	1715	306	1	stimuli\trolley\trolley_12s.jpg	11	-1	1	0	trolley_12s.jpg	0	0	0	95.2585981835146	95.3085720471427	0.0499738636281108
100524	50	616	0	0	smoothie	1474	307	1	stimuli\smoothie\smoothie_06s.jpg	5	-1	1	0	smoothie_06s.jpg	0	0	0	95.3586090574099	95.4085734124819	0.0499643550720066
100624	50	617	0	0	giraffe	675	308	1	stimuli\giraffe\giraffe_12s.jpg	11	-1	1	0	giraffe_12s.jpg	0	0	0	95.458597744655	95.5085759968497	0.0499782521947054
104958	50	618	0	0	berry	121	0	2	stimuli\berry\berry_12s.jpg	11	-1	2	0	berry_12s.jpg	0	0	0	99.7920737065142	99.842052446329	0.0499787398148328
105058	50	619	0	0	jar	840	1	2	stimuli\jar\jar_05s.jpg	4	-1	2	0	jar_05s.jpg	0	0	0	99.8920792166027	99.9420564935717	0.0499772769690026
105158	50	620	0	0	lion	933	2	2	stimuli\lion\lion_10s.jpg	9	-1	2	0	lion_10s.jpg	0	0	0	99.9920761933608	100.042054689373	0.0499784960120451
105258	50	621	0	0	road_sign	1315	3	2	stimuli\road_sign\road_sign_09s.jpg	8	-1	2	0	road_sign_09s.jpg	0	0	0	100.092049764426	100.142063125182	0.0500133607565658
105358	50	622	0	0	knot	883	4	2	stimuli\knot\knot_11s.jpg	10	-1	2	0	knot_11s.jpg	0	0	0	100.192079899265	100.24204547338	0.0499655741150491
105458	50	623	0	0	lime	930	5	2	stimuli\lime\lime_10s.jpg	9	-1	2	0	lime_10s.jpg	0	0	0	100.292071268414	100.342063417746	0.0499921493319562
105558	50	624	0	0	frisbee	643	6	2	stimuli\frisbee\frisbee_08s.jpg	7	-1	2	0	frisbee_08s.jpg	0	0	0	100.392083117549	100.442066733565	0.0499836160161067
105658	50	625	0	0	caterpillar	286	7	2	stimuli\caterpillar\caterpillar_05s.jpg	4	-1	2	0	caterpillar_05s.jpg	0	0	0	100.492088871455	100.542051519849	0.0499626483942848
105758	50	626	0	0	pencil	1142	8	2	stimuli\pencil\pencil_10s.jpg	9	-1	2	0	pencil_10s.jpg	0	0	0	100.592090724414	100.642073852796	0.0499831283814274
105858	50	627	0	0	cello	292	9	2	stimuli\cello\cello_11s.jpg	10	-1	2	0	cello_11s.jpg	0	0	0	100.69209550308	100.742075705755	0.049980202675215
105958	50	628	0	0	flagpole	606	10	2	stimuli\flagpole\flagpole_07s.jpg	6	-1	2	0	flagpole_07s.jpg	0	0	0	100.792093698881	100.842080240604	0.0499865417223191
106058	50	629	0	0	baton4	95	11	2	stimuli\baton4\baton4_08s.jpg	7	-1	2	0	baton4_08s.jpg	0	0	0	100.892102622311	100.942079655462	0.0499770331516629
106158	50	630	0	0	hoodie	792	12	2	stimuli\hoodie\hoodie_05s.jpg	4	-1	2	0	hoodie_05s.jpg	0	0	0	100.992101305732	101.042055664613	0.049954358881223
106258	50	631	0	0	blower	145	13	2	stimuli\blower\blower_02s.jpg	1	-1	2	0	blower_02s.jpg	0	0	0	101.092105109172	101.14208458041	0.0499794712377479
106358	50	632	0	0	statue	1543	14	2	stimuli\statue\statue_04s.jpg	3	-1	2	0	statue_04s.jpg	0	0	0	101.192111594501	101.242072292414	0.0499606979137752
106458	50	633	0	0	reindeer	1301	15	2	stimuli\reindeer\reindeer_11s.jpg	10	-1	2	0	reindeer_11s.jpg	0	0	0	101.292107352216	101.34209267488	0.0499853226647247
106558	50	634	0	0	key	869	16	2	stimuli\key\key_06s.jpg	5	-1	2	0	key_06s.jpg	0	0	0	101.392112618501	101.442087213552	0.049974595051026
106658	50	635	0	0	buggy	213	17	2	stimuli\buggy\buggy_05s.jpg	4	-1	2	0	buggy_05s.jpg	0	0	0	101.49211008288	101.542090285555	0.049980202675215
106758	50	636	0	0	chili	327	18	2	stimuli\chili\chili_12s.jpg	11	-1	2	0	chili_12s.jpg	0	0	0	101.592115105348	101.642097989927	0.0499828845786396
106858	50	637	0	0	diamond	484	19	2	stimuli\diamond\diamond_08s.jpg	7	-1	2	0	diamond_08s.jpg	0	0	0	101.692115739264	101.74210252479	0.0499867855251068
106958	50	638	0	0	rake	1281	20	2	stimuli\rake\rake_09s.jpg	8	-1	2	0	rake_09s.jpg	0	0	0	101.792105401735	101.842105109172	0.0499997074366547
107058	50	639	0	0	dumpling	532	21	2	stimuli\dumpling\dumpling_02s.jpg	1	-1	2	0	dumpling_02s.jpg	0	0	0	101.892127003259	101.942108424977	0.0499814217182575
107158	50	640	0	0	scuba	1392	22	2	stimuli\scuba\scuba_05s.jpg	4	-1	2	0	scuba_05s.jpg	0	0	0	101.992130075247	102.042097112222	0.0499670369754313
107258	50	641	0	0	cloud	364	23	2	stimuli\cloud\cloud_11s.jpg	10	-1	2	0	cloud_11s.jpg	0	0	0	102.092131196769	102.142111155641	0.0499799588724272
107358	50	642	0	0	bungee	221	24	2	stimuli\bungee\bungee_06s.jpg	5	-1	2	0	bungee_06s.jpg	0	0	0	102.192134756391	102.242095210502	0.0499604541109875
107458	50	643	0	0	chess_piece	317	25	2	stimuli\chess_piece\chess_piece_03s.jpg	2	-1	2	0	chess_piece_03s.jpg	0	0	0	102.292116616969	102.342113886305	0.0499972693360178
107558	50	644	0	0	biscuit	133	26	2	stimuli\biscuit\biscuit_07s.jpg	6	-1	2	0	biscuit_07s.jpg	0	0	0	102.392136999435	102.442118421168	0.0499814217328094
107658	50	645	0	0	candy_cane	257	27	2	stimuli\candy_cane\candy_cane_07s.jpg	6	-1	2	0	candy_cane_07s.jpg	0	0	0	102.492121541916	102.542123687439	0.0500021455227397
107758	50	646	0	0	sewing_kit	1406	28	2	stimuli\sewing_kit\sewing_kit_05s.jpg	4	-1	2	0	sewing_kit_05s.jpg	0	0	0	102.592139730099	102.642124565158	0.0499848350591492
107858	50	647	0	0	baby	46	29	2	stimuli\baby\baby_12s.jpg	11	-1	2	0	baby_12s.jpg	0	0	0	102.692144264962	102.742106913356	0.0499626483942848
107958	50	648	0	0	slide	1464	30	2	stimuli\slide\slide_11s.jpg	10	-1	2	0	slide_11s.jpg	0	0	0	102.792147824584	102.842134122489	0.0499862979049794
108058	50	649	0	0	bonnet	163	31	2	stimuli\bonnet\bonnet_11s.jpg	10	-1	2	0	bonnet_11s.jpg	0	0	0	102.89215260325	102.942131586868	0.0499789836176205
108158	50	650	0	0	workbench	1835	32	2	stimuli\workbench\workbench_11s.jpg	10	-1	2	0	workbench_11s.jpg	0	0	0	102.992135439054	103.04211905507	0.0499836160161067
108258	50	651	0	0	veil	1755	33	2	stimuli\veil\veil_11s.jpg	10	-1	2	0	veil_11s.jpg	0	0	0	103.092155333914	103.142142607059	0.0499872731452342
108358	50	652	0	0	shark	1409	34	2	stimuli\shark\shark_09s.jpg	8	-1	2	0	shark_09s.jpg	0	0	0	103.192156455436	103.242137145731	0.0499806902953424
108458	50	653	0	0	ironing_board	833	35	2	stimuli\ironing_board\ironing_board_11s.jpg	10	-1	2	0	ironing_board_11s.jpg	0	0	0	103.292161234102	103.342141436777	0.049980202675215
108558	50	654	0	0	polygraph	1217	36	2	stimuli\polygraph\polygraph_07s.jpg	6	-1	2	0	polygraph_07s.jpg	0	0	0	103.392163330864	103.442142802101	0.0499794712377479
108658	50	655	0	0	eggplant	550	37	2	stimuli\eggplant\eggplant_10s.jpg	9	-1	2	0	eggplant_10s.jpg	0	0	0	103.492167134289	103.542146117907	0.0499789836176205
