onset	duration	eventnumber	blocksequencenumber	isteststim	object	objectnumber	presentationnumber	sequencenumber	stim	stimnumber	teststimnumber	withinsequencenumber	istarget	stimname	response	rt	correct	time_stimon	time_stimoff	stimdur
33805	50	0	0	0	parsley	1122	0	0	stimuli\parsley\parsley_10s.jpg	9	-1	0	0	parsley_10s.jpg	1	0	0	212.669169778004	212.71913902089	0.0499692428857088
33905	50	1	0	0	fruitcake	646	1	0	stimuli\fruitcake\fruitcake_04s.jpg	3	-1	0	0	fruitcake_04s.jpg	0	0	0	212.769174093381	212.819127732888	0.0499536395072937
34005	50	2	0	0	caramel	270	2	0	stimuli\caramel\caramel_05s.jpg	4	-1	0	0	caramel_05s.jpg	0	0	0	212.869159635156	212.919134973548	0.0499753383919597
34105	50	3	0	0	pelican	1140	3	0	stimuli\pelican\pelican_05s.jpg	4	-1	0	0	pelican_05s.jpg	0	0	0	212.969156148843	213.01913831383	0.0499821649864316
34205	50	4	0	0	skirt	1457	4	0	stimuli\skirt\skirt_06s.jpg	5	-1	0	0	skirt_06s.jpg	0	0	0	213.069160952233	213.119143361226	0.0499824089929461
34305	50	5	0	0	padlock	1095	5	0	stimuli\padlock\padlock_12s.jpg	11	-1	0	0	padlock_12s.jpg	0	0	0	213.1691625854	213.219599211589	0.050436626188457
34405	50	6	0	0	flower	619	6	0	stimuli\flower\flower_01b.jpg	0	-1	0	0	flower_01b.jpg	0	0	0	213.269167388789	213.319147603586	0.0499802147969604
34505	50	7	0	0	tape_recorder	1624	7	0	stimuli\tape_recorder\tape_recorder_10s.jpg	9	-1	0	0	tape_recorder_10s.jpg	0	0	0	213.369167314842	213.419138508849	0.0499711940065026
34605	50	8	0	0	muff	1034	8	0	stimuli\muff\muff_08s.jpg	7	-1	0	0	muff_08s.jpg	0	0	0	213.469172118232	213.519139410928	0.0499672926962376
34705	50	9	0	0	computer	394	9	0	stimuli\computer\computer_10n.jpg	9	-1	0	0	computer_10n.jpg	0	0	0	213.569175458513	213.619142020121	0.0499665616080165
34805	50	10	0	0	sleeping_bag	1462	10	0	stimuli\sleeping_bag\sleeping_bag_04s.jpg	3	-1	0	0	sleeping_bag_04s.jpg	0	0	0	213.66921536997	213.719143410213	0.0499280402436852
34905	50	11	0	0	stomach	1560	11	0	stimuli\stomach\stomach_11s.jpg	10	-1	0	0	stomach_11s.jpg	0	0	0	213.769180675969	213.819163572975	0.0499828970059752
35005	50	12	0	0	lamppost	892	12	0	stimuli\lamppost\lamppost_09s.jpg	8	-1	0	0	lamppost_09s.jpg	0	0	0	213.86918401625	213.919163255952	0.0499792397022247
35105	50	13	0	0	chopsticks	339	13	0	stimuli\chopsticks\chopsticks_08s.jpg	7	-1	0	0	chopsticks_08s.jpg	0	0	0	213.969172484241	214.019152943045	0.0499804588034749
35205	50	14	0	0	cherry	316	14	0	stimuli\cherry\cherry_06n.jpg	5	-1	0	0	cherry_06n.jpg	0	0	0	214.069187283516	214.119158720598	0.0499714370816946
35305	50	15	0	0	throne	1652	15	0	stimuli\throne\throne_03s.jpg	2	-1	0	0	throne_03s.jpg	0	0	0	214.169191110879	214.219171813689	0.0499807028099895
35405	50	16	0	0	water_filter	1789	16	0	stimuli\water_filter\water_filter_02s.jpg	1	-1	0	0	water_filter_02s.jpg	0	0	0	214.269180553965	214.319173690863	0.0499931368976831
35505	50	17	0	0	sail	1346	17	0	stimuli\sail\sail_10s.jpg	9	-1	0	0	sail_10s.jpg	0	0	0	214.369196816348	214.419175080955	0.0499782646074891
35605	50	18	0	0	bun	220	18	0	stimuli\bun\bun_09s.jpg	8	-1	0	0	bun_09s.jpg	0	0	0	214.469186259434	214.519179152325	0.0499928928911686
35705	50	19	0	0	mixer	1009	19	0	stimuli\mixer\mixer_01b.jpg	0	-1	0	0	mixer_01b.jpg	0	0	0	214.5691995956	214.619170789607	0.0499711940065026
35805	50	20	0	0	roof_rack	1329	20	0	stimuli\roof_rack\roof_rack_06s.jpg	5	-1	0	0	roof_rack_06s.jpg	0	0	0	214.669210493565	214.719175836071	0.0499653425067663
35905	50	21	0	0	crumb	451	21	0	stimuli\crumb\crumb_12s.jpg	11	-1	0	0	crumb_12s.jpg	0	0	0	214.769206763245	214.819175763056	0.0499689998105168
36005	50	22	0	0	crow	446	22	0	stimuli\crow\crow_06s.jpg	5	-1	0	0	crow_06s.jpg	0	0	0	214.869207422249	214.919179103337	0.0499716810882092
36105	50	23	0	0	stool	1561	23	0	stimuli\stool\stool_05s.jpg	4	-1	0	0	stool_05s.jpg	0	0	0	214.969212224707	215.019189270213	0.0499770455062389
36205	50	24	0	0	nail_clippers	1047	24	0	stimuli\nail_clippers\nail_clippers_09s.jpg	8	-1	0	0	nail_clippers_09s.jpg	0	0	0	215.069214345887	215.119200656191	0.0499863103032112
36305	50	25	0	0	peg	1139	25	0	stimuli\peg\peg_10s.jpg	9	-1	0	0	peg_10s.jpg	0	0	0	215.169217686169	215.219195950776	0.0499782646074891
36405	50	26	0	0	typewriter	1741	26	0	stimuli\typewriter\typewriter_08s.jpg	7	-1	0	0	typewriter_08s.jpg	0	0	0	215.269220051356	215.319200266153	0.0499802147969604
36505	50	27	0	0	music_box	1041	27	0	stimuli\music_box\music_box_09s.jpg	8	-1	0	0	music_box_09s.jpg	0	0	0	215.369223635644	215.419205312617	0.0499816769734025
36605	50	28	0	0	chess_piece	317	28	0	stimuli\chess_piece\chess_piece_08s.jpg	7	-1	0	0	chess_piece_08s.jpg	0	0	0	215.469225268811	215.519208165817	0.0499828970059752
36705	50	29	0	0	mango	966	29	0	stimuli\mango\mango_08s.jpg	7	-1	0	0	mango_08s.jpg	0	0	0	215.569229340181	215.619207360782	0.0499780206009746
36805	50	30	0	0	crossbow	444	30	0	stimuli\crossbow\crossbow_11s.jpg	10	-1	0	0	crossbow_11s.jpg	0	0	0	215.669282417744	215.719210213982	0.0499277962371707
36905	50	31	0	0	baklava	57	31	0	stimuli\baklava\baklava_10s.jpg	9	-1	0	0	baklava_10s.jpg	0	0	0	215.769234070554	215.819214041345	0.0499799707904458
37005	50	32	0	0	boa	150	32	0	stimuli\boa\boa_03s.jpg	2	-1	0	0	boa_03s.jpg	0	0	0	215.869236922823	215.919223964214	0.0499870413914323
37105	50	33	0	0	ketchup	867	33	0	stimuli\ketchup\ketchup_09s.jpg	8	-1	0	0	ketchup_09s.jpg	0	0	0	215.969238799997	216.019220233895	0.0499814338982105
37205	50	34	0	0	birdcage	130	34	0	stimuli\birdcage\birdcage_07s.jpg	6	-1	0	0	birdcage_07s.jpg	0	0	0	216.069240921177	216.119223818183	0.0499828970059752
37305	50	35	0	0	card	271	35	0	stimuli\card\card_12s.jpg	11	-1	0	0	card_12s.jpg	0	0	0	216.169242555276	216.219226914458	0.0499843591824174
37405	50	36	0	0	mosquito_net	1021	36	0	stimuli\mosquito_net\mosquito_net_08s.jpg	7	-1	0	0	mosquito_net_08s.jpg	0	0	0	216.269244676456	216.319230010733	0.049985334277153
37505	50	37	0	0	scarecrow	1376	37	0	stimuli\scarecrow\scarecrow_08s.jpg	7	-1	0	0	scarecrow_08s.jpg	0	0	0	216.369248991832	216.419222380035	0.0499733882024884
37605	50	38	0	0	chip	333	38	0	stimuli\chip\chip_11n.jpg	10	-1	0	0	chip_11n.jpg	0	0	0	216.469252575189	216.519224257208	0.0499716820195317
37705	50	39	0	0	cantaloupe	263	39	0	stimuli\cantaloupe\cantaloupe_09s.jpg	8	-1	0	0	cantaloupe_09s.jpg	0	0	0	216.569244700484	216.619235155173	0.0499904546886683
37805	50	40	0	0	beetle	115	40	0	stimuli\beetle\beetle_07n.jpg	6	-1	0	0	beetle_07n.jpg	0	0	0	216.669298265129	216.719235813245	0.0499375481158495
37905	50	41	0	0	shortbread	1429	41	0	stimuli\shortbread\shortbread_09s.jpg	8	-1	0	0	shortbread_09s.jpg	0	0	0	216.769248454832	216.819240860641	0.0499924058094621
38005	50	42	0	0	zucchini	1853	42	0	stimuli\zucchini\zucchini_06n.jpg	5	-1	0	0	zucchini_06n.jpg	0	0	0	216.86928251572	216.919231034815	0.0499485190957785
38105	50	43	0	0	firewood	597	43	0	stimuli\firewood\firewood_06s.jpg	5	-1	0	0	firewood_06s.jpg	0	0	0	216.96926318109	217.019235106185	0.0499719250947237
38205	50	44	0	0	gopher	694	44	0	stimuli\gopher\gopher_02s.jpg	1	-1	0	0	gopher_02s.jpg	0	0	0	217.069267740473	217.119246248156	0.0499785076826811
38305	50	45	0	0	shorts	1430	45	0	stimuli\shorts\shorts_08s.jpg	7	-1	0	0	shorts_08s.jpg	0	0	0	217.169271080755	217.219249101356	0.0499780206009746
38405	50	46	0	0	gondola	691	46	0	stimuli\gondola\gondola_01b.jpg	0	-1	0	0	gondola_01b.jpg	0	0	0	217.269273445942	217.319251953624	0.0499785076826811
38505	50	47	0	0	bread	194	47	0	stimuli\bread\bread_08s.jpg	7	-1	0	0	bread_08s.jpg	0	0	0	217.369275323115	217.419243103825	0.0499677807092667
38605	50	48	0	0	tuba	1723	48	0	stimuli\tuba\tuba_06s.jpg	5	-1	0	0	tuba_06s.jpg	0	0	0	217.469266472384	217.519258390181	0.049991917796433
38705	50	49	0	0	dirt_bike	488	49	0	stimuli\dirt_bike\dirt_bike_04s.jpg	3	-1	0	0	dirt_bike_04s.jpg	0	0	0	217.569284684956	217.619249540381	0.0499648554250598
38805	50	50	0	0	enchilada	556	50	0	stimuli\enchilada\enchilada_04s.jpg	3	-1	0	0	enchilada_04s.jpg	0	0	0	217.669344589114	217.719251904637	0.0499073155224323
38905	50	51	0	0	easel	542	51	0	stimuli\easel\easel_08s.jpg	7	-1	0	0	easel_08s.jpg	0	0	0	217.769284782931	217.819269142114	0.0499843591824174
39005	50	52	0	0	rollerskate	1327	52	0	stimuli\rollerskate\rollerskate_04s.jpg	3	-1	0	0	rollerskate_04s.jpg	0	0	0	217.869286904112	217.919270288199	0.0499833840876818
39105	50	53	0	0	appetizer	29	53	0	stimuli\appetizer\appetizer_10s.jpg	9	-1	0	0	appetizer_10s.jpg	0	0	0	217.969292681664	218.019275334664	0.0499826529994607
39205	50	54	0	0	piecrust	1169	54	0	stimuli\piecrust\piecrust_07s.jpg	6	-1	0	0	piecrust_07s.jpg	0	0	0	218.069298948161	218.119281357154	0.0499824089929461
39305	50	55	0	0	ferris_wheel	579	55	0	stimuli\ferris_wheel\ferris_wheel_12s.jpg	11	-1	0	0	ferris_wheel_12s.jpg	0	0	0	218.169297656044	218.219277138822	0.0499794827774167
39405	50	56	0	0	ready_meal	1292	56	0	stimuli\ready_meal\ready_meal_11s.jpg	10	-1	0	0	ready_meal_11s.jpg	0	0	0	218.269301239401	218.319288037717	0.0499867983162403
39505	50	57	0	0	cassette	283	57	0	stimuli\cassette\cassette_12s.jpg	11	-1	0	0	cassette_12s.jpg	0	0	0	218.369300191291	218.419280894101	0.0499807028099895
39605	50	58	0	0	guillotine	721	58	0	stimuli\guillotine\guillotine_04s.jpg	3	-1	0	0	guillotine_04s.jpg	0	0	0	218.469308163971	218.519285696559	0.0499775325879455
39705	50	59	0	0	router	1336	59	0	stimuli\router\router_07s.jpg	6	-1	0	0	router_07s.jpg	0	0	0	218.569308334962	218.619290011935	0.0499816769734025
39805	50	60	0	0	lantern	895	60	0	stimuli\lantern\lantern_10s.jpg	9	-1	0	0	lantern_10s.jpg	0	0	0	218.669351415709	218.719292133115	0.0499407174065709
39905	50	61	0	0	clock	359	61	0	stimuli\clock\clock_05n.jpg	4	-1	0	0	clock_05n.jpg	0	0	0	218.769312333316	218.819293279201	0.0499809458851814
40005	50	62	0	0	cork	409	62	0	stimuli\cork\cork_05s.jpg	4	-1	0	0	cork_05s.jpg	0	0	0	218.869315429591	218.919296132401	0.0499807028099895
40105	50	63	0	0	icepick	822	63	0	stimuli\icepick\icepick_04s.jpg	3	-1	0	0	icepick_04s.jpg	0	0	0	218.969319013879	219.019299471751	0.0499804578721523
40205	50	64	0	0	tarp	1628	64	0	stimuli\tarp\tarp_09s.jpg	8	-1	0	0	tarp_09s.jpg	0	0	0	219.069319671951	219.11930622533	0.0499865533784032
40305	50	65	0	0	toga	1669	65	0	stimuli\toga\toga_01b.jpg	0	-1	0	0	toga_01b.jpg	0	0	0	219.169320330024	219.21930322703	0.0499828970059752
40405	50	66	0	0	turnstile	1734	66	0	stimuli\turnstile\turnstile_11s.jpg	10	-1	0	0	turnstile_11s.jpg	0	0	0	219.26932659559	219.319305835292	0.0499792397022247
40505	50	67	0	0	sword	1602	67	0	stimuli\sword\sword_01b.jpg	0	-1	0	0	sword_01b.jpg	0	0	0	219.369318720885	219.419295278378	0.0499765574932098
40605	50	68	0	0	puck	1245	68	0	stimuli\puck\puck_11s.jpg	10	-1	0	0	puck_11s.jpg	0	0	0	219.469320842065	219.519302275963	0.0499814338982105
40705	50	69	0	0	eyeliner	567	69	0	stimuli\eyeliner\eyeliner_09s.jpg	8	-1	0	0	eyeliner_09s.jpg	0	0	0	219.569325157441	219.619304153137	0.0499789956957102
40805	50	70	0	0	bag	54	70	0	stimuli\bag\bag_12s.jpg	11	-1	0	1	bag_12s.jpg	0	0	0	219.669325328432	219.719310419634	0.049985091201961
40905	50	71	0	0	handprint	750	71	0	stimuli\handprint\handprint_04s.jpg	3	-1	0	0	handprint_04s.jpg	0	0	0	219.769328424707	219.819308639504	0.0499802147969604
41005	50	72	0	0	brick	199	72	0	stimuli\brick\brick_01b.jpg	0	-1	0	0	brick_01b.jpg	0	0	0	219.869342979975	219.919311979786	0.0499689998105168
41105	50	73	0	0	fire_alarm	591	73	0	stimuli\fire_alarm\fire_alarm_12s.jpg	11	-1	0	0	fire_alarm_12s.jpg	1	0.351125899702311	1	219.969334861264	220.019312637858	0.04997777659446
41205	50	74	0	0	piggy_bank	1172	74	0	stimuli\piggy_bank\piggy_bank_03s.jpg	2	-1	0	0	piggy_bank_03s.jpg	0	0	0	220.069338201545	220.119316953234	0.0499787516891956
41305	50	75	0	0	firetruck	596	75	0	stimuli\firetruck\firetruck_12s.jpg	11	-1	0	0	firetruck_12s.jpg	0	0	0	220.169339103624	220.219331508502	0.0499924048781395
41405	50	76	0	0	pocketknife	1207	76	0	stimuli\pocketknife\pocketknife_11s.jpg	10	-1	0	0	pocketknife_11s.jpg	0	0	0	220.269341224805	220.31932217069	0.0499809458851814
41505	50	77	0	0	monkey	1017	77	0	stimuli\monkey\monkey_08s.jpg	7	-1	0	0	monkey_08s.jpg	0	0	0	220.369343345985	220.419325266965	0.049981920979917
41605	50	78	0	0	shopping_basket	1427	78	0	stimuli\shopping_basket\shopping_basket_06s.jpg	5	-1	0	0	shopping_basket_06s.jpg	0	0	0	220.469352780841	220.519326169044	0.0499733882024884
41705	50	79	0	0	cake_mix	238	79	0	stimuli\cake_mix\cake_mix_04s.jpg	3	-1	0	0	cake_mix_04s.jpg	0	0	0	220.569350026548	220.619333654642	0.0499836280941963
41805	50	80	0	0	sweeper	1594	80	0	stimuli\sweeper\sweeper_02s.jpg	1	-1	0	0	sweeper_02s.jpg	0	0	0	220.669353365898	220.719334799796	0.0499814338982105
41905	50	81	0	0	cactus	235	81	0	stimuli\cactus\cactus_06s.jpg	5	-1	0	0	cactus_06s.jpg	0	0	0	220.769353536889	220.819333995692	0.0499804588034749
42005	50	82	0	0	curb	462	82	0	stimuli\curb\curb_07s.jpg	6	-1	0	0	curb_07s.jpg	0	0	0	220.869357852265	220.919337823056	0.0499799707904458
42105	50	83	0	0	chair	300	83	0	stimuli\chair\chair_02s.jpg	1	-1	0	0	chair_02s.jpg	0	0	0	220.969361436553	221.019340432249	0.0499789956957102
42205	50	84	0	0	giraffe	675	84	0	stimuli\giraffe\giraffe_02s.jpg	1	-1	0	0	giraffe_02s.jpg	0	0	0	221.069362825714	221.119344016537	0.0499811908230186
42305	50	85	0	0	wine_bottle	1824	85	0	stimuli\wine_bottle\wine_bottle_11s.jpg	10	-1	0	0	wine_bottle_11s.jpg	0	0	0	221.169364459813	221.219346137717	0.0499816779047251
42405	50	86	0	0	yogurt	1848	86	0	stimuli\yogurt\yogurt_10s.jpg	9	-1	0	0	yogurt_10s.jpg	0	0	0	221.269367312081	221.319348258898	0.049980946816504
42505	50	87	0	0	sarcophagus	1358	87	0	stimuli\sarcophagus\sarcophagus_07s.jpg	6	-1	0	0	sarcophagus_07s.jpg	0	0	0	221.369369433261	221.419350380078	0.049980946816504
42605	50	88	0	0	gallows	653	88	0	stimuli\gallows\gallows_01b.jpg	0	-1	0	0	gallows_01b.jpg	0	0	0	221.469374236651	221.519353232346	0.0499789956957102
42705	50	89	0	0	swizzle_stick	1601	89	0	stimuli\swizzle_stick\swizzle_stick_06s.jpg	5	-1	0	0	swizzle_stick_06s.jpg	0	0	0	221.569376844913	221.619354378432	0.049977533519268
42805	50	90	0	0	knitting_needle	881	90	0	stimuli\knitting_needle\knitting_needle_01b.jpg	0	-1	0	0	knitting_needle_01b.jpg	0	0	0	221.66937725991	221.71938965749	0.0500123975798488
42905	50	91	0	0	bush	227	91	0	stimuli\bush\bush_11s.jpg	10	-1	0	0	bush_11s.jpg	0	0	0	221.76938133128	221.819361546077	0.0499802147969604
43005	50	92	0	0	sunflower	1584	92	0	stimuli\sunflower\sunflower_04s.jpg	3	-1	0	0	sunflower_04s.jpg	0	0	0	221.869383208454	221.919365130365	0.0499819219112396
43105	50	93	0	0	anchor	21	93	0	stimuli\anchor\anchor_05s.jpg	4	-1	0	0	anchor_05s.jpg	0	0	0	221.969387036748	222.01937334612	0.0499863093718886
43205	50	94	0	0	switch	1600	94	0	stimuli\switch\switch_01b.jpg	0	-1	0	1	switch_01b.jpg	0	0	0	222.069389401004	222.119368884712	0.0499794837087393
43305	50	95	0	0	hard_disk	752	95	0	stimuli\hard_disk\hard_disk_06s.jpg	5	-1	0	0	hard_disk_06s.jpg	0	0	0	222.169392497279	222.219373931177	0.0499814338982105
43405	50	96	0	0	kazoo	864	96	0	stimuli\kazoo\kazoo_08s.jpg	7	-1	0	0	kazoo_08s.jpg	0	0	0	222.269393156283	222.319375077263	0.049981920979917
43505	50	97	0	0	jumpsuit	859	97	0	stimuli\jumpsuit\jumpsuit_06s.jpg	5	-1	0	0	jumpsuit_06s.jpg	0	0	0	222.369396008551	222.419376223348	0.0499802147969604
43605	50	98	0	0	fungus	648	98	0	stimuli\fungus\fungus_02s.jpg	1	-1	0	0	fungus_02s.jpg	0	0	0	222.469414465129	222.519379075617	0.0499646104872227
43705	50	99	0	0	abacus	1	99	0	stimuli\abacus\abacus_01b.jpg	0	-1	0	0	abacus_01b.jpg	1	0.49218602757901	1	222.569414148107	222.619381440803	0.0499672926962376
43805	50	100	0	0	telegraph	1638	100	0	stimuli\telegraph\telegraph_05s.jpg	4	-1	0	0	telegraph_05s.jpg	0	0	0	222.669404078275	222.719386000186	0.0499819219112396
43905	50	101	0	0	pizza	1192	101	0	stimuli\pizza\pizza_01b.jpg	0	-1	0	0	pizza_01b.jpg	0	0	0	222.769413514063	222.819387390278	0.0499738762155175
44005	50	102	0	0	seaweed	1400	102	0	stimuli\seaweed\seaweed_05s.jpg	4	-1	0	0	seaweed_05s.jpg	0	0	0	222.869409052655	222.919392436743	0.0499833840876818
44105	50	103	0	0	ribbon	1308	103	0	stimuli\ribbon\ribbon_02s.jpg	1	-1	0	0	ribbon_02s.jpg	0	0	0	222.969414343126	223.019393338822	0.0499789956957102
44205	50	104	0	0	inkwell	830	104	0	stimuli\inkwell\inkwell_02s.jpg	1	-1	0	0	inkwell_02s.jpg	0	0	0	223.069425729103	223.119400092401	0.049974363297224
44305	50	105	0	0	mallet	962	105	0	stimuli\mallet\mallet_12s.jpg	11	-1	0	0	mallet_12s.jpg	0	0	0	223.169418585487	223.219397581182	0.0499789956957102
44405	50	106	0	0	kiwi	876	106	0	stimuli\kiwi\kiwi_10s.jpg	9	-1	0	0	kiwi_10s.jpg	0	0	0	223.26942046266	223.319402140565	0.0499816779047251
44505	50	107	0	0	praying_mantis	1238	107	0	stimuli\praying_mantis\praying_mantis_01b.jpg	0	-1	0	0	praying_mantis_01b.jpg	0	0	0	223.369424046949	223.419404748827	0.0499807018786669
44605	50	108	0	0	duffel_bag	529	108	0	stimuli\duffel_bag\duffel_bag_11s.jpg	10	-1	0	0	duffel_bag_11s.jpg	0	0	0	223.469424705021	223.519409064204	0.0499843591824174
44705	50	109	0	0	wine_cooler	1825	109	0	stimuli\wine_cooler\wine_cooler_04s.jpg	3	-1	0	0	wine_cooler_04s.jpg	0	0	0	223.569439991377	223.619407285005	0.0499672936275601
44805	50	110	0	0	straw2	1569	110	0	stimuli\straw2\straw2_12s.jpg	11	-1	0	0	straw2_12s.jpg	0	0	0	223.669433091767	223.71941038128	0.0499772895127535
44905	50	111	0	0	harp	755	111	0	stimuli\harp\harp_04s.jpg	3	-1	0	0	harp_04s.jpg	0	0	0	223.76943765115	223.81941445265	0.0499768014997244
45005	50	112	0	0	yacht	1844	112	0	stimuli\yacht\yacht_05s.jpg	4	-1	0	0	yacht_05s.jpg	0	0	0	223.869438309222	223.919417304918	0.0499789956957102
45105	50	113	0	0	maggot	955	113	0	stimuli\maggot\maggot_09s.jpg	8	-1	0	0	maggot_09s.jpg	0	0	0	223.969438236207	224.01941869501	0.0499804588034749
45205	50	114	0	0	periscope	1155	114	0	stimuli\periscope\periscope_06s.jpg	5	-1	0	0	periscope_06s.jpg	0	0	0	224.069440357387	224.119422279298	0.0499819219112396
45305	50	115	0	0	slime	1465	115	0	stimuli\slime\slime_10s.jpg	9	-1	0	0	slime_10s.jpg	0	0	0	224.169445404783	224.219425375573	0.0499799707904458
45405	50	116	0	0	cuckoo_clock	456	116	0	stimuli\cuckoo_clock\cuckoo_clock_03s.jpg	2	-1	0	0	cuckoo_clock_03s.jpg	0	0	0	224.269449476153	224.31942774076	0.0499782646074891
45505	50	117	0	0	trailer	1697	117	0	stimuli\trailer\trailer_01b.jpg	0	-1	0	0	trailer_01b.jpg	0	0	0	224.369450622238	224.41942986194	0.0499792397022247
45605	50	118	0	0	record_player	1296	118	0	stimuli\record_player\record_player_09s.jpg	8	-1	0	0	record_player_09s.jpg	0	0	0	224.469452986494	224.519435396418	0.0499824099242687
45705	50	119	0	0	webcam	1799	119	0	stimuli\webcam\webcam_04s.jpg	3	-1	0	0	webcam_04s.jpg	0	0	0	224.569455595687	224.619436054491	0.0499804588034749
45805	50	120	0	0	chisel	336	120	0	stimuli\chisel\chisel_12s.jpg	11	-1	0	0	chisel_12s.jpg	0	0	0	224.669468444772	224.719442808069	0.049974363297224
45905	50	121	0	0	turtleneck	1737	121	0	stimuli\turtleneck\turtleneck_12s.jpg	11	-1	0	0	turtleneck_12s.jpg	0	0	0	224.769458618946	224.819441759028	0.0499831400811672
46005	50	122	0	0	undershirt	1744	122	0	stimuli\undershirt\undershirt_06s.jpg	5	-1	0	0	undershirt_06s.jpg	0	0	0	224.869464153424	224.919442418031	0.0499782646074891
46105	50	123	0	0	chickpea	325	123	0	stimuli\chickpea\chickpea_07s.jpg	6	-1	0	0	chickpea_07s.jpg	0	0	0	224.969468224794	225.019447708502	0.0499794837087393
46205	50	124	0	0	washing_machine	1784	124	0	stimuli\washing_machine\washing_machine_05s.jpg	4	-1	0	0	washing_machine_05s.jpg	0	0	0	225.06946742069	225.119450804777	0.0499833840876818
46305	50	125	0	0	towel_rack	1693	125	0	stimuli\towel_rack\towel_rack_01b.jpg	0	-1	0	0	towel_rack_01b.jpg	0	0	0	225.169471980073	225.219451950863	0.0499799707904458
46405	50	126	0	0	rubber_band	1337	126	0	stimuli\rubber_band\rubber_band_10s.jpg	9	-1	0	0	rubber_band_10s.jpg	0	0	0	225.26947361324	225.319454559125	0.0499809458851814
46505	50	127	0	0	pita	1189	127	0	stimuli\pita\pita_01b.jpg	0	-1	0	0	pita_01b.jpg	0	0	0	225.369478416629	225.419456436299	0.049978019669652
46605	50	128	0	0	tile	1660	128	0	stimuli\tile\tile_02s.jpg	1	-1	0	0	tile_02s.jpg	0	0	0	225.469479318708	225.519458557479	0.0499792387709022
46705	50	129	0	0	space_shuttle	1501	129	0	stimuli\space_shuttle\space_shuttle_02s.jpg	1	-1	0	0	space_shuttle_02s.jpg	0	0	0	225.569484121166	225.619464091957	0.0499799707904458
46805	50	130	0	0	shirt	1422	130	0	stimuli\shirt\shirt_07s.jpg	6	-1	0	0	shirt_07s.jpg	0	0	0	225.669484779239	225.719464506954	0.0499797277152538
46905	50	131	0	0	lamb_chop	890	131	0	stimuli\lamb_chop\lamb_chop_02s.jpg	1	-1	0	0	lamb_chop_02s.jpg	0	0	0	225.769493483938	225.819466384128	0.0499729001894593
47005	50	132	0	0	piano	1165	132	0	stimuli\piano\piano_05n.jpg	4	-1	0	0	piano_05n.jpg	0	0	0	225.869503406808	225.919472162612	0.0499687558040023
47105	50	133	0	0	orangutan	1080	133	0	stimuli\orangutan\orangutan_12s.jpg	11	-1	0	0	orangutan_12s.jpg	0	0	0	225.969492849894	226.019472576678	0.0499797267839313
47205	50	134	0	0	patch	1125	134	0	stimuli\patch\patch_04s.jpg	3	-1	0	0	patch_04s.jpg	0	0	0	226.069495215081	226.119475916959	0.0499807018786669
47305	50	135	0	0	hot-water_bottle	802	135	0	stimuli\hot-water_bottle\hot-water_bottle_09s.jpg	8	-1	0	0	hot-water_bottle_09s.jpg	0	0	0	226.169497092254	226.219478770159	0.0499816779047251
47405	50	136	0	0	pine_needle	1180	136	0	stimuli\pine_needle\pine_needle_02s.jpg	1	-1	0	0	pine_needle_02s.jpg	0	0	0	226.269500919618	226.319483085535	0.0499821659177542
47505	50	137	0	0	knife	879	137	0	stimuli\knife\knife_07s.jpg	6	-1	0	0	knife_07s.jpg	0	0	0	226.369504015893	226.41948423069	0.0499802147969604
47605	50	138	0	0	streetlight	1571	138	0	stimuli\streetlight\streetlight_07s.jpg	6	-1	0	0	streetlight_07s.jpg	0	0	0	226.469505405985	226.519488302991	0.0499828970059752
47705	50	139	0	0	rust	1342	139	0	stimuli\rust\rust_08s.jpg	7	-1	0	0	rust_08s.jpg	0	0	0	226.569509965368	226.619490180165	0.0499802147969604
47805	50	140	0	0	slingshot	1467	140	0	stimuli\slingshot\slingshot_07s.jpg	6	-1	0	0	slingshot_07s.jpg	0	0	0	226.669511111453	226.71949327644	0.0499821649864316
47905	50	141	0	0	anteater	25	141	0	stimuli\anteater\anteater_06s.jpg	5	-1	0	0	anteater_06s.jpg	0	0	0	226.769514450803	226.819496128708	0.0499816779047251
48005	50	142	0	0	lime	930	142	0	stimuli\lime\lime_07s.jpg	6	-1	0	0	lime_07s.jpg	0	0	0	226.869522423483	226.919499224983	0.0499768014997244
48105	50	143	0	0	ostrich	1084	143	0	stimuli\ostrich\ostrich_09s.jpg	8	-1	0	0	ostrich_09s.jpg	0	0	0	226.969520156272	227.019500371069	0.0499802147969604
48205	50	144	0	0	fish	600	144	0	stimuli\fish\fish_04s.jpg	3	-1	0	0	fish_04s.jpg	0	0	0	227.069526665844	227.119503223337	0.0499765574932098
48305	50	145	0	0	basketball_hoop	84	145	0	stimuli\basketball_hoop\basketball_hoop_01b.jpg	0	-1	0	0	basketball_hoop_01b.jpg	0	0	0	227.169524886645	227.219503394328	0.0499785076826811
48405	50	146	0	0	remote_control	1302	146	0	stimuli\remote_control\remote_control_05s.jpg	4	-1	0	0	remote_control_05s.jpg	0	0	0	227.269526519813	227.319508928806	0.0499824089929461
48505	50	147	0	0	brass_knuckles	193	147	0	stimuli\brass_knuckles\brass_knuckles_06s.jpg	5	-1	0	0	brass_knuckles_06s.jpg	0	0	0	227.369530835189	227.419509099796	0.0499782646074891
48605	50	148	0	0	bagel	55	148	0	stimuli\bagel\bagel_06s.jpg	5	-1	0	0	bagel_06s.jpg	0	0	0	227.469534906559	227.519514390267	0.0499794837087393
48705	50	149	0	0	bagpipe	56	149	0	stimuli\bagpipe\bagpipe_10s.jpg	9	-1	0	0	bagpipe_10s.jpg	0	0	0	227.569537027739	227.619518705644	0.0499816779047251
48805	50	150	0	0	spool	1518	150	0	stimuli\spool\spool_04s.jpg	3	-1	0	0	spool_04s.jpg	0	0	0	227.669536710717	227.719519363716	0.0499826529994607
48905	50	151	0	0	air_mattress	5	151	0	stimuli\air_mattress\air_mattress_08s.jpg	7	-1	0	0	air_mattress_08s.jpg	0	0	0	227.769542245194	227.819519534707	0.0499772895127535
49005	50	152	0	0	seahorse	1396	152	0	stimuli\seahorse\seahorse_01b.jpg	0	-1	0	0	seahorse_01b.jpg	0	0	0	227.869544366375	227.919524581172	0.0499802147969604
49105	50	153	0	0	roadsweeper	1316	153	0	stimuli\roadsweeper\roadsweeper_08s.jpg	7	-1	0	0	roadsweeper_08s.jpg	0	0	0	227.969545756467	228.019524996169	0.0499792397022247
49205	50	154	0	0	gold	687	154	0	stimuli\gold\gold_03s.jpg	2	-1	0	0	gold_03s.jpg	0	0	0	228.069548364729	228.119529555552	0.0499811908230186
49305	50	155	0	0	harmonica	753	155	0	stimuli\harmonica\harmonica_07s.jpg	6	-1	0	0	harmonica_07s.jpg	0	0	0	228.169549510814	228.219532163814	0.0499826529994607
49405	50	156	0	0	brace	186	156	0	stimuli\brace\brace_05s.jpg	4	-1	0	1	brace_05s.jpg	0	0	0	228.269553583115	228.319534773007	0.049981189891696
49505	50	157	0	0	wedge	1801	157	0	stimuli\wedge\wedge_07s.jpg	6	-1	0	0	wedge_07s.jpg	0	0	0	228.36955667939	228.419536162168	0.0499794827774167
49605	50	158	0	0	thumb	1653	158	0	stimuli\thumb\thumb_06s.jpg	5	-1	0	0	thumb_06s.jpg	0	0	0	228.469560019672	228.519539258443	0.0499792387709022
49705	50	159	0	0	pot	1230	159	0	stimuli\pot\pot_11s.jpg	10	-1	0	0	pot_11s.jpg	1	0.359912550076842	1	228.569564091042	228.619542111643	0.0499780206009746
49805	50	160	0	0	leotard	918	160	0	stimuli\leotard\leotard_06s.jpg	5	-1	0	0	leotard_06s.jpg	0	0	0	228.669565237127	228.719544476829	0.0499792397022247
49905	50	161	0	0	mustard	1044	161	0	stimuli\mustard\mustard_03s.jpg	2	-1	0	0	mustard_03s.jpg	0	0	0	228.769568089396	228.819546109997	0.0499780206009746
50005	50	162	0	0	lasagna	898	162	0	stimuli\lasagna\lasagna_10s.jpg	9	-1	0	0	lasagna_10s.jpg	0	0	0	228.869570210576	228.919556276873	0.0499860662966967
50105	50	163	0	0	breakfast	197	163	0	stimuli\breakfast\breakfast_05s.jpg	4	-1	0	0	breakfast_05s.jpg	0	0	0	228.969572331756	229.019553521648	0.049981189891696
50205	50	164	0	0	licorice	922	164	0	stimuli\licorice\licorice_11s.jpg	10	-1	0	0	licorice_11s.jpg	0	0	0	229.06957615912	229.119554667734	0.0499785086140037
50305	50	165	0	0	plate	1197	165	0	stimuli\plate\plate_01b.jpg	0	-1	0	0	plate_01b.jpg	0	0	0	229.16957633011	229.219558252022	0.0499819219112396
50405	50	166	0	0	bow3	176	166	0	stimuli\bow3\bow3_06s.jpg	5	-1	0	0	bow3_06s.jpg	0	0	0	229.26958040148	229.319559641182	0.0499792397022247
50505	50	167	0	0	meat_grinder	988	167	0	stimuli\meat_grinder\meat_grinder_10s.jpg	9	-1	0	0	meat_grinder_10s.jpg	0	0	0	229.36958447285	229.41956517566	0.0499807028099895
50605	50	168	0	0	chili	327	168	0	stimuli\chili\chili_02s.jpg	1	-1	0	0	chili_02s.jpg	0	0	0	229.469586106949	229.51956729684	0.049981189891696
50705	50	169	0	0	cross	443	169	0	stimuli\cross\cross_01b.jpg	0	-1	0	0	cross_01b.jpg	0	0	0	229.569590910338	229.619571125135	0.0499802147969604
50805	50	170	0	0	sweater	1592	170	0	stimuli\sweater\sweater_02s.jpg	1	-1	0	0	sweater_02s.jpg	0	0	0	229.669592787512	229.719572758302	0.0499799707904458
50905	50	171	0	0	blowgun	147	171	0	stimuli\blowgun\blowgun_03s.jpg	2	-1	0	0	blowgun_03s.jpg	0	0	0	229.769595151767	229.819572929293	0.0499777775257826
51005	50	172	0	0	seafood	1394	172	0	stimuli\seafood\seafood_12s.jpg	11	-1	0	0	seafood_12s.jpg	0	0	0	229.869596297853	229.919590653852	0.0499943559989333
51105	50	173	0	0	powder	1236	173	0	stimuli\powder\powder_10s.jpg	9	-1	0	0	powder_10s.jpg	0	0	0	229.969601101242	230.019580096938	0.0499789956957102
51205	50	174	0	0	skeleton	1450	174	0	stimuli\skeleton\skeleton_05s.jpg	4	-1	0	0	skeleton_05s.jpg	0	0	0	230.069606391713	230.119583681226	0.0499772895127535
51305	50	175	0	0	copier	405	175	0	stimuli\copier\copier_06n.jpg	5	-1	0	0	copier_06n.jpg	0	0	0	230.16960485559	230.219585070387	0.0499802147969604
51405	50	176	0	0	doghouse	497	176	0	stimuli\doghouse\doghouse_08s.jpg	7	-1	0	0	doghouse_08s.jpg	0	0	0	230.269606489688	230.319589142688	0.0499826529994607
51505	50	177	0	0	guinea_pig	722	177	0	stimuli\guinea_pig\guinea_pig_06s.jpg	5	-1	0	0	guinea_pig_06s.jpg	0	0	0	230.369610073045	230.41958980076	0.0499797277152538
51605	50	178	0	0	banana_split	65	178	0	stimuli\banana_split\banana_split_01b.jpg	0	-1	0	0	banana_split_01b.jpg	0	0	0	230.469614388421	230.519592165947	0.0499777775257826
51705	50	179	0	0	hovercraft	808	179	0	stimuli\hovercraft\hovercraft_01b.jpg	0	-1	0	0	hovercraft_01b.jpg	0	0	0	230.5696152905	230.619594043121	0.0499787526205182
51805	50	180	0	0	palm_tree	1102	180	0	stimuli\palm_tree\palm_tree_12s.jpg	11	-1	0	0	palm_tree_12s.jpg	0	0	0	230.669617411681	230.719604453072	0.0499870413914323
51905	50	181	0	0	keyhole	871	181	0	stimuli\keyhole\keyhole_04s.jpg	3	-1	0	0	keyhole_04s.jpg	0	0	0	230.769619288854	230.819600966759	0.0499816779047251
52006	50	182	0	0	bark	74	182	0	stimuli\bark\bark_05s.jpg	4	-1	0	0	bark_05s.jpg	0	0	0	230.869645791128	230.919604063034	0.0499582719057798
52105	50	183	0	0	engine	557	183	0	stimuli\engine\engine_05s.jpg	4	-1	0	0	engine_05s.jpg	0	0	0	230.969624750316	231.019606672227	0.0499819219112396
52205	50	184	0	0	puppy	1258	184	0	stimuli\puppy\puppy_09s.jpg	8	-1	0	0	puppy_09s.jpg	0	0	0	231.069639062509	231.119610012509	0.0499709499999881
52305	50	185	0	0	arugula	40	185	0	stimuli\arugula\arugula_02s.jpg	1	-1	0	0	arugula_02s.jpg	0	0	0	231.169630211778	231.219610914588	0.0499807028099895
52405	50	186	0	0	stalagmite	1534	186	0	stimuli\stalagmite\stalagmite_06s.jpg	5	-1	0	0	stalagmite_06s.jpg	0	0	0	231.269634040073	231.319614741951	0.0499807018786669
52505	50	187	0	0	frisbee	643	187	0	stimuli\frisbee\frisbee_06s.jpg	5	-1	0	0	frisbee_06s.jpg	0	0	0	231.369636404328	231.419620033354	0.0499836290255189
52605	50	188	0	0	humvee	813	188	0	stimuli\humvee\humvee_12s.jpg	11	-1	0	0	humvee_12s.jpg	0	0	0	231.469640476629	231.519620691426	0.0499802147969604
52706	50	189	0	0	sauerkraut	1364	189	0	stimuli\sauerkraut\sauerkraut_11s.jpg	10	-1	0	0	sauerkraut_11s.jpg	0	0	0	231.569643084891	231.6196225686	0.0499794837087393
52805	50	190	0	0	vending_machine	1757	190	0	stimuli\vending_machine\vending_machine_03s.jpg	2	-1	0	0	vending_machine_03s.jpg	0	0	0	231.66964398697	231.719629078172	0.049985091201961
52906	50	191	0	0	tortilla	1687	191	0	stimuli\tortilla\tortilla_06s.jpg	5	-1	0	0	tortilla_06s.jpg	0	0	0	231.769646596164	231.81962876115	0.0499821649864316
53006	50	192	0	0	shell2	1418	192	0	stimuli\shell2\shell2_12s.jpg	11	-1	0	0	shell2_12s.jpg	1	0	0	231.869648473337	231.919631126337	0.0499826529994607
53106	50	193	0	0	dandelion	472	193	0	stimuli\dandelion\dandelion_07s.jpg	6	-1	0	0	dandelion_07s.jpg	0	0	0	231.969652300701	232.019633003511	0.0499807028099895
53206	50	194	0	0	lunchbox	950	194	0	stimuli\lunchbox\lunchbox_01b.jpg	0	-1	0	0	lunchbox_01b.jpg	0	0	0	232.069655884989	232.119637318887	0.0499814338982105
53306	50	195	0	0	furnace	651	195	0	stimuli\furnace\furnace_03s.jpg	2	-1	0	0	furnace_03s.jpg	0	0	0	232.169658006169	232.219640415162	0.0499824089929461
53406	50	196	0	0	string_cheese	1573	196	0	stimuli\string_cheese\string_cheese_05s.jpg	4	-1	0	0	string_cheese_05s.jpg	0	0	0	232.26966134645	232.319640830159	0.0499794837087393
53506	50	197	0	0	candy	255	197	0	stimuli\candy\candy_10s.jpg	9	-1	0	0	candy_10s.jpg	0	0	0	232.369663467631	232.419644170441	0.0499807028099895
53606	50	198	0	0	rose	1334	198	0	stimuli\rose\rose_01b.jpg	0	-1	0	0	rose_01b.jpg	0	0	0	232.469665344805	232.519646534696	0.049981189891696
53706	50	199	0	0	bazooka	98	199	0	stimuli\bazooka\bazooka_08s.jpg	7	-1	0	0	bazooka_08s.jpg	0	0	0	232.569671123289	232.619647436775	0.0499763134866953
53806	50	200	0	0	block	143	200	0	stimuli\block\block_05s.jpg	4	-1	0	0	block_05s.jpg	0	0	0	232.669670806266	232.71965126507	0.0499804588034749
53906	50	201	0	0	compost	393	201	0	stimuli\compost\compost_11s.jpg	10	-1	0	0	compost_11s.jpg	0	0	0	232.76967463363	232.819654361345	0.0499797277152538
54006	50	202	0	0	car_door	268	202	0	stimuli\car_door\car_door_02s.jpg	1	-1	0	0	car_door_02s.jpg	0	0	0	232.869679437019	232.919656482525	0.0499770455062389
54106	50	203	0	0	cranberry	430	203	0	stimuli\cranberry\cranberry_10s.jpg	9	-1	0	0	cranberry_10s.jpg	0	0	0	232.969678144902	233.019658847712	0.0499807028099895
54206	50	204	0	0	plant	1194	204	0	stimuli\plant\plant_03s.jpg	2	-1	0	0	plant_03s.jpg	0	0	0	233.069682216272	233.119662187994	0.0499799717217684
54306	50	205	0	0	bullet	216	205	0	stimuli\bullet\bullet_08n.jpg	7	-1	0	0	bullet_08n.jpg	0	0	0	233.169685312547	233.219666015357	0.0499807028099895
54406	50	206	0	0	carrot	277	206	0	stimuli\carrot\carrot_11s.jpg	10	-1	0	0	carrot_11s.jpg	0	0	0	233.269687433727	233.319670330733	0.0499828970059752
54506	50	207	0	0	dice	486	207	0	stimuli\dice\dice_03s.jpg	2	-1	0	0	dice_03s.jpg	0	0	0	233.369690774009	233.419671720825	0.049980946816504
54606	50	208	0	0	earplug	539	208	0	stimuli\earplug\earplug_10s.jpg	9	-1	0	0	earplug_10s.jpg	0	0	0	233.469693139195	233.519674085081	0.0499809458851814
54706	50	209	0	0	garter	659	209	0	stimuli\garter\garter_12s.jpg	11	-1	0	0	garter_12s.jpg	0	0	0	233.569694529288	233.61967498716	0.0499804578721523
54806	50	210	0	0	contact_lens	397	210	0	stimuli\contact_lens\contact_lens_09s.jpg	8	-1	0	0	contact_lens_09s.jpg	0	0	0	233.669712741859	233.719679059461	0.0499663176015019
54906	50	211	0	0	car_seat	269	211	0	stimuli\car_seat\car_seat_12s.jpg	11	-1	0	0	car_seat_12s.jpg	0	0	0	233.769699746743	233.819680936635	0.049981189891696
55006	50	212	0	0	pet_food	1157	212	0	stimuli\pet_food\pet_food_06s.jpg	5	-1	0	0	pet_food_06s.jpg	0	0	0	233.869701135904	233.919690615498	0.0499894795939326
55106	50	213	0	0	rhinoceros	1306	213	0	stimuli\rhinoceros\rhinoceros_02s.jpg	1	-1	0	0	rhinoceros_02s.jpg	0	0	0	233.969705939293	234.019686885178	0.0499809458851814
55206	50	214	0	0	tiramisu	1663	214	0	stimuli\tiramisu\tiramisu_09s.jpg	8	-1	0	0	tiramisu_09s.jpg	0	0	0	234.069708791561	234.119689006358	0.0499802147969604
55306	50	215	0	0	swab	1590	215	0	stimuli\swab\swab_07s.jpg	6	-1	0	0	swab_07s.jpg	0	0	0	234.169718471356	234.219694540836	0.0499760694801807
55406	50	216	0	0	bathtub	91	216	0	stimuli\bathtub\bathtub_02s.jpg	1	-1	0	0	bathtub_02s.jpg	0	0	0	234.269714009017	234.31969641801	0.0499824089929461
55506	50	217	0	0	blowtorch	148	217	0	stimuli\blowtorch\blowtorch_05s.jpg	4	-1	0	0	blowtorch_05s.jpg	0	0	0	234.369714424014	234.419693663716	0.0499792397022247
55606	50	218	0	0	perfume	1154	218	0	stimuli\perfume\perfume_03s.jpg	2	-1	0	0	perfume_03s.jpg	0	0	0	234.469719714485	234.51970139239	0.0499816779047251
55706	50	219	0	0	poinsettia	1209	219	0	stimuli\poinsettia\poinsettia_02s.jpg	1	-1	0	0	poinsettia_02s.jpg	0	0	0	234.569720616564	234.619701319374	0.0499807028099895
55806	50	220	0	0	bowl	177	220	0	stimuli\bowl\bowl_11s.jpg	10	-1	0	0	bowl_11s.jpg	0	0	0	234.669724443927	234.719705390744	0.049980946816504
55906	50	221	0	0	hopscotch	796	221	0	stimuli\hopscotch\hopscotch_10s.jpg	9	-1	0	0	hopscotch_10s.jpg	0	0	0	234.769726565108	234.819712144323	0.0499855792149901
56006	50	222	0	0	mullet	1039	222	0	stimuli\mullet\mullet_01b.jpg	0	-1	0	0	mullet_01b.jpg	0	0	0	234.869733075611	234.919710120186	0.0499770445749164
56106	50	223	0	0	ankle	22	223	0	stimuli\ankle\ankle_10s.jpg	9	-1	0	0	ankle_10s.jpg	0	0	0	234.969733489677	235.019711998291	0.0499785086140037
56206	50	224	0	0	spark_plug	1506	224	0	stimuli\spark_plug\spark_plug_04s.jpg	3	-1	0	0	spark_plug_04s.jpg	0	0	0	235.069734879769	235.119715581648	0.0499807018786669
56306	50	225	0	0	face	569	225	0	stimuli\face\face_08s.jpg	7	-1	0	0	face_08s.jpg	0	0	0	235.169737488031	235.21971892193	0.0499814338982105
56406	50	226	0	0	rattlesnake	1288	226	0	stimuli\rattlesnake\rattlesnake_04s.jpg	3	-1	0	0	rattlesnake_04s.jpg	0	0	0	235.269756675698	235.319720312022	0.0499636363238096
56506	50	227	0	0	quill	1263	227	0	stimuli\quill\quill_07s.jpg	6	-1	0	0	quill_07s.jpg	0	0	0	235.369745143689	235.419724383391	0.0499792397022247
56606	50	228	0	0	checkers	311	228	0	stimuli\checkers\checkers_12s.jpg	11	-1	0	0	checkers_12s.jpg	0	0	0	235.469745801762	235.519726992585	0.0499811908230186
56706	50	229	0	0	can_opener	251	229	0	stimuli\can_opener\can_opener_02s.jpg	1	-1	0	0	can_opener_02s.jpg	0	0	0	235.569748166949	235.619732283056	0.0499841161072254
56806	50	230	0	0	canister	259	230	0	stimuli\canister\canister_07s.jpg	6	-1	0	0	canister_07s.jpg	0	0	0	235.669749800116	235.719731478021	0.0499816779047251
56906	50	231	0	0	bracelet1	187	231	0	stimuli\bracelet1\bracelet1_11s.jpg	10	-1	0	0	bracelet1_11s.jpg	0	0	0	235.769754359499	235.819733355194	0.0499789956957102
57006	50	232	0	0	breadstick	196	232	0	stimuli\breadstick\breadstick_04s.jpg	3	-1	0	0	breadstick_04s.jpg	0	0	0	235.869755261578	235.919738646597	0.0499833850190043
57106	50	233	0	0	stir_fry	1557	233	0	stimuli\stir_fry\stir_fry_05s.jpg	4	-1	0	0	stir_fry_05s.jpg	0	0	0	235.969770792872	236.019749544561	0.0499787516891956
57206	50	234	0	0	helmet	776	234	0	stimuli\helmet\helmet_04s.jpg	3	-1	0	0	helmet_04s.jpg	0	0	0	236.069762430154	236.119741425849	0.0499789956957102
57306	50	235	0	0	pallet	1101	235	0	stimuli\pallet\pallet_03s.jpg	2	-1	0	0	pallet_03s.jpg	0	0	0	236.169765770435	236.219744766131	0.0499789956957102
57406	50	236	0	0	sundae	1582	236	0	stimuli\sundae\sundae_07s.jpg	6	-1	0	0	sundae_07s.jpg	0	0	0	236.269765696488	236.3197476184	0.0499819219112396
57506	50	237	0	0	mouse2	1027	237	0	stimuli\mouse2\mouse2_05s.jpg	4	-1	0	0	mouse2_05s.jpg	0	0	0	236.369768305682	236.419754859991	0.0499865543097258
57606	50	238	0	0	lingerie	932	238	0	stimuli\lingerie\lingerie_04s.jpg	3	-1	0	0	lingerie_04s.jpg	0	0	0	236.469772377051	236.519751372747	0.0499789956957102
57706	50	239	0	0	pillbox	1175	239	0	stimuli\pillbox\pillbox_04s.jpg	3	-1	0	0	pillbox_04s.jpg	0	0	0	236.569773035124	236.619759101421	0.0499860662966967
57806	50	240	0	0	scraper	1387	240	0	stimuli\scraper\scraper_12s.jpg	11	-1	0	0	scraper_12s.jpg	0	0	0	236.669778813608	236.719760735519	0.0499819219112396
57906	50	241	0	0	wafer	1769	241	0	stimuli\wafer\wafer_02s.jpg	1	-1	0	0	wafer_02s.jpg	0	0	0	236.769790931605	236.819759687409	0.0499687558040023
58006	50	242	0	0	magnet	956	242	0	stimuli\magnet\magnet_04s.jpg	3	-1	0	0	magnet_04s.jpg	0	0	0	236.869782568887	236.919762051664	0.0499794827774167
58106	50	243	0	0	ice-cream_cone	817	243	0	stimuli\ice-cream_cone\ice-cream_cone_09s.jpg	8	-1	0	0	ice-cream_cone_09s.jpg	0	0	0	236.969785421155	237.019768805243	0.0499833840876818
58206	50	244	0	0	sandal	1352	244	0	stimuli\sandal\sandal_03s.jpg	2	-1	0	0	sandal_03s.jpg	0	0	0	237.069787298329	237.119770439342	0.0499831410124898
58306	50	245	0	0	flour	618	245	0	stimuli\flour\flour_10s.jpg	9	-1	0	0	flour_10s.jpg	0	0	0	237.169790882617	237.219778655097	0.0499877724796534
58406	50	246	0	0	fireworks	598	246	0	stimuli\fireworks\fireworks_09s.jpg	8	-1	0	0	fireworks_09s.jpg	0	0	0	237.269792515785	237.319773462601	0.049980946816504
58506	50	247	0	0	match	983	247	0	stimuli\match\match_02s.jpg	1	-1	0	0	match_02s.jpg	0	0	0	237.369798294269	237.419775095768	0.0499768014997244
58606	50	248	0	0	collar	387	248	0	stimuli\collar\collar_09s.jpg	8	-1	0	0	collar_09s.jpg	0	0	0	237.469809680246	237.519785750657	0.0499760704115033
58706	50	249	0	0	cannonball	261	249	0	stimuli\cannonball\cannonball_12s.jpg	11	-1	0	0	cannonball_12s.jpg	0	0	0	237.569800342433	237.619780313224	0.0499799707904458
58806	50	250	0	0	apple	30	250	0	stimuli\apple\apple_03s.jpg	2	-1	0	0	apple_03s.jpg	0	0	0	237.669804657809	237.719784141518	0.0499794837087393
58906	50	251	0	0	sailboat	1347	251	0	stimuli\sailboat\sailboat_11s.jpg	10	-1	0	0	sailboat_11s.jpg	0	0	0	237.769810192287	237.819796989672	0.0499867973849177
59006	50	252	0	0	lipstick	936	252	0	stimuli\lipstick\lipstick_04s.jpg	3	-1	0	0	lipstick_04s.jpg	0	0	0	237.869809875265	237.919789846055	0.0499799707904458
59106	50	253	0	0	jetski	848	253	0	stimuli\jetski\jetski_06s.jpg	5	-1	0	0	jetski_06s.jpg	0	0	0	237.969825893641	238.019792455249	0.0499665616080165
59206	50	254	0	0	woman	1832	254	0	stimuli\woman\woman_07s.jpg	6	-1	0	0	woman_07s.jpg	0	0	0	238.06981509272	238.11979774572	0.0499826529994607
59306	50	255	0	0	tulip	1726	255	0	stimuli\tulip\tulip_11s.jpg	10	-1	0	0	tulip_11s.jpg	0	0	0	238.169818433002	238.219801086001	0.0499826529994607
59406	50	256	0	0	forklift	635	256	0	stimuli\forklift\forklift_01b.jpg	0	-1	0	0	forklift_01b.jpg	0	0	0	238.269823967479	238.31980198808	0.0499780206009746
59506	50	257	0	0	camera1	246	257	0	stimuli\camera1\camera1_03s.jpg	2	-1	0	0	camera1_03s.jpg	0	0	0	238.369821943343	238.419803134166	0.0499811908230186
59606	50	258	0	0	cord	407	258	0	stimuli\cord\cord_09s.jpg	8	-1	0	0	cord_09s.jpg	0	0	0	238.469825527631	238.519816957414	0.0499914297834039
59706	50	259	0	0	barbed_wire	71	259	0	stimuli\barbed_wire\barbed_wire_01b.jpg	0	-1	0	0	barbed_wire_01b.jpg	0	0	0	238.569827404805	238.619806888513	0.0499794837087393
59806	50	260	0	0	coffee	377	260	0	stimuli\coffee\coffee_03s.jpg	2	-1	0	0	coffee_03s.jpg	0	0	0	238.669829525985	238.719810228795	0.0499807028099895
59906	50	261	0	0	icicle	824	261	0	stimuli\icicle\icicle_11s.jpg	10	-1	0	0	icicle_11s.jpg	0	0	0	238.769834085368	238.819815275259	0.049981189891696
60006	50	262	0	0	wheel	1806	262	0	stimuli\wheel\wheel_12s.jpg	11	-1	0	0	wheel_12s.jpg	0	0	0	238.869836450554	238.919815690257	0.0499792397022247
60106	50	263	0	0	train_car	1699	263	0	stimuli\train_car\train_car_04s.jpg	3	-1	0	0	train_car_04s.jpg	0	0	0	238.969837352633	239.01981756743	0.0499802147969604
60206	50	264	0	0	inhaler	828	264	0	stimuli\inhaler\inhaler_08s.jpg	7	-1	0	0	inhaler_08s.jpg	0	0	0	239.069845325314	239.119821882807	0.0499765574932098
60306	50	265	0	0	barrel	76	265	0	stimuli\barrel\barrel_07s.jpg	6	-1	0	0	barrel_07s.jpg	0	0	0	239.169845008291	239.219825467095	0.0499804588034749
60406	50	266	0	0	hairdryer	735	266	0	stimuli\hairdryer\hairdryer_01b.jpg	0	-1	0	0	hairdryer_01b.jpg	0	0	0	239.269844935276	239.319826369174	0.0499814338982105
60506	50	267	0	0	paddle	1094	267	0	stimuli\paddle\paddle_10s.jpg	9	-1	0	0	paddle_10s.jpg	0	0	0	239.369849250652	239.41983068455	0.0499814338982105
60606	50	268	0	0	snowboard	1481	268	0	stimuli\snowboard\snowboard_07s.jpg	6	-1	0	0	snowboard_07s.jpg	0	0	0	239.469852346927	239.519833049737	0.0499807028099895
60706	50	269	0	0	quesadilla	1261	269	0	stimuli\quesadilla\quesadilla_10s.jpg	9	-1	0	0	quesadilla_10s.jpg	0	0	0	239.569854712114	239.619833219796	0.0499785076826811
60806	50	270	0	0	turkey	1733	270	0	stimuli\turkey\turkey_09s.jpg	8	-1	0	0	turkey_09s.jpg	0	0	0	239.669861952774	239.719838754274	0.0499768014997244
60906	50	271	0	0	crib	441	271	0	stimuli\crib\crib_08s.jpg	7	-1	0	0	crib_08s.jpg	0	0	0	239.769858954474	239.819838681258	0.0499797267839313
61006	50	272	0	0	sawhorse	1367	272	0	stimuli\sawhorse\sawhorse_12s.jpg	11	-1	0	0	sawhorse_12s.jpg	0	0	0	239.869863269851	239.919846897945	0.0499836280941963
61106	50	273	0	0	granite	700	273	0	stimuli\granite\granite_04s.jpg	3	-1	0	0	granite_04s.jpg	0	0	0	239.969870998524	240.019845605828	0.0499746073037386
61206	50	274	0	0	pastry	1124	274	0	stimuli\pastry\pastry_05s.jpg	4	-1	0	0	pastry_05s.jpg	0	0	0	240.069867512211	240.119858697988	0.0499911857768893
61306	50	275	0	0	chainsaw	299	275	0	stimuli\chainsaw\chainsaw_12s.jpg	11	-1	0	0	chainsaw_12s.jpg	0	0	0	240.169870851561	240.219850579277	0.0499797277152538
61406	50	276	0	0	olive	1075	276	0	stimuli\olive\olive_09s.jpg	8	-1	0	0	olive_09s.jpg	0	0	0	240.269871266559	240.319852700457	0.0499814338982105
61506	50	277	0	0	tank1	1620	277	0	stimuli\tank1\tank1_07s.jpg	6	-1	0	0	tank1_07s.jpg	0	0	0	240.369874118827	240.419878227636	0.0500041088089347
61606	50	278	0	0	peeler	1138	278	0	stimuli\peeler\peeler_09s.jpg	8	-1	0	0	peeler_09s.jpg	0	0	0	240.469880872406	240.519858161919	0.0499772895127535
61706	50	279	0	0	wing	1827	279	0	stimuli\wing\wing_12s.jpg	11	-1	0	0	wing_12s.jpg	0	0	0	240.569881287403	240.619858575985	0.0499772885814309
61806	50	280	0	0	seed	1401	280	0	stimuli\seed\seed_06s.jpg	5	-1	0	0	seed_06s.jpg	0	0	0	240.66988560278	240.719864354469	0.0499787516891956
61906	50	281	0	0	basketball	83	281	0	stimuli\basketball\basketball_09s.jpg	8	-1	0	0	basketball_09s.jpg	0	0	0	240.769885528833	240.819865987636	0.0499804588034749
62006	50	282	0	0	battery	97	282	0	stimuli\battery\battery_09n.jpg	8	-1	0	0	battery_09n.jpg	0	0	0	240.869892526418	240.919868108816	0.0499755823984742
62106	50	283	0	0	touchpad	1691	283	0	stimuli\touchpad\touchpad_06s.jpg	5	-1	0	0	touchpad_06s.jpg	0	0	0	240.969891722314	241.019872181118	0.0499804588034749
62206	50	284	0	0	centrifuge	296	284	0	stimuli\centrifuge\centrifuge_07s.jpg	6	-1	0	0	centrifuge_07s.jpg	0	0	0	241.069894330576	241.119875033386	0.0499807028099895
62306	50	285	0	0	racehorse	1267	285	0	stimuli\racehorse\racehorse_05s.jpg	4	-1	0	0	racehorse_05s.jpg	0	0	0	241.169897670858	241.219878373668	0.0499807028099895
62406	50	286	0	0	moth	1023	286	0	stimuli\moth\moth_02n.jpg	1	-1	0	0	moth_02n.jpg	0	0	0	241.269899792038	241.319881225936	0.0499814338982105
62506	50	287	0	0	headlight	765	287	0	stimuli\headlight\headlight_04s.jpg	3	-1	0	0	headlight_04s.jpg	0	0	0	241.369902888313	241.41988310311	0.0499802147969604
62606	50	288	0	0	bulldozer	215	288	0	stimuli\bulldozer\bulldozer_08s.jpg	7	-1	0	0	bulldozer_08s.jpg	0	0	0	241.469926952384	241.51988522429	0.0499582719057798
62706	50	289	0	0	bed	108	289	0	stimuli\bed\bed_05n.jpg	4	-1	0	0	bed_05n.jpg	0	0	0	241.56990932487	241.619886370376	0.0499770455062389
62806	50	290	0	0	waffle_iron	1771	290	0	stimuli\waffle_iron\waffle_iron_09s.jpg	8	-1	0	0	waffle_iron_09s.jpg	0	0	0	241.669912665151	241.719889222644	0.0499765574932098
62906	50	291	0	0	toe	1668	291	0	stimuli\toe\toe_03s.jpg	2	-1	0	0	toe_03s.jpg	0	0	0	241.769917955622	241.819894514047	0.0499765584245324
63006	50	292	0	0	biscuit	133	292	0	stimuli\biscuit\biscuit_03s.jpg	2	-1	0	0	biscuit_03s.jpg	0	0	0	241.869915932417	241.919895172119	0.0499792397022247
63106	50	293	0	0	berry	121	293	0	stimuli\berry\berry_10s.jpg	9	-1	0	0	berry_10s.jpg	0	0	0	241.969917565584	242.019898999482	0.0499814338982105
63206	50	294	0	0	chandelier	305	294	0	stimuli\chandelier\chandelier_11s.jpg	10	-1	0	0	chandelier_11s.jpg	0	0	0	242.069919930771	242.119901364669	0.0499814338982105
63306	50	295	0	0	cruise_ship	450	295	0	stimuli\cruise_ship\cruise_ship_01b.jpg	0	-1	0	0	cruise_ship_01b.jpg	0	0	0	242.169924246147	242.219903241843	0.0499789956957102
63406	50	296	0	0	hoodie	792	296	0	stimuli\hoodie\hoodie_10s.jpg	9	-1	0	0	hoodie_10s.jpg	0	0	0	242.269925636239	242.319907070138	0.0499814338982105
63506	50	297	0	0	briefcase	200	297	0	stimuli\briefcase\briefcase_05s.jpg	4	-1	0	0	briefcase_05s.jpg	0	0	0	242.369929707609	242.419908459298	0.0499787516891956
63606	50	298	0	0	stretcher	1572	298	0	stimuli\stretcher\stretcher_01s.jpg	0	-1	0	0	stretcher_01s.jpg	0	0	0	242.469930609688	242.519910093397	0.0499794837087393
63706	50	299	0	0	leopard	917	299	0	stimuli\leopard\leopard_11s.jpg	10	-1	0	0	leopard_11s.jpg	0	0	0	242.569934437051	242.619913433678	0.0499789966270328
63806	50	300	0	0	moose	1018	300	0	stimuli\moose\moose_11s.jpg	10	-1	0	0	moose_11s.jpg	0	0	0	242.669936558232	242.719920187257	0.0499836290255189
63906	50	301	0	0	slot_machine	1470	301	0	stimuli\slot_machine\slot_machine_02s.jpg	1	-1	0	0	slot_machine_02s.jpg	0	0	0	242.769939167425	242.819920357317	0.049981189891696
64006	50	302	0	0	spear	1510	302	0	stimuli\spear\spear_02s.jpg	1	-1	0	0	spear_02s.jpg	1	0	0	242.869942994788	242.91992296651	0.0499799717217684
64106	50	303	0	0	cigar	343	303	0	stimuli\cigar\cigar_08s.jpg	7	-1	0	0	cigar_08s.jpg	0	0	0	242.969945115969	243.019926306792	0.0499811908230186
64206	50	304	0	0	wagon	1772	304	0	stimuli\wagon\wagon_09s.jpg	8	-1	0	0	wagon_09s.jpg	0	0	0	243.069949431345	243.119929403067	0.0499799717217684
64306	50	305	0	0	bulletproof_vest	218	305	0	stimuli\bulletproof_vest\bulletproof_vest_07s.jpg	6	-1	0	0	bulletproof_vest_07s.jpg	0	0	0	243.16995057743	243.219935912639	0.0499853352084756
64406	50	306	0	0	scone	1380	306	0	stimuli\scone\scone_09s.jpg	8	-1	0	0	scone_09s.jpg	0	0	0	243.269953186624	243.319932426326	0.0499792397022247
64506	50	307	0	0	flypaper	622	307	0	stimuli\flypaper\flypaper_02s.jpg	1	-1	0	0	flypaper_02s.jpg	0	0	0	243.369955307804	243.419936253689	0.0499809458851814
64606	50	308	0	0	bolo_tie	157	308	0	stimuli\bolo_tie\bolo_tie_09s.jpg	8	-1	0	0	bolo_tie_09s.jpg	0	0	0	243.469958648086	243.519940569066	0.049981920979917
77639	50	309	0	0	rug	1340	0	1	stimuli\rug\rug_03s.jpg	2	-1	1	0	rug_03s.jpg	0	0	0	256.503664091229	256.553642355837	0.0499782646074891
77739	50	310	0	0	trowel	1719	1	1	stimuli\trowel\trowel_12s.jpg	11	-1	1	0	trowel_12s.jpg	0	0	0	256.603666700423	256.653644477017	0.04997777659446
77839	50	311	0	0	crutch	452	2	1	stimuli\crutch\crutch_04s.jpg	3	-1	1	0	crutch_04s.jpg	0	0	0	256.703664189205	256.75364513509	0.0499809458851814
77939	50	312	0	0	jump_rope	858	3	1	stimuli\jump_rope\jump_rope_06s.jpg	5	-1	1	0	jump_rope_06s.jpg	0	0	0	256.803666310385	256.853648719378	0.0499824089929461
78039	50	313	0	0	drill	520	4	1	stimuli\drill\drill_07s.jpg	6	-1	1	0	drill_07s.jpg	0	0	0	256.903673063032	256.953652302735	0.0499792397022247
78139	50	314	0	0	grate	707	5	1	stimuli\grate\grate_11s.jpg	10	-1	1	0	grate_11s.jpg	0	0	0	257.003671039827	257.053653936833	0.0499828970059752
78239	50	315	0	0	trampoline	1701	6	1	stimuli\trampoline\trampoline_10s.jpg	9	-1	1	0	trampoline_10s.jpg	0	0	0	257.103677793406	257.15365752019	0.0499797267839313
78339	50	316	0	0	tee	1636	7	1	stimuli\tee\tee_06s.jpg	5	-1	1	0	tee_06s.jpg	0	0	0	257.203676988371	257.25365964137	0.0499826529994607
78439	50	317	0	0	pin	1177	8	1	stimuli\pin\pin_08s.jpg	7	-1	1	0	pin_08s.jpg	0	0	0	257.303686180152	257.353664688766	0.0499785086140037
78539	50	318	0	0	pennant	1148	9	1	stimuli\pennant\pennant_02s.jpg	1	-1	1	0	pennant_02s.jpg	0	0	0	257.40368391294	257.45364974346	0.0499658305197954
78639	50	319	0	0	duckling	526	10	1	stimuli\duckling\duckling_09s.jpg	8	-1	1	0	duckling_09s.jpg	0	0	0	257.503666041419	257.553646256216	0.0499802147969604
78739	50	320	0	0	clothespin	363	11	1	stimuli\clothespin\clothespin_06s.jpg	5	-1	1	0	clothespin_06s.jpg	0	0	0	257.603667431511	257.653670564294	0.0500031327828765
78839	50	321	0	0	dial	483	12	1	stimuli\dial\dial_01b.jpg	0	-1	1	0	dial_01b.jpg	0	0	0	257.703671258874	257.753654399887	0.0499831410124898
78939	50	322	0	0	sled	1460	13	1	stimuli\sled\sled_06s.jpg	5	-1	1	0	sled_06s.jpg	0	0	0	257.803673380055	257.853653838858	0.0499804588034749
79039	50	323	0	0	gift	672	14	1	stimuli\gift\gift_01b.jpg	0	-1	1	0	gift_01b.jpg	0	0	0	257.903675501235	257.953658886254	0.0499833850190043
79139	50	324	0	0	jewel	849	15	1	stimuli\jewel\jewel_01b.jpg	0	-1	1	0	jewel_01b.jpg	0	0	0	258.003677622415	258.05365930032	0.0499816779047251
79239	50	325	0	0	incubator	827	16	1	stimuli\incubator\incubator_09s.jpg	8	-1	1	0	incubator_09s.jpg	0	0	0	258.103685108013	258.153664103709	0.0499789956957102
79339	50	326	0	0	police_car	1214	17	1	stimuli\police_car\police_car_02s.jpg	1	-1	1	0	police_car_02s.jpg	0	0	0	258.203683327883	258.253665005788	0.0499816779047251
79439	50	327	0	0	papaya	1111	18	1	stimuli\papaya\papaya_11n.jpg	10	-1	1	0	papaya_11n.jpg	0	0	0	258.303685936145	258.353667370044	0.0499814338982105
79539	50	328	0	0	pancake	1104	19	1	stimuli\pancake\pancake_02n.jpg	1	-1	1	0	pancake_02n.jpg	0	0	0	258.403688301332	258.453669979237	0.0499816779047251
79639	50	329	0	0	sombrero	1495	20	1	stimuli\sombrero\sombrero_05s.jpg	4	-1	1	0	sombrero_05s.jpg	0	0	0	258.503691154532	258.55367453862	0.0499833840876818
79739	50	330	0	0	goggles	686	21	1	stimuli\goggles\goggles_11s.jpg	10	-1	1	0	goggles_11s.jpg	0	0	0	258.603693762794	258.653675196692	0.0499814338982105
79839	50	331	0	0	gyroscope	731	22	1	stimuli\gyroscope\gyroscope_01b.jpg	0	-1	1	0	gyroscope_01b.jpg	0	0	0	258.703702954575	258.753678292967	0.0499753383919597
79939	50	332	0	0	grasshopper	706	23	1	stimuli\grasshopper\grasshopper_01b.jpg	0	-1	1	0	grasshopper_01b.jpg	0	0	0	258.803700443357	258.853680658154	0.0499802147969604
80039	50	333	0	0	coverall	425	24	1	stimuli\coverall\coverall_08s.jpg	7	-1	1	0	coverall_08s.jpg	0	0	0	258.903701589443	258.953683998436	0.0499824089929461
80139	50	334	0	0	quad	1260	25	1	stimuli\quad\quad_05s.jpg	4	-1	1	0	quad_05s.jpg	0	0	0	259.0037051728	259.05368587561	0.0499807028099895
80239	50	335	0	0	sundial	1583	26	1	stimuli\sundial\sundial_04s.jpg	3	-1	1	0	sundial_04s.jpg	0	0	0	259.103709732182	259.153688971885	0.0499792397022247
80339	50	336	0	0	metronome	997	27	1	stimuli\metronome\metronome_12s.jpg	11	-1	1	0	metronome_12s.jpg	0	0	0	259.203711366281	259.253692312166	0.0499809458851814
80439	50	337	0	0	motorcycle	1025	28	1	stimuli\motorcycle\motorcycle_05s.jpg	4	-1	1	0	motorcycle_05s.jpg	0	0	0	259.303710805252	259.353693702258	0.0499828970059752
80539	50	338	0	0	bow2	175	29	1	stimuli\bow2\bow2_07s.jpg	6	-1	1	0	bow2_07s.jpg	0	0	0	259.403715364635	259.453695579432	0.0499802147969604
80639	50	339	0	0	curling_iron	463	30	1	stimuli\curling_iron\curling_iron_02s.jpg	1	-1	1	0	curling_iron_02s.jpg	0	0	0	259.50371772889	259.553697944619	0.0499802157282829
80739	50	340	0	0	possum	1228	31	1	stimuli\possum\possum_03s.jpg	2	-1	1	0	possum_03s.jpg	0	0	0	259.603721557185	259.653702259995	0.0499807028099895
80839	50	341	0	0	watering_can	1792	32	1	stimuli\watering_can\watering_can_10s.jpg	9	-1	1	0	watering_can_10s.jpg	0	0	0	259.703723922372	259.753704624251	0.0499807018786669
80940	50	342	0	0	seismograph	1403	33	1	stimuli\seismograph\seismograph_05s.jpg	4	-1	1	0	seismograph_05s.jpg	0	0	0	259.803741890937	259.853706989437	0.0499650985002518
81040	50	343	0	0	scooter	1382	34	1	stimuli\scooter\scooter_11s.jpg	10	-1	1	0	scooter_11s.jpg	0	0	0	259.903735478409	259.953708866611	0.0499733882024884
81140	50	344	0	0	footrest	633	35	1	stimuli\footrest\footrest_10s.jpg	9	-1	1	0	footrest_10s.jpg	0	0	0	260.003753203899	260.053714401089	0.0499611971899867
81240	50	345	0	0	tomato	1672	36	1	stimuli\tomato\tomato_08s.jpg	7	-1	1	0	tomato_08s.jpg	0	0	0	260.103733869269	260.153715303168	0.0499814338982105
81340	50	346	0	0	bok_choy	156	37	1	stimuli\bok_choy\bok_choy_06s.jpg	5	-1	1	0	bok_choy_06s.jpg	0	0	0	260.203737453558	260.253716449253	0.0499789956957102
81440	50	347	0	0	diving_board	494	38	1	stimuli\diving_board\diving_board_01b.jpg	0	-1	1	0	diving_board_01b.jpg	0	0	0	260.30375298392	260.353721008636	0.0499680247157812
81540	50	348	0	0	doorstop	512	39	1	stimuli\doorstop\doorstop_04s.jpg	3	-1	1	0	doorstop_04s.jpg	0	0	0	260.403740476817	260.453722154722	0.0499816779047251
81640	50	349	0	0	peppermint	1152	40	1	stimuli\peppermint\peppermint_10s.jpg	9	-1	1	0	peppermint_10s.jpg	0	0	0	260.503742597997	260.55372500699	0.0499824089929461
81740	50	350	0	0	mashed_potato	979	41	1	stimuli\mashed_potato\mashed_potato_07s.jpg	6	-1	1	0	mashed_potato_07s.jpg	0	0	0	260.603750326671	260.65372907836	0.0499787516891956
81840	50	351	0	0	kitten	875	42	1	stimuli\kitten\kitten_09s.jpg	8	-1	1	0	kitten_09s.jpg	0	0	0	260.703749522567	260.753732418641	0.0499828960746527
81940	50	352	0	0	retainer	1303	43	1	stimuli\retainer\retainer_10s.jpg	9	-1	1	0	retainer_10s.jpg	0	0	0	260.803753593937	260.85373405274	0.0499804588034749
82040	50	353	0	0	siren	1448	44	1	stimuli\siren\siren_01s.jpg	0	-1	1	0	siren_01s.jpg	0	0	0	260.903754496016	260.953735441901	0.0499809458851814
82140	50	354	0	0	octopus	1070	45	1	stimuli\octopus\octopus_04s.jpg	3	-1	1	0	octopus_04s.jpg	0	0	0	261.003758079372	261.053739513271	0.0499814338982105
82240	50	355	0	0	dryer	524	46	1	stimuli\dryer\dryer_01b.jpg	0	-1	1	0	dryer_01b.jpg	0	0	0	261.103763370775	261.153741634451	0.0499782636761665
82340	50	356	0	0	lobster	939	47	1	stimuli\lobster\lobster_07s.jpg	6	-1	1	0	lobster_07s.jpg	0	0	0	261.203764759935	261.25374643784	0.0499816779047251
82440	50	357	0	0	bonsai	164	48	1	stimuli\bonsai\bonsai_09s.jpg	8	-1	1	0	bonsai_09s.jpg	0	0	0	261.303767369129	261.353747583926	0.0499802147969604
82540	50	358	0	0	insole	831	49	1	stimuli\insole\insole_05s.jpg	4	-1	1	0	insole_05s.jpg	0	0	0	261.4037726596	261.453749949113	0.0499772895127535
82640	50	359	0	0	bus	226	50	1	stimuli\bus\bus_11n.jpg	10	-1	1	0	bus_11n.jpg	0	0	0	261.503771123476	261.55376133509	0.0499902116134763
82740	50	360	0	0	flute	620	51	1	stimuli\flute\flute_11s.jpg	10	-1	1	0	flute_11s.jpg	0	0	0	261.603772513568	261.653756141663	0.0499836280941963
82840	50	361	0	0	poppy	1224	52	1	stimuli\poppy\poppy_10s.jpg	9	-1	1	0	poppy_10s.jpg	0	0	0	261.703778048046	261.753757530823	0.0499794827774167
82940	50	362	0	0	espresso	560	53	1	stimuli\espresso\espresso_07s.jpg	6	-1	1	0	espresso_07s.jpg	0	0	0	261.80377992522	261.853760384023	0.0499804588034749
83040	50	363	0	0	binoculars	127	54	1	stimuli\binoculars\binoculars_12s.jpg	11	-1	1	0	binoculars_12s.jpg	0	0	0	261.903783021495	261.95376396738	0.0499809458851814
83140	50	364	0	0	hinge	779	55	1	stimuli\hinge\hinge_05s.jpg	4	-1	1	0	hinge_05s.jpg	0	0	0	262.003785630688	262.053771452978	0.0499858222901821
83240	50	365	0	0	slug	1472	56	1	stimuli\slug\slug_03s.jpg	2	-1	1	0	slug_03s.jpg	0	0	0	262.103792627342	262.153770647943	0.0499780206009746
83340	50	366	0	0	tool	1676	57	1	stimuli\tool\tool_03s.jpg	2	-1	1	0	tool_03s.jpg	0	0	0	262.203790116124	262.25377106294	0.049980946816504
83440	50	367	0	0	jeans	842	58	1	stimuli\jeans\jeans_11s.jpg	10	-1	1	0	jeans_11s.jpg	0	0	0	262.303792237304	262.353773427196	0.049981189891696
83540	50	368	0	0	stake	1533	59	1	stimuli\stake\stake_04s.jpg	3	-1	1	1	stake_04s.jpg	0	0	0	262.403796065599	262.453776036389	0.0499799707904458
83640	50	369	0	0	eggplant	550	60	1	stimuli\eggplant\eggplant_06s.jpg	5	-1	1	0	eggplant_06s.jpg	0	0	0	262.503797454759	262.55378205888	0.0499846041202545
83740	50	370	0	0	shovel	1432	61	1	stimuli\shovel\shovel_08n.jpg	7	-1	1	0	shovel_08n.jpg	0	0	0	262.603804696351	262.653780522756	0.0499758264049888
83840	50	371	0	0	garbage_truck	656	62	1	stimuli\garbage_truck\garbage_truck_10s.jpg	9	-1	1	0	garbage_truck_10s.jpg	1	0.341910876333714	1	262.703802916221	262.753785082139	0.0499821659177542
83940	50	372	0	0	scuba	1392	63	1	stimuli\scuba\scuba_03s.jpg	2	-1	1	0	scuba_03s.jpg	0	0	0	262.803806256503	262.853787203319	0.049980946816504
84040	50	373	0	0	razor_blade	1291	64	1	stimuli\razor_blade\razor_blade_03s.jpg	2	-1	1	0	razor_blade_03s.jpg	0	0	0	262.90381374117	262.95379054267	0.0499768014997244
84140	50	374	0	0	steak	1544	65	1	stimuli\steak\steak_05s.jpg	4	-1	1	0	steak_05s.jpg	0	0	0	263.003810254857	263.053791932762	0.0499816779047251
84240	50	375	0	0	clover	366	66	1	stimuli\clover\clover_10s.jpg	9	-1	1	0	clover_10s.jpg	0	0	0	263.103817740455	263.15379478503	0.0499770445749164
84340	50	376	0	0	parachute	1118	67	1	stimuli\parachute\parachute_10s.jpg	9	-1	1	0	parachute_10s.jpg	0	0	0	263.203816691414	263.253797394224	0.0499807028099895
84440	50	377	0	0	stump	1576	68	1	stimuli\stump\stump_04s.jpg	3	-1	1	0	stump_04s.jpg	0	0	0	263.303818812594	263.353800246492	0.0499814338982105
84540	50	378	0	0	blouse	144	69	1	stimuli\blouse\blouse_08s.jpg	7	-1	1	0	blouse_08s.jpg	0	0	0	263.403822640888	263.453802123666	0.0499794827774167
84640	50	379	0	0	wrist	1842	70	1	stimuli\wrist\wrist_04s.jpg	3	-1	1	0	wrist_04s.jpg	0	0	0	263.503829394467	263.553804488853	0.0499750943854451
84740	50	380	0	0	parfait	1119	71	1	stimuli\parfait\parfait_06s.jpg	5	-1	1	0	parfait_06s.jpg	0	0	0	263.603826395236	263.653807585128	0.049981189891696
84840	50	381	0	0	train_set	1700	72	1	stimuli\train_set\train_set_05s.jpg	4	-1	1	0	train_set_05s.jpg	0	0	0	263.703830222599	263.753810681403	0.0499804588034749
84940	50	382	0	0	air_conditioner	4	73	1	stimuli\air_conditioner\air_conditioner_02s.jpg	1	-1	1	0	air_conditioner_02s.jpg	0	0	0	263.803831368685	263.853814509697	0.0499831410124898
85040	50	383	0	0	buckle	210	74	1	stimuli\buckle\buckle_05s.jpg	4	-1	1	0	buckle_05s.jpg	0	0	0	263.903836172074	263.953815898858	0.0499797267839313
85140	50	384	0	0	go-kart	682	75	1	stimuli\go-kart\go-kart_08s.jpg	7	-1	1	0	go-kart_08s.jpg	0	0	0	264.003835611045	264.053818020038	0.0499824089929461
85240	50	385	0	0	squirrel	1529	76	1	stimuli\squirrel\squirrel_06s.jpg	5	-1	1	0	squirrel_06s.jpg	0	0	0	264.103840658441	264.153824042529	0.0499833840876818
85340	50	386	0	0	mussel	1042	77	1	stimuli\mussel\mussel_12s.jpg	11	-1	1	0	mussel_12s.jpg	0	0	0	264.203843266703	264.25382421352	0.049980946816504
85440	50	387	0	0	cheetah	315	78	1	stimuli\cheetah\cheetah_05s.jpg	4	-1	1	0	cheetah_05s.jpg	0	0	0	264.303844656795	264.353825358674	0.0499807018786669
85540	50	388	0	0	dessert	481	79	1	stimuli\dessert\dessert_05s.jpg	4	-1	1	1	dessert_05s.jpg	0	0	0	264.403850191273	264.45383040607	0.0499802147969604
85640	50	389	0	0	football	629	80	1	stimuli\football\football_06s.jpg	5	-1	1	0	football_06s.jpg	0	0	0	264.503850118257	264.553834233433	0.0499841151759028
85740	50	390	0	0	fishnet_stockings	604	81	1	stimuli\fishnet_stockings\fishnet_stockings_05s.jpg	4	-1	1	0	fishnet_stockings_05s.jpg	0	0	0	264.603854189627	264.653837086633	0.0499828970059752
85840	50	391	0	0	slipper	1468	82	1	stimuli\slipper\slipper_10s.jpg	9	-1	1	0	slipper_10s.jpg	0	0	0	264.703857041895	264.753837988712	0.049980946816504
85940	50	392	0	0	chicken2	323	83	1	stimuli\chicken2\chicken2_07s.jpg	6	-1	1	0	chicken2_07s.jpg	1	0.39215026050806	1	264.803860382177	264.853839865886	0.0499794837087393
86040	50	393	0	0	filter	587	84	1	stimuli\filter\filter_06s.jpg	5	-1	1	0	filter_06s.jpg	0	0	0	264.903859821148	264.953843206167	0.0499833850190043
86140	50	394	0	0	saxophone	1368	85	1	stimuli\saxophone\saxophone_10s.jpg	9	-1	1	0	saxophone_10s.jpg	0	0	0	265.003863405436	265.05384386424	0.0499804588034749
86240	50	395	0	0	cloak	358	86	1	stimuli\cloak\cloak_07s.jpg	6	-1	1	0	cloak_07s.jpg	0	0	0	265.103870403022	265.153847448528	0.0499770455062389
86340	50	396	0	0	freezer	640	87	1	stimuli\freezer\freezer_02s.jpg	1	-1	1	0	freezer_02s.jpg	0	0	0	265.203868378885	265.253849569708	0.0499811908230186
86440	50	397	0	0	grape	702	88	1	stimuli\grape\grape_09s.jpg	8	-1	1	0	grape_09s.jpg	0	0	0	265.303873426281	265.353852909058	0.0499794827774167
86540	50	398	0	0	marijuana	974	89	1	stimuli\marijuana\marijuana_06n.jpg	5	-1	1	0	marijuana_06n.jpg	0	0	0	265.40387432836	265.453855762258	0.0499814338982105
86640	50	399	0	0	tractor	1695	90	1	stimuli\tractor\tractor_10n.jpg	9	-1	1	0	tractor_10n.jpg	0	0	0	265.503879130818	265.553860321641	0.0499811908230186
86740	50	400	0	0	wrench	1841	91	1	stimuli\wrench\wrench_12n.jpg	11	-1	1	0	wrench_12n.jpg	0	0	0	265.603882959113	265.65386122372	0.0499782646074891
86840	50	401	0	0	bat1	87	92	1	stimuli\bat1\bat1_07s.jpg	6	-1	1	0	bat1_07s.jpg	0	0	0	265.703884105198	265.753864075989	0.0499799707904458
86940	50	402	0	0	sofa_bed	1492	93	1	stimuli\sofa_bed\sofa_bed_12s.jpg	11	-1	1	0	sofa_bed_12s.jpg	0	0	0	265.803884763271	265.853868879378	0.0499841161072254
87040	50	403	0	0	dish	489	94	1	stimuli\dish\dish_02s.jpg	1	-1	1	0	dish_02s.jpg	0	0	0	265.903888103552	265.953870024532	0.049981920979917
87140	50	404	0	0	panther	1106	95	1	stimuli\panther\panther_08s.jpg	7	-1	1	0	panther_08s.jpg	0	0	0	266.003892418928	266.053871658631	0.0499792397022247
87240	50	405	0	0	snow	1479	96	1	stimuli\snow\snow_05s.jpg	4	-1	1	0	snow_05s.jpg	0	0	0	266.103895515203	266.153874998912	0.0499794837087393
87340	50	406	0	0	ambulance	19	97	1	stimuli\ambulance\ambulance_07s.jpg	6	-1	1	0	ambulance_07s.jpg	0	0	0	266.203894467093	266.253877120093	0.0499826529994607
87440	50	407	0	0	mail	959	98	1	stimuli\mail\mail_10s.jpg	9	-1	1	0	mail_10s.jpg	0	0	0	266.303897075355	266.353880216368	0.0499831410124898
87540	50	408	0	0	grapefruit	703	99	1	stimuli\grapefruit\grapefruit_09s.jpg	8	-1	1	0	grapefruit_09s.jpg	0	0	0	266.403933817521	266.453886969946	0.0499531524255872
87640	50	409	0	0	squash	1526	100	1	stimuli\squash\squash_05s.jpg	4	-1	1	0	squash_05s.jpg	0	0	0	266.503904243931	266.55388494581	0.0499807018786669
87740	50	410	0	0	shears	1412	101	1	stimuli\shears\shears_07s.jpg	6	-1	1	0	shears_07s.jpg	0	0	0	266.603908315301	266.65388779901	0.0499794837087393
87840	50	411	0	0	toy	1694	102	1	stimuli\toy\toy_06s.jpg	5	-1	1	0	toy_06s.jpg	0	0	0	266.70390921738	266.753890407272	0.049981189891696
87940	50	412	0	0	tarantula	1626	103	1	stimuli\tarantula\tarantula_09s.jpg	8	-1	1	0	tarantula_09s.jpg	0	0	0	266.803911825642	266.853895210661	0.0499833850190043
88040	50	413	0	0	ferry	580	104	1	stimuli\ferry\ferry_08s.jpg	7	-1	1	0	ferry_08s.jpg	0	0	0	266.903913946822	266.953894405626	0.0499804588034749
88140	50	414	0	0	showerhead	1436	105	1	stimuli\showerhead\showerhead_08s.jpg	7	-1	1	0	showerhead_08s.jpg	0	0	0	267.003917287104	267.053901159205	0.0499838721007109
88240	50	415	0	0	telephone_pole	1639	106	1	stimuli\telephone_pole\telephone_pole_09s.jpg	8	-1	1	0	telephone_pole_09s.jpg	0	0	0	267.103922578506	267.153901330195	0.0499787516891956
88340	50	416	0	0	gravel	709	107	1	stimuli\gravel\gravel_12n.jpg	11	-1	1	0	gravel_12n.jpg	0	0	0	267.203921285458	267.253903695382	0.0499824099242687
88440	50	417	0	0	hay	761	108	1	stimuli\hay\hay_01b.jpg	0	-1	1	0	hay_01b.jpg	0	0	0	267.303926088847	267.353907035664	0.049980946816504
88540	50	418	0	0	chimney	329	109	1	stimuli\chimney\chimney_01b.jpg	0	-1	1	0	chimney_01b.jpg	0	0	0	267.403928698041	267.453909643926	0.0499809458851814
88640	50	419	0	0	panda	1105	110	1	stimuli\panda\panda_05s.jpg	4	-1	1	0	panda_05s.jpg	0	0	0	267.503931794316	267.553912009113	0.0499802147969604
88740	50	420	0	0	soda	1490	111	1	stimuli\soda\soda_12s.jpg	11	-1	1	0	soda_12s.jpg	0	0	0	267.603932696395	267.653915836476	0.0499831400811672
88840	50	421	0	0	lion	933	112	1	stimuli\lion\lion_01b.jpg	0	-1	1	0	lion_01b.jpg	0	0	0	267.703935304657	267.753918932751	0.0499836280941963
88940	50	422	0	0	lamb	889	113	1	stimuli\lamb\lamb_02s.jpg	1	-1	1	0	lamb_02s.jpg	0	0	0	267.803938157856	267.853921297938	0.0499831400811672
89040	50	423	0	0	pliers	1201	114	1	stimuli\pliers\pliers_01s.jpg	0	-1	1	0	pliers_01s.jpg	0	0	0	267.903942473233	267.95392195601	0.0499794827774167
89140	50	424	0	0	scanner	1375	115	1	stimuli\scanner\scanner_10s.jpg	9	-1	1	0	scanner_10s.jpg	0	0	0	268.003944350407	268.053926028311	0.0499816779047251
89240	50	425	0	0	defibrillator	477	116	1	stimuli\defibrillator\defibrillator_05s.jpg	4	-1	1	0	defibrillator_05s.jpg	0	0	0	268.103946715593	268.153929124586	0.0499824089929461
89340	50	426	0	0	hyena	815	117	1	stimuli\hyena\hyena_12s.jpg	11	-1	1	0	hyena_12s.jpg	0	0	0	268.203951274045	268.25393100176	0.0499797277152538
89440	50	427	0	0	braid	190	118	1	stimuli\braid\braid_06s.jpg	5	-1	1	0	braid_06s.jpg	0	0	0	268.303951445036	268.353935317136	0.0499838721007109
89540	50	428	0	0	baseball_glove	80	119	1	stimuli\baseball_glove\baseball_glove_02s.jpg	1	-1	1	0	baseball_glove_02s.jpg	0	0	0	268.403955516405	268.453938169405	0.0499826529994607
89640	50	429	0	0	twig	1740	120	1	stimuli\twig\twig_05s.jpg	4	-1	1	0	twig_05s.jpg	0	0	0	268.503957150504	268.553938340396	0.049981189891696
89740	50	430	0	0	zebra	1851	121	1	stimuli\zebra\zebra_06s.jpg	5	-1	1	0	zebra_06s.jpg	0	0	0	268.603959271684	268.653940461576	0.049981189891696
89840	50	431	0	0	flashlight	611	122	1	stimuli\flashlight\flashlight_04s.jpg	3	-1	1	0	flashlight_04s.jpg	0	0	0	268.703987724148	268.753943313845	0.0499555896967649
89940	50	432	0	0	cucumber	457	123	1	stimuli\cucumber\cucumber_10s.jpg	9	-1	1	0	cucumber_10s.jpg	0	0	0	268.803967170417	268.85394641012	0.0499792397022247
90040	50	433	0	0	cream	436	124	1	stimuli\cream\cream_10s.jpg	9	-1	1	0	cream_10s.jpg	0	0	0	268.903966366313	268.953949994408	0.0499836280941963
90140	50	434	0	0	bacon	51	125	1	stimuli\bacon\bacon_12s.jpg	11	-1	1	0	bacon_12s.jpg	0	0	0	269.003970193677	269.053955040872	0.0499848471954465
90240	50	435	0	0	hobbyhorse	782	126	1	stimuli\hobbyhorse\hobbyhorse_01b.jpg	0	-1	1	0	hobbyhorse_01b.jpg	0	0	0	269.103975241072	269.153953261673	0.0499780206009746
90340	50	436	0	0	weather_vane	1798	127	1	stimuli\weather_vane\weather_vane_09s.jpg	8	-1	1	0	weather_vane_09s.jpg	0	0	0	269.203977118246	269.253957089037	0.0499799707904458
90440	50	437	0	0	vest	1759	128	1	stimuli\vest\vest_11s.jpg	10	-1	1	0	vest_11s.jpg	0	0	0	269.303978264332	269.353959942237	0.0499816779047251
90540	50	438	0	0	blind	140	129	1	stimuli\blind\blind_11s.jpg	10	-1	1	0	blind_11s.jpg	0	0	0	269.403982823715	269.4539637696	0.0499809458851814
90640	50	439	0	0	wind_chimes	1817	130	1	stimuli\wind_chimes\wind_chimes_11s.jpg	10	-1	1	0	wind_chimes_11s.jpg	0	0	0	269.503984700888	269.553965159692	0.0499804588034749
90740	50	440	0	0	porthole	1227	131	1	stimuli\porthole\porthole_12s.jpg	11	-1	1	0	porthole_12s.jpg	0	0	0	269.603986578062	269.653969475068	0.0499828970059752
90840	50	441	0	0	balance_beam	58	132	1	stimuli\balance_beam\balance_beam_12s.jpg	11	-1	1	0	balance_beam_12s.jpg	0	0	0	269.703989187256	269.753970621154	0.0499814338982105
90940	50	442	0	0	hatchet	759	133	1	stimuli\hatchet\hatchet_03s.jpg	2	-1	1	0	hatchet_03s.jpg	0	0	0	269.803993502632	269.853972498327	0.0499789956957102
91040	50	443	0	0	bottle	170	134	1	stimuli\bottle\bottle_09s.jpg	8	-1	1	0	bottle_09s.jpg	0	0	0	269.903995379806	269.953975350596	0.0499799707904458
91140	50	444	0	0	cigarette_butt	345	135	1	stimuli\cigarette_butt\cigarette_butt_02s.jpg	1	-1	1	0	cigarette_butt_02s.jpg	0	0	0	270.003998476081	270.053978202865	0.0499797267839313
91240	50	445	0	0	clothes	361	136	1	stimuli\clothes\clothes_03s.jpg	2	-1	1	0	clothes_03s.jpg	0	0	0	270.104000353254	270.153982031159	0.0499816779047251
91340	50	446	0	0	hubcap	809	137	1	stimuli\hubcap\hubcap_06s.jpg	5	-1	1	0	hubcap_06s.jpg	0	0	0	270.204007106833	270.253985371441	0.0499782646074891
91440	50	447	0	0	brush	205	138	1	stimuli\brush\brush_03s.jpg	2	-1	1	0	brush_03s.jpg	0	0	0	270.304006545804	270.353987979703	0.0499814338982105
91540	50	448	0	0	pole	1213	139	1	stimuli\pole\pole_02s.jpg	1	-1	1	0	pole_02s.jpg	0	0	0	270.404008422978	270.453989125788	0.0499807028099895
91640	50	449	0	0	trashcan	1704	140	1	stimuli\trashcan\trashcan_06s.jpg	5	-1	1	0	trashcan_06s.jpg	0	0	0	270.504013226368	270.553992222063	0.0499789956957102
91740	50	450	0	0	shuffleboard	1439	141	1	stimuli\shuffleboard\shuffleboard_10s.jpg	9	-1	1	0	shuffleboard_10s.jpg	0	0	0	270.604013397358	270.653993124142	0.0499797267839313
91840	50	451	0	0	bungee	221	142	1	stimuli\bungee\bungee_09s.jpg	8	-1	1	0	bungee_09s.jpg	0	0	0	270.704014786519	270.753997927532	0.0499831410124898
91940	50	452	0	0	pudding	1246	143	1	stimuli\pudding\pudding_11s.jpg	10	-1	1	0	pudding_11s.jpg	0	0	0	270.804019345902	270.854012238793	0.0499928928911686
92040	50	453	0	0	dalmatian	471	144	1	stimuli\dalmatian\dalmatian_06s.jpg	5	-1	1	0	dalmatian_06s.jpg	0	0	0	270.904022442177	270.954001437873	0.0499789956957102
92140	50	454	0	0	mirror	1005	145	1	stimuli\mirror\mirror_10s.jpg	9	-1	1	0	mirror_10s.jpg	0	0	0	271.004026757553	271.054003803059	0.0499770455062389
92240	50	455	0	0	sewing_kit	1406	146	1	stimuli\sewing_kit\sewing_kit_08s.jpg	7	-1	1	0	sewing_kit_08s.jpg	0	0	0	271.104030341841	271.154008362442	0.0499780206009746
92340	50	456	0	0	vulture	1768	147	1	stimuli\vulture\vulture_01b.jpg	0	-1	1	0	vulture_01b.jpg	0	0	0	271.204029293731	271.254009752534	0.0499804588034749
92440	50	457	0	0	feather	574	148	1	stimuli\feather\feather_01b.jpg	0	-1	1	0	feather_01b.jpg	0	0	0	271.304031170905	271.354012604803	0.0499814338982105
92540	50	458	0	0	blimp	139	149	1	stimuli\blimp\blimp_09s.jpg	8	-1	1	0	blimp_09s.jpg	0	0	0	271.404034023173	271.454017164186	0.0499831410124898
92640	50	459	0	0	banjo	68	150	1	stimuli\banjo\banjo_04s.jpg	3	-1	1	0	banjo_04s.jpg	0	0	0	271.504037119448	271.554017334245	0.0499802147969604
92740	50	460	0	0	wooden_leg	1834	151	1	stimuli\wooden_leg\wooden_leg_04s.jpg	3	-1	1	0	wooden_leg_04s.jpg	0	0	0	271.604046311229	271.654020431451	0.0499741202220321
92840	50	461	0	0	mulch	1038	152	1	stimuli\mulch\mulch_11s.jpg	10	-1	1	0	mulch_11s.jpg	0	0	0	271.704042093828	271.7540225517	0.0499804578721523
92940	50	462	0	0	coyote	427	153	1	stimuli\coyote\coyote_03s.jpg	2	-1	1	0	coyote_03s.jpg	0	0	0	271.804046896286	271.854027111083	0.0499802147969604
93040	50	463	0	0	locker	941	154	1	stimuli\locker\locker_11n.jpg	10	-1	1	0	locker_11n.jpg	0	0	0	271.904047311284	271.954030207358	0.0499828960746527
93140	50	464	0	0	odometer	1071	155	1	stimuli\odometer\odometer_10s.jpg	9	-1	1	0	odometer_10s.jpg	0	0	0	272.004049432464	272.054033060558	0.0499836280941963
93240	50	465	0	0	brownie	204	156	1	stimuli\brownie\brownie_01b.jpg	0	-1	1	0	brownie_01b.jpg	0	0	0	272.104052772745	272.154035181738	0.0499824089929461
93340	50	466	0	0	snowman	1482	157	1	stimuli\snowman\snowman_05s.jpg	4	-1	1	0	snowman_05s.jpg	0	0	0	272.204056112096	272.254037545994	0.0499814338982105
93440	50	467	0	0	mistletoe	1007	158	1	stimuli\mistletoe\mistletoe_09s.jpg	8	-1	1	0	mistletoe_09s.jpg	0	0	0	272.304058233276	272.354040399194	0.0499821659177542
93540	50	468	0	0	jacket	836	159	1	stimuli\jacket\jacket_11s.jpg	10	-1	1	0	jacket_11s.jpg	0	0	0	272.404063280672	272.454046420753	0.0499831400811672
93640	50	469	0	0	pulley	1250	160	1	stimuli\pulley\pulley_05s.jpg	4	-1	1	0	pulley_05s.jpg	0	0	0	272.504063938744	272.554046347737	0.0499824089929461
93740	50	470	0	0	tiger	1659	161	1	stimuli\tiger\tiger_11s.jpg	10	-1	1	0	tiger_11s.jpg	0	0	0	272.604064353742	272.654053101316	0.049988747574389
93840	50	471	0	0	bull	214	162	1	stimuli\bull\bull_04s.jpg	3	-1	1	0	bull_04s.jpg	0	0	0	272.704071106389	272.754050834104	0.0499797277152538
93940	50	472	0	0	centerpiece	295	163	1	stimuli\centerpiece\centerpiece_07s.jpg	6	-1	1	0	centerpiece_07s.jpg	0	0	0	272.80407517869	272.854051492177	0.0499763134866953
94040	50	473	0	0	swimming_pool	1596	164	1	stimuli\swimming_pool\swimming_pool_07s.jpg	6	-1	1	0	swimming_pool_07s.jpg	0	0	0	272.90407339856	272.95405605156	0.0499826529994607
94140	50	474	0	0	margarita	973	165	1	stimuli\margarita\margarita_06s.jpg	5	-1	1	0	margarita_06s.jpg	0	0	0	273.004076738842	273.054058903828	0.0499821649864316
94240	50	475	0	0	wreath	1839	166	1	stimuli\wreath\wreath_11s.jpg	10	-1	1	0	wreath_11s.jpg	0	0	0	273.104081542231	273.15406224411	0.0499807018786669
94340	50	476	0	0	yoke	1849	167	1	stimuli\yoke\yoke_07s.jpg	6	-1	1	0	yoke_07s.jpg	0	0	0	273.204083175398	273.254066559486	0.0499833840876818
94440	50	477	0	0	matchbox	984	168	1	stimuli\matchbox\matchbox_02s.jpg	1	-1	1	0	matchbox_02s.jpg	0	0	0	273.304090172984	273.35406721849	0.0499770455062389
94540	50	478	0	0	aloe	14	169	1	stimuli\aloe\aloe_10s.jpg	9	-1	1	0	aloe_10s.jpg	0	0	0	273.404086686671	273.454075434245	0.049988747574389
94640	50	479	0	0	videogame	1762	170	1	stimuli\videogame\videogame_07s.jpg	6	-1	1	0	videogame_07s.jpg	0	0	0	273.504114651121	273.55407341104	0.0499587599188089
94740	50	480	0	0	leg	911	171	1	stimuli\leg\leg_05s.jpg	4	-1	1	0	leg_05s.jpg	0	0	0	273.604094098322	273.654077726416	0.0499836280941963
94840	50	481	0	0	artichoke	39	172	1	stimuli\artichoke\artichoke_11s.jpg	10	-1	1	0	artichoke_11s.jpg	0	0	0	273.704096219502	273.754093256779	0.0499970372766256
94940	50	482	0	0	roulette_wheel	1335	173	1	stimuli\roulette_wheel\roulette_wheel_10s.jpg	9	-1	1	1	roulette_wheel_10s.jpg	0	0	0	273.804099071771	273.854077580385	0.0499785086140037
95040	50	483	0	0	combination_lock	390	174	1	stimuli\combination_lock\combination_lock_12s.jpg	11	-1	1	0	combination_lock_12s.jpg	0	0	0	273.904102168046	273.954087015241	0.0499848471954465
95140	50	484	0	0	photo_booth	1163	175	1	stimuli\photo_booth\photo_booth_02s.jpg	1	-1	1	0	photo_booth_02s.jpg	0	0	0	274.004103558138	274.054085236043	0.0499816779047251
95240	50	485	0	0	stem	1547	176	1	stimuli\stem\stem_06s.jpg	5	-1	1	0	stem_06s.jpg	0	0	0	274.104129328392	274.1541017415	0.0499724131077528
95340	50	486	0	0	rim	1312	177	1	stimuli\rim\rim_07s.jpg	6	-1	1	0	rim_07s.jpg	1	0.441936647519469	1	274.20410828758	274.254111177288	0.0500028897076845
95440	50	487	0	0	drawer	516	178	1	stimuli\drawer\drawer_06s.jpg	5	-1	1	0	drawer_06s.jpg	0	0	0	274.304113334976	274.354094768874	0.0499814338982105
95540	50	488	0	0	screw	1390	179	1	stimuli\screw\screw_04s.jpg	3	-1	1	0	screw_04s.jpg	0	0	0	274.404113017954	274.454094451852	0.0499814338982105
95640	50	489	0	0	projector	1242	180	1	stimuli\projector\projector_10s.jpg	9	-1	1	0	projector_10s.jpg	0	0	0	274.504117089324	274.554098523222	0.0499814338982105
95740	50	490	0	0	book	165	181	1	stimuli\book\book_06s.jpg	5	-1	1	0	book_06s.jpg	0	0	0	274.604123354889	274.654100156389	0.0499768014997244
95840	50	491	0	0	potpie	1234	182	1	stimuli\potpie\potpie_05s.jpg	4	-1	1	0	potpie_05s.jpg	0	0	0	274.704122306779	274.754104471765	0.0499821649864316
95940	50	492	0	0	manatee	964	183	1	stimuli\manatee\manatee_09s.jpg	8	-1	1	0	manatee_09s.jpg	0	0	0	274.804126378149	274.854107080959	0.0499807028099895
96040	50	493	0	0	bowling_ball	179	184	1	stimuli\bowling_ball\bowling_ball_07s.jpg	6	-1	1	0	bowling_ball_07s.jpg	0	0	0	274.904129231349	274.954108714126	0.0499794827774167
96140	50	494	0	0	toolbox	1677	185	1	stimuli\toolbox\toolbox_06s.jpg	5	-1	1	0	toolbox_06s.jpg	0	0	0	275.004128914326	275.054112054408	0.0499831400811672
96240	50	495	0	0	dog	495	186	1	stimuli\dog\dog_01b.jpg	0	-1	1	0	dog_01b.jpg	0	0	0	275.104133473709	275.154116126709	0.0499826529994607
96340	50	496	0	0	envelope	558	187	1	stimuli\envelope\envelope_03s.jpg	2	-1	1	0	envelope_03s.jpg	0	0	0	275.204140470363	275.254117759876	0.0499772895127535
96440	50	497	0	0	soda_fountain	1491	188	1	stimuli\soda_fountain\soda_fountain_11s.jpg	10	-1	1	0	soda_fountain_11s.jpg	0	0	0	275.304138447158	275.35411963705	0.049981189891696
96540	50	498	0	0	dishrag	490	189	1	stimuli\dishrag\dishrag_07s.jpg	6	-1	1	0	dishrag_07s.jpg	0	0	0	275.404140812345	275.454122002237	0.049981189891696
96640	50	499	0	0	otter	1085	190	1	stimuli\otter\otter_07n.jpg	6	-1	1	0	otter_07n.jpg	0	0	0	275.504147565924	275.5541258296	0.0499782636761665
96740	50	500	0	0	pantyhose	1110	191	1	stimuli\pantyhose\pantyhose_07s.jpg	6	-1	1	0	pantyhose_07s.jpg	0	0	0	275.604147004895	275.654127219692	0.0499802147969604
96840	50	501	0	0	gun	727	192	1	stimuli\gun\gun_08n.jpg	7	-1	1	0	gun_08n.jpg	0	0	0	275.704147662967	275.75413007196	0.0499824089929461
96940	50	502	0	0	canvas	264	193	1	stimuli\canvas\canvas_03s.jpg	2	-1	1	0	canvas_03s.jpg	0	0	0	275.804151734337	275.854143652134	0.049991917796433
97040	50	503	0	0	latch	900	194	1	stimuli\latch\latch_12s.jpg	11	-1	1	0	latch_12s.jpg	0	0	0	275.904155074619	275.954137483612	0.0499824089929461
97140	50	504	0	0	almond	13	195	1	stimuli\almond\almond_12s.jpg	11	-1	1	0	almond_12s.jpg	0	0	0	276.004157439806	276.054137410596	0.0499799707904458
97240	50	505	0	0	shell3	1419	196	1	stimuli\shell3\shell3_02s.jpg	1	-1	1	0	shell3_02s.jpg	0	0	0	276.10416321829	276.154140994884	0.04997777659446
97340	50	506	0	0	straw1	1568	197	1	stimuli\straw1\straw1_05s.jpg	4	-1	1	0	straw1_05s.jpg	0	0	0	276.204168752767	276.25414531026	0.0499765574932098
97440	50	507	0	0	broom	203	198	1	stimuli\broom\broom_10s.jpg	9	-1	1	0	broom_10s.jpg	0	0	0	276.304166241549	276.354146700352	0.0499804588034749
97540	50	508	0	0	calf1	241	199	1	stimuli\calf1\calf1_09s.jpg	8	-1	1	0	calf1_09s.jpg	0	0	0	276.404169093817	276.454147358425	0.0499782646074891
97640	50	509	0	0	bone	161	200	1	stimuli\bone\bone_09s.jpg	8	-1	1	0	bone_09s.jpg	0	0	0	276.504172190093	276.554151185788	0.0499789956957102
97740	50	510	0	0	wallpaper	1777	201	1	stimuli\wallpaper\wallpaper_10s.jpg	9	-1	1	0	wallpaper_10s.jpg	0	0	0	276.604186014272	276.654155258089	0.0499692438170314
97840	50	511	0	0	pasta	1123	202	1	stimuli\pasta\pasta_10s.jpg	9	-1	1	0	pasta_10s.jpg	0	0	0	276.704174238257	276.754157135263	0.0499828970059752
97940	50	512	0	0	radish	1274	203	1	stimuli\radish\radish_11s.jpg	10	-1	1	0	radish_11s.jpg	0	0	0	276.804180991836	276.854160231538	0.0499792397022247
98040	50	513	0	0	hawk	760	204	1	stimuli\hawk\hawk_12s.jpg	11	-1	1	0	hawk_12s.jpg	0	0	0	276.904182381928	276.9541628398	0.0499804578721523
98140	50	514	0	0	lens	916	205	1	stimuli\lens\lens_12s.jpg	11	-1	1	0	lens_12s.jpg	0	0	0	277.00418499019	277.054165204987	0.0499802147969604
98240	50	515	0	0	nest	1056	206	1	stimuli\nest\nest_12s.jpg	11	-1	1	0	nest_12s.jpg	0	0	0	277.104185404256	277.154172202572	0.0499867983162403
98340	50	516	0	0	crab	428	207	1	stimuli\crab\crab_08s.jpg	7	-1	1	0	crab_08s.jpg	0	0	0	277.204190207645	277.254171397537	0.049981189891696
98440	50	517	0	0	bead	100	208	1	stimuli\bead\bead_09s.jpg	8	-1	1	0	bead_09s.jpg	0	0	0	277.304191841744	277.35417400673	0.0499821649864316
98540	50	518	0	0	turban	1730	209	1	stimuli\turban\turban_11s.jpg	10	-1	1	0	turban_11s.jpg	0	0	0	277.404194694012	277.454173689708	0.0499789956957102
98640	50	519	0	0	blinder	141	210	1	stimuli\blinder\blinder_02s.jpg	1	-1	1	0	blinder_02s.jpg	0	0	0	277.50419632718	277.554180443287	0.0499841161072254
98740	50	520	0	0	ferret	578	211	1	stimuli\ferret\ferret_02s.jpg	1	-1	1	0	ferret_02s.jpg	0	0	0	277.604211370461	277.654182808474	0.0499714380130172
98840	50	521	0	0	glasses	678	212	1	stimuli\glasses\glasses_03s.jpg	2	-1	1	0	glasses_03s.jpg	0	0	0	277.704201300628	277.75418322254	0.0499819219112396
98940	50	522	0	0	robe	1317	213	1	stimuli\robe\robe_10s.jpg	9	-1	1	0	robe_10s.jpg	0	0	0	277.80420464091	277.854198021814	0.0499933809041977
99040	50	523	0	0	knitting	880	214	1	stimuli\knitting\knitting_01b.jpg	0	-1	1	0	knitting_01b.jpg	0	0	0	277.904208956286	277.954190147109	0.0499811908230186
99140	50	524	0	0	chest2	320	215	1	stimuli\chest2\chest2_04s.jpg	3	-1	1	0	chest2_04s.jpg	0	0	0	278.004212296568	278.054192755371	0.0499804588034749
99240	50	525	0	0	air_pump	6	216	1	stimuli\air_pump\air_pump_02s.jpg	1	-1	1	0	air_pump_02s.jpg	0	0	0	278.104210517369	278.15419438947	0.0499838721007109
99340	50	526	0	0	camera2	247	217	1	stimuli\camera2\camera2_11s.jpg	10	-1	1	0	camera2_11s.jpg	0	0	0	278.204214832745	278.25419651065	0.0499816779047251
99440	50	527	0	0	chinchilla	332	218	1	stimuli\chinchilla\chinchilla_03s.jpg	2	-1	1	1	chinchilla_03s.jpg	0	0	0	278.304220123217	278.354209846817	0.0499897236004472
99540	50	528	0	0	thumbtack	1654	219	1	stimuli\thumbtack\thumbtack_12s.jpg	11	-1	1	0	thumbtack_12s.jpg	0	0	0	278.404233215377	278.454201728106	0.0499685127288103
99640	50	529	0	0	taxi	1630	220	1	stimuli\taxi\taxi_12s.jpg	11	-1	1	0	taxi_12s.jpg	0	0	0	278.504224609584	278.554204824381	0.0499802147969604
99740	50	530	0	0	pistachio	1188	221	1	stimuli\pistachio\pistachio_05s.jpg	4	-1	1	0	pistachio_05s.jpg	0	0	0	278.604226486757	278.654207188636	0.0499807018786669
99840	50	531	0	0	dolphin	502	222	1	stimuli\dolphin\dolphin_09n.jpg	8	-1	1	0	dolphin_09n.jpg	1	0.441921287216246	1	278.704226656817	278.754211748019	0.049985091201961
99940	50	532	0	0	scrabble	1385	223	1	stimuli\scrabble\scrabble_05s.jpg	4	-1	1	0	scrabble_05s.jpg	0	0	0	278.804231460206	278.854213138111	0.0499816779047251
100040	50	533	0	0	kayak	863	224	1	stimuli\kayak\kayak_06s.jpg	5	-1	1	0	kayak_06s.jpg	0	0	0	278.9042340694	278.954214528203	0.0499804588034749
100140	50	534	0	0	taillight	1617	225	1	stimuli\taillight\taillight_06s.jpg	5	-1	1	0	taillight_06s.jpg	0	0	0	279.004236433655	279.054220062681	0.0499836290255189
100240	50	535	0	0	banana_peel	64	226	1	stimuli\banana_peel\banana_peel_11s.jpg	10	-1	1	0	banana_peel_11s.jpg	0	0	0	279.104239042848	279.154221939854	0.0499828970059752
100340	50	536	0	0	meatloaf	990	227	1	stimuli\meatloaf\meatloaf_11s.jpg	10	-1	1	0	meatloaf_11s.jpg	0	0	0	279.204243846238	279.254225036129	0.049981189891696
100440	50	537	0	0	cornbread	413	228	1	stimuli\cornbread\cornbread_09s.jpg	8	-1	1	0	cornbread_09s.jpg	0	0	0	279.304244991392	279.354236909188	0.049991917796433
100540	50	538	0	0	burner	224	229	1	stimuli\burner\burner_11s.jpg	10	-1	1	0	burner_11s.jpg	0	0	0	279.404245893471	279.454228790477	0.0499828970059752
100640	50	539	0	0	backgammon	48	230	1	stimuli\backgammon\backgammon_07s.jpg	6	-1	1	0	backgammon_07s.jpg	0	0	0	279.504251427948	279.554230667651	0.0499792397022247
100740	50	540	0	0	windshield	1820	231	1	stimuli\windshield\windshield_03s.jpg	2	-1	1	0	windshield_03s.jpg	0	0	0	279.604253306054	279.654234007932	0.0499807018786669
100840	50	541	0	0	squeegee	1527	232	1	stimuli\squeegee\squeegee_03s.jpg	2	-1	1	0	squeegee_03s.jpg	0	0	0	279.704254939221	279.754236373119	0.0499814338982105
100940	50	542	0	0	cardboard	272	233	1	stimuli\cardboard\cardboard_05s.jpg	4	-1	1	0	cardboard_05s.jpg	0	0	0	279.804258523509	279.854240444489	0.049981920979917
101040	50	543	0	0	record	1295	234	1	stimuli\record\record_10s.jpg	9	-1	1	0	record_10s.jpg	0	0	0	279.904262350872	279.954242078587	0.0499797277152538
101140	50	544	0	0	swing_set	1599	235	1	stimuli\swing_set\swing_set_03s.jpg	2	-1	1	0	swing_set_03s.jpg	0	0	0	280.004264228046	280.054248100147	0.0499838721007109
101240	50	545	0	0	strawberry	1570	236	1	stimuli\strawberry\strawberry_06n.jpg	5	-1	1	0	strawberry_06n.jpg	0	0	0	280.10426610522	280.154248027131	0.0499819219112396
101340	50	546	0	0	payphone	1127	237	1	stimuli\payphone\payphone_06s.jpg	5	-1	1	0	payphone_06s.jpg	0	0	0	280.204266276211	280.254251855426	0.0499855792149901
101440	50	547	0	0	handle	748	238	1	stimuli\handle\handle_11s.jpg	10	-1	1	0	handle_11s.jpg	0	0	0	280.30427034758	280.354253975675	0.0499836280941963
101540	50	548	0	0	prism	1241	239	1	stimuli\prism\prism_05s.jpg	4	-1	1	0	prism_05s.jpg	0	0	0	280.404274175875	280.454255365767	0.049981189891696
101640	50	549	0	0	pedometer	1137	240	1	stimuli\pedometer\pedometer_08s.jpg	7	-1	1	0	pedometer_08s.jpg	0	0	0	280.504278491251	280.554259194061	0.0499807028099895
101740	50	550	0	0	cordon_bleu	408	241	1	stimuli\cordon_bleu\cordon_bleu_03s.jpg	2	-1	1	1	cordon_bleu_03s.jpg	0	0	0	280.604278418235	280.654260583222	0.0499821649864316
101840	50	551	0	0	trough	1718	242	1	stimuli\trough\trough_03s.jpg	2	-1	1	0	trough_03s.jpg	0	0	0	280.70428419672	280.754263192415	0.0499789956957102
101940	50	552	0	0	ham	739	243	1	stimuli\ham\ham_09s.jpg	8	-1	1	0	ham_09s.jpg	0	0	0	280.804285829887	280.854265556671	0.0499797267839313
102040	50	553	0	0	hoe	784	244	1	stimuli\hoe\hoe_03s.jpg	2	-1	1	0	hoe_03s.jpg	0	0	0	280.904293314554	280.954269384965	0.0499760704115033
102140	50	554	0	0	ruler	1341	245	1	stimuli\ruler\ruler_09s.jpg	8	-1	1	0	ruler_09s.jpg	0	0	0	281.004288365133	281.054271018133	0.0499826529994607
102240	50	555	0	0	buoy	223	246	1	stimuli\buoy\buoy_12s.jpg	11	-1	1	0	buoy_12s.jpg	1	0.500192974694073	1	281.104295362718	281.154274602421	0.0499792397022247
102340	50	556	0	0	rain_gauge	1278	247	1	stimuli\rain_gauge\rain_gauge_11s.jpg	10	-1	1	0	rain_gauge_11s.jpg	0	0	0	281.204296020791	281.254276723601	0.0499807028099895
102440	50	557	0	0	calculator	240	248	1	stimuli\calculator\calculator_05s.jpg	4	-1	1	0	calculator_05s.jpg	0	0	0	281.304301312193	281.354280550964	0.0499792387709022
102540	50	558	0	0	pendulum	1144	249	1	stimuli\pendulum\pendulum_07s.jpg	6	-1	1	0	pendulum_07s.jpg	0	0	0	281.404300995171	281.454283160158	0.0499821649864316
102640	50	559	0	0	stamp2	1536	250	1	stimuli\stamp2\stamp2_07s.jpg	6	-1	1	0	stamp2_07s.jpg	0	0	0	281.504303603433	281.55428455025	0.049980946816504
102740	50	560	0	0	turtle	1736	251	1	stimuli\turtle\turtle_04s.jpg	3	-1	1	0	turtle_04s.jpg	0	0	0	281.604310845025	281.654286914505	0.0499760694801807
102840	50	561	0	0	meerkat	992	252	1	stimuli\meerkat\meerkat_01b.jpg	0	-1	1	0	meerkat_01b.jpg	0	0	0	281.704308576882	281.754290254787	0.0499816779047251
102940	50	562	0	0	tostada	1688	253	1	stimuli\tostada\tostada_04s.jpg	3	-1	1	0	tostada_04s.jpg	0	0	0	281.804309722967	281.854291400872	0.0499816779047251
103040	50	563	0	0	polar_bear	1211	254	1	stimuli\polar_bear\polar_bear_02s.jpg	1	-1	1	0	polar_bear_02s.jpg	0	0	0	281.904313307256	281.95429693535	0.0499836280941963
103140	50	564	0	0	gingerbread_man	674	255	1	stimuli\gingerbread_man\gingerbread_man_08s.jpg	7	-1	1	0	gingerbread_man_08s.jpg	0	0	0	282.004319572821	282.054298081435	0.0499785086140037
103240	50	565	0	0	radio	1273	256	1	stimuli\radio\radio_02s.jpg	1	-1	1	0	radio_02s.jpg	0	0	0	282.10432120692	282.154302640818	0.0499814338982105
103340	50	566	0	0	penholder	1146	257	1	stimuli\penholder\penholder_04s.jpg	3	-1	1	0	penholder_04s.jpg	0	0	0	282.204323084094	282.254314513877	0.0499914297834039
103440	50	567	0	0	candelabra	252	258	1	stimuli\candelabra\candelabra_12s.jpg	11	-1	1	0	candelabra_12s.jpg	0	0	0	282.304329837672	282.354306151159	0.0499763134866953
103540	50	568	0	0	flagpole	606	259	1	stimuli\flagpole\flagpole_06s.jpg	5	-1	1	0	flagpole_06s.jpg	0	0	0	282.404325375333	282.454312660731	0.0499872853979468
103640	50	569	0	0	foam	624	260	1	stimuli\foam\foam_05s.jpg	4	-1	1	0	foam_05s.jpg	0	0	0	282.504331397824	282.55431039352	0.0499789956957102
103740	50	570	0	0	donut	505	261	1	stimuli\donut\donut_03s.jpg	2	-1	1	0	donut_03s.jpg	0	0	0	282.60433254391	282.654314464889	0.049981920979917
103840	50	571	0	0	hot_chocolate	803	262	1	stimuli\hot_chocolate\hot_chocolate_11s.jpg	10	-1	1	0	hot_chocolate_11s.jpg	0	0	0	282.704334421083	282.754316342995	0.0499819219112396
103940	50	572	0	0	steering_wheel	1546	263	1	stimuli\steering_wheel\steering_wheel_09s.jpg	8	-1	1	0	steering_wheel_09s.jpg	0	0	0	282.804336542264	282.854324071668	0.0499875294044614
104040	50	573	0	0	guacamole	719	264	1	stimuli\guacamole\guacamole_01b.jpg	0	-1	1	0	guacamole_01b.jpg	0	0	0	282.904341588728	282.954321316443	0.0499797277152538
104140	50	574	0	0	apple_tree	31	265	1	stimuli\apple_tree\apple_tree_07s.jpg	6	-1	1	0	apple_tree_07s.jpg	0	0	0	283.004343222827	283.054324412718	0.049981189891696
104240	50	575	0	0	pacifier	1093	266	1	stimuli\pacifier\pacifier_11s.jpg	10	-1	1	0	pacifier_11s.jpg	0	0	0	283.104346563108	283.154330435209	0.0499838721007109
104340	50	576	0	0	juice	854	267	1	stimuli\juice\juice_04s.jpg	3	-1	1	0	juice_04s.jpg	0	0	0	283.20434990339	283.25433182437	0.049981920979917
104440	50	577	0	0	cocktail	374	268	1	stimuli\cocktail\cocktail_08s.jpg	7	-1	1	0	cocktail_08s.jpg	0	0	0	283.304354705848	283.354332482442	0.04997777659446
104540	50	578	0	0	omelet	1076	269	1	stimuli\omelet\omelet_07s.jpg	6	-1	1	0	omelet_07s.jpg	0	0	0	283.404354388826	283.454335822724	0.0499814338982105
104640	50	579	0	0	hula_hoop	810	270	1	stimuli\hula_hoop\hula_hoop_06s.jpg	5	-1	1	0	hula_hoop_06s.jpg	0	0	0	283.504358461127	283.554338431917	0.0499799707904458
104740	50	580	0	0	ski_boots	1453	271	1	stimuli\ski_boots\ski_boots_06s.jpg	5	-1	1	0	ski_boots_06s.jpg	0	0	0	283.604359119199	283.654342747293	0.0499836280941963
104840	50	581	0	0	honey	788	272	1	stimuli\honey\honey_09s.jpg	8	-1	1	0	honey_09s.jpg	0	0	0	283.704363921657	283.754345599562	0.0499816779047251
104940	50	582	0	0	dagger	469	273	1	stimuli\dagger\dagger_01b.jpg	0	-1	1	0	dagger_01b.jpg	0	0	0	283.804362873547	283.854346745647	0.0499838721007109
105040	50	583	0	0	earring	540	274	1	stimuli\earring\earring_01b.jpg	0	-1	1	0	earring_01b.jpg	0	0	0	283.90436743293	283.954363983124	0.0499965501949191
105140	50	584	0	0	couch	422	275	1	stimuli\couch\couch_09s.jpg	8	-1	1	0	couch_09s.jpg	0	0	0	284.00436955411	284.054351963103	0.0499824089929461
105240	50	585	0	0	fencepost	576	276	1	stimuli\fencepost\fencepost_02s.jpg	1	-1	1	0	fencepost_02s.jpg	0	0	0	284.104376063682	284.15435359627	0.0499775325879455
105340	50	586	0	0	file2	584	277	1	stimuli\file2\file2_07s.jpg	6	-1	1	0	file2_07s.jpg	0	0	0	284.204375990666	284.25435644947	0.0499804588034749
105440	50	587	0	0	eye_patch	565	278	1	stimuli\eye_patch\eye_patch_11s.jpg	10	-1	1	0	eye_patch_11s.jpg	0	0	0	284.304378598928	284.354357351549	0.0499787526205182
105540	50	588	0	0	wall	1775	279	1	stimuli\wall\wall_06s.jpg	5	-1	1	0	wall_06s.jpg	0	0	0	284.404381208122	284.454364349134	0.0499831410124898
105640	50	589	0	0	headband	762	280	1	stimuli\headband\headband_04s.jpg	3	-1	1	0	headband_04s.jpg	0	0	0	284.504382354207	284.554365494289	0.0499831400811672
105740	50	590	0	0	basket	82	281	1	stimuli\basket\basket_03s.jpg	2	-1	1	0	basket_03s.jpg	0	0	0	284.60438691359	284.654367372394	0.0499804588034749
105840	50	591	0	0	lip_balm	934	282	1	stimuli\lip_balm\lip_balm_02s.jpg	1	-1	1	0	lip_balm_02s.jpg	0	0	0	284.704388546757	284.754369736649	0.049981189891696
105940	50	592	0	0	ginger	673	283	1	stimuli\ginger\ginger_02s.jpg	1	-1	1	1	ginger_02s.jpg	0	0	0	284.804389692843	284.854372345842	0.0499826529994607
106040	50	593	0	0	magnifier	957	284	1	stimuli\magnifier\magnifier_12s.jpg	11	-1	1	0	magnifier_12s.jpg	0	0	0	284.904394739307	284.954376173206	0.0499814338982105
106140	50	594	0	0	satellite	1360	285	1	stimuli\satellite\satellite_01b.jpg	0	-1	1	0	satellite_01b.jpg	0	0	0	285.004395641387	285.054378538392	0.0499828970059752
106240	50	595	0	0	speedboat	1511	286	1	stimuli\speedboat\speedboat_12s.jpg	11	-1	1	0	speedboat_12s.jpg	0	0	0	285.104399225675	285.154381147586	0.0499819219112396
106340	50	596	0	0	spout	1520	287	1	stimuli\spout\spout_12s.jpg	11	-1	1	0	spout_12s.jpg	1	0.392171715386212	1	285.204407198355	285.254383999854	0.0499768014997244
106440	50	597	0	0	sprouts	1524	288	1	stimuli\sprouts\sprouts_08s.jpg	7	-1	1	0	sprouts_08s.jpg	0	0	0	285.30440834444	285.354384170845	0.0499758264049888
106540	50	598	0	0	snail	1476	289	1	stimuli\snail\snail_07s.jpg	6	-1	1	0	snail_07s.jpg	0	0	0	285.404410952702	285.454400432296	0.0499894795939326
106640	50	599	0	0	teddy_bear	1635	290	1	stimuli\teddy_bear\teddy_bear_05s.jpg	4	-1	1	0	teddy_bear_05s.jpg	0	0	0	285.504410391673	285.554393288679	0.0499828970059752
106740	50	600	0	0	cheesecake	314	291	1	stimuli\cheesecake\cheesecake_08s.jpg	7	-1	1	0	cheesecake_08s.jpg	0	0	0	285.604412269779	285.654393703677	0.0499814338982105
106840	50	601	0	0	radar	1271	292	1	stimuli\radar\radar_01s.jpg	0	-1	1	0	radar_01s.jpg	0	0	0	285.704414634034	285.754397287033	0.0499826529994607
106940	50	602	0	0	sweatsuit	1593	293	1	stimuli\sweatsuit\sweatsuit_08s.jpg	7	-1	1	0	sweatsuit_08s.jpg	0	0	0	285.804422362708	285.854398189113	0.0499758264049888
107040	50	603	0	0	grits	717	294	1	stimuli\grits\grits_04s.jpg	3	-1	1	0	grits_04s.jpg	0	0	0	285.904424240813	285.954401285388	0.0499770445749164
107140	50	604	0	0	game	654	295	1	stimuli\game\game_12s.jpg	11	-1	1	0	game_12s.jpg	0	0	0	286.004422948696	286.054404138587	0.049981189891696
107240	50	605	0	0	oilcan	1073	296	1	stimuli\oilcan\oilcan_04s.jpg	3	-1	1	0	oilcan_04s.jpg	0	0	0	286.104424581863	286.154407721944	0.0499831400811672
107340	50	606	0	0	horseshoe	799	297	1	stimuli\horseshoe\horseshoe_01b.jpg	0	-1	1	0	horseshoe_01b.jpg	0	0	0	286.204429628327	286.254410087131	0.0499804588034749
107440	50	607	0	0	grenade	713	298	1	stimuli\grenade\grenade_04s.jpg	3	-1	1	0	grenade_04s.jpg	0	0	0	286.304431262426	286.354422936216	0.0499916737899184
107540	50	608	0	0	pen	1141	299	1	stimuli\pen\pen_08s.jpg	7	-1	1	0	pen_08s.jpg	0	0	0	286.404435089789	286.454423838295	0.0499887485057116
107640	50	609	0	0	tiara	1655	300	1	stimuli\tiara\tiara_12s.jpg	11	-1	1	0	tiara_12s.jpg	0	0	0	286.504437454976	286.55442108307	0.0499836280941963
107740	50	610	0	0	sling	1466	301	1	stimuli\sling\sling_09s.jpg	8	-1	1	0	sling_09s.jpg	0	0	0	286.604444939643	286.654421254061	0.0499763144180179
107840	50	611	0	0	bubble	207	302	1	stimuli\bubble\bubble_12s.jpg	11	-1	1	0	bubble_12s.jpg	0	0	0	286.704439747147	286.754421668127	0.049981920979917
107940	50	612	0	0	garbage	655	303	1	stimuli\garbage\garbage_09s.jpg	8	-1	1	0	garbage_09s.jpg	0	0	0	286.804446012713	286.85442622751	0.0499802147969604
108040	50	613	0	0	soup	1499	304	1	stimuli\soup\soup_08s.jpg	7	-1	1	0	soup_08s.jpg	0	0	0	286.904446183704	286.954427860677	0.0499816769734025
108140	50	614	0	0	thermometer	1646	305	1	stimuli\thermometer\thermometer_08s.jpg	7	-1	1	0	thermometer_08s.jpg	0	0	0	287.004449767061	287.054430957884	0.0499811908230186
108240	50	615	0	0	bamboo	62	306	1	stimuli\bamboo\bamboo_12s.jpg	11	-1	1	0	bamboo_12s.jpg	0	0	0	287.104452132247	287.154435760342	0.0499836280941963
108340	50	616	0	0	wheat	1805	307	1	stimuli\wheat\wheat_10s.jpg	9	-1	1	0	wheat_10s.jpg	0	0	0	287.204461324029	287.254436662421	0.0499753383919597
108440	50	617	0	0	curry	464	308	1	stimuli\curry\curry_01b.jpg	0	-1	1	0	curry_01b.jpg	0	0	0	287.304456618614	287.354439758696	0.0499831400811672
118940	50	618	0	0	horn	797	0	2	stimuli\horn\horn_02s.jpg	1	-1	2	0	horn_02s.jpg	0	0	0	297.804753212258	297.854730989784	0.0499777775257826
119040	50	619	0	0	skull	1458	1	2	stimuli\skull\skull_11s.jpg	10	-1	2	0	skull_11s.jpg	0	0	0	297.904749725945	297.954731891863	0.0499821659177542
119140	50	620	0	0	chariot	309	2	2	stimuli\chariot\chariot_07s.jpg	6	-1	2	0	chariot_07s.jpg	0	0	0	298.004755016416	298.054735719226	0.0499807028099895
119240	50	621	0	0	swan	1591	3	2	stimuli\swan\swan_10s.jpg	9	-1	2	0	swan_10s.jpg	0	0	0	298.104756894521	298.154716385528	0.04995949100703
119340	50	622	0	0	shaving_cream	1410	4	2	stimuli\shaving_cream\shaving_cream_09s.jpg	8	-1	2	0	shaving_cream_09s.jpg	0	0	0	298.204761940986	298.254731184803	0.0499692438170314
119440	50	623	0	0	cufflink	458	5	2	stimuli\cufflink\cufflink_01b.jpg	0	-1	2	0	cufflink_01b.jpg	0	0	0	298.304764306173	298.354732086882	0.0499677807092667
119540	50	624	0	0	bear	105	6	2	stimuli\bear\bear_01b.jpg	0	-1	2	0	bear_01b.jpg	0	0	0	298.404779349454	298.454746398143	0.049967048689723
119640	50	625	0	0	hummus	812	7	2	stimuli\hummus\hummus_07s.jpg	6	-1	2	0	hummus_07s.jpg	0	0	0	298.504768548533	298.55474876333	0.0499802147969604
119740	50	626	0	0	speaker	1509	8	2	stimuli\speaker\speaker_11s.jpg	10	-1	2	0	speaker_11s.jpg	0	0	0	298.604770425707	298.654750640504	0.0499802147969604
119840	50	627	0	0	doorknocker	510	9	2	stimuli\doorknocker\doorknocker_08s.jpg	7	-1	2	0	doorknocker_08s.jpg	0	0	0	298.704773521982	298.754754224792	0.0499807028099895
119940	50	628	0	0	shoe	1423	10	2	stimuli\shoe\shoe_11s.jpg	10	-1	2	0	shoe_11s.jpg	0	0	0	298.804776374251	298.85476487875	0.049988504499197
120040	50	629	0	0	aquarium	34	11	2	stimuli\aquarium\aquarium_10s.jpg	9	-1	2	0	aquarium_10s.jpg	0	0	0	298.904777520336	298.954760417342	0.0499828970059752
120140	50	630	0	0	snowmobile	1483	12	2	stimuli\snowmobile\snowmobile_06s.jpg	5	-1	2	0	snowmobile_06s.jpg	0	0	0	299.004782323726	299.054761075415	0.0499787516891956
120240	50	631	0	0	revolver	1304	13	2	stimuli\revolver\revolver_07s.jpg	6	-1	2	0	revolver_07s.jpg	0	0	0	299.104780543596	299.154778556898	0.0499980133026838
120340	50	632	0	0	breathalyzer	198	14	2	stimuli\breathalyzer\breathalyzer_05s.jpg	4	-1	2	0	breathalyzer_05s.jpg	0	0	0	299.204785590991	299.25476702489	0.0499814338982105
120440	50	633	0	0	paintbrush	1097	15	2	stimuli\paintbrush\paintbrush_01b.jpg	0	-1	2	0	paintbrush_01b.jpg	0	0	0	299.304788199253	299.354769877158	0.0499816779047251
120540	50	634	0	0	float	616	16	2	stimuli\float\float_06s.jpg	5	-1	2	0	float_06s.jpg	0	0	0	299.404793245718	299.45477248542	0.0499792397022247
120640	50	635	0	0	button2	231	17	2	stimuli\button2\button2_08s.jpg	7	-1	2	0	button2_08s.jpg	0	0	0	299.504795610905	299.554775825702	0.0499802147969604
120740	50	636	0	0	pretzel	1239	18	2	stimuli\pretzel\pretzel_12s.jpg	11	-1	2	1	pretzel_12s.jpg	0	0	0	299.604797732085	299.654782335274	0.0499846031889319
120840	50	637	0	0	barcode	73	19	2	stimuli\barcode\barcode_09s.jpg	8	-1	2	0	barcode_09s.jpg	0	0	0	299.704797415063	299.754781043157	0.0499836280941963
120940	50	638	0	0	laptop	897	20	2	stimuli\laptop\laptop_04s.jpg	3	-1	2	0	laptop_04s.jpg	0	0	0	299.804807094857	299.854785115458	0.0499780206009746
121040	50	639	0	0	pinecone	1183	21	2	stimuli\pinecone\pinecone_11s.jpg	10	-1	2	0	pinecone_11s.jpg	1	0.355629061348736	1	299.904806777835	299.954786017537	0.0499792397022247
121140	50	640	0	0	hose	800	22	2	stimuli\hose\hose_03s.jpg	2	-1	2	0	hose_03s.jpg	0	0	0	300.004808899015	300.0547898449	0.0499809458851814
121240	50	641	0	0	food_processor	627	23	2	stimuli\food_processor\food_processor_08s.jpg	7	-1	2	0	food_processor_08s.jpg	0	0	0	300.104810288176	300.154792454094	0.0499821659177542
121340	50	642	0	0	magnifying_glass	958	24	2	stimuli\magnifying_glass\magnifying_glass_04s.jpg	3	-1	2	0	magnifying_glass_04s.jpg	0	0	0	300.204815579578	300.254796281457	0.0499807018786669
121440	50	643	0	0	lego	913	25	2	stimuli\lego\lego_07s.jpg	6	-1	2	0	lego_07s.jpg	0	0	0	300.304817699827	300.354803035036	0.0499853352084756
121540	50	644	0	0	water_heater	1791	26	2	stimuli\water_heater\water_heater_05s.jpg	4	-1	2	0	water_heater_05s.jpg	0	0	0	300.404821040109	300.454802474007	0.0499814338982105
121640	50	645	0	0	visor	1766	27	2	stimuli\visor\visor_01b.jpg	0	-1	2	0	visor_01b.jpg	0	0	0	300.504819016904	300.55480191391	0.0499828970059752
121740	50	646	0	0	pumpkin	1253	28	2	stimuli\pumpkin\pumpkin_11s.jpg	10	-1	2	0	pumpkin_11s.jpg	0	0	0	300.604825282469	300.654803059064	0.04997777659446
121840	50	647	0	0	cheeseburger	313	29	2	stimuli\cheeseburger\cheeseburger_12s.jpg	11	-1	2	0	cheeseburger_12s.jpg	0	0	0	300.704825941473	300.754805424251	0.0499794827774167
121940	50	648	0	0	wire_cutters	1829	30	2	stimuli\wire_cutters\wire_cutters_01b.jpg	0	-1	2	0	wire_cutters_01b.jpg	0	0	0	300.804828305729	300.854809983633	0.0499816779047251
122040	50	649	0	0	footprint	632	31	2	stimuli\footprint\footprint_01b.jpg	0	-1	2	0	footprint_01b.jpg	0	0	0	300.904830182903	300.954810641706	0.0499804588034749
122141	50	650	0	0	duster	534	32	2	stimuli\duster\duster_11s.jpg	10	-1	2	0	duster_11s.jpg	0	0	0	301.004834011197	301.054816176184	0.0499821649864316
122240	50	651	0	0	jersey	846	33	2	stimuli\jersey\jersey_12s.jpg	11	-1	2	0	jersey_12s.jpg	0	0	0	301.104835157283	301.154822198674	0.0499870413914323
122340	50	652	0	0	lemon	914	34	2	stimuli\lemon\lemon_10s.jpg	9	-1	2	0	lemon_10s.jpg	0	0	0	301.20484069176	301.254819931462	0.0499792397022247
122441	50	653	0	0	hash	756	35	2	stimuli\hash\hash_05s.jpg	4	-1	2	0	hash_05s.jpg	0	0	0	301.304839642718	301.354839606211	0.0499999634921551
