onset	duration	eventnumber	blocksequencenumber	isteststim	object	objectnumber	presentationnumber	sequencenumber	stim	stimnumber	teststimnumber	withinsequencenumber	istarget	stimname	response	rt	correct	time_stimon	time_stimoff	stimdur
11658	50	0	0	0	squirt_gun	1530	0	0	stimuli\squirt_gun\squirt_gun_09s.jpg	8	-1	0	0	squirt_gun_09s.jpg	0	0	0	108.792215644778	108.842195652385	0.0499800076067913
11758	50	1	0	0	cornmeal	415	1	0	stimuli\cornmeal\cornmeal_12s.jpg	11	-1	0	0	cornmeal_12s.jpg	0	0	0	108.892223202878	108.942197115244	0.0499739123661129
11858	50	2	0	0	saltshaker	1350	2	0	stimuli\saltshaker\saltshaker_07s.jpg	6	-1	0	0	saltshaker_07s.jpg	0	0	0	108.992217839066	109.042196140006	0.0499783009399835
11958	50	3	0	0	cot	420	3	0	stimuli\cot\cot_11s.jpg	10	-1	0	0	cot_11s.jpg	0	0	0	109.092221008592	109.142192970481	0.0499719618892414
12058	50	4	0	0	lab_coat	885	4	0	stimuli\lab_coat\lab_coat_02s.jpg	1	-1	0	0	lab_coat_02s.jpg	0	0	0	109.192209061919	109.242190776193	0.0499817142735992
12158	50	5	0	0	pot	1230	5	0	stimuli\pot\pot_06s.jpg	5	-1	0	0	pot_06s.jpg	0	0	0	109.292215157162	109.342832239443	0.0506170822809509
12258	50	6	0	0	paper_plate	1114	6	0	stimuli\paper_plate\paper_plate_05s.jpg	4	-1	0	0	paper_plate_05s.jpg	0	0	0	109.392231980029	109.442202479058	0.0499704990288592
12358	50	7	0	0	bell	116	7	0	stimuli\bell\bell_11s.jpg	10	-1	0	0	bell_11s.jpg	0	0	0	109.492221740024	109.542198578103	0.0499768380796013
12458	50	8	0	0	cannonball	261	8	0	stimuli\cannonball\cannonball_11s.jpg	10	-1	0	0	cannonball_11s.jpg	0	0	0	109.592223446689	109.642233686696	0.0500102400073956
12558	50	9	0	0	suspenders	1589	9	0	stimuli\suspenders\suspenders_06s.jpg	5	-1	0	0	suspenders_06s.jpg	0	0	0	109.692254898138	109.74222198383	0.0499670856916055
12658	50	10	0	0	straightjacket	1565	10	0	stimuli\straightjacket\straightjacket_01b.jpg	0	-1	0	0	straightjacket_01b.jpg	0	0	0	109.79222978574	109.842212231444	0.0499824457037903
12758	50	11	0	0	marshmallow	977	11	0	stimuli\marshmallow\marshmallow_06s.jpg	5	-1	0	0	marshmallow_06s.jpg	0	0	0	109.89223685622	109.942214181923	0.0499773257033667
12858	50	12	0	0	bassinet	85	12	0	stimuli\bassinet\bassinet_06s.jpg	5	-1	0	0	bassinet_06s.jpg	0	0	0	109.992236124792	110.042219545736	0.0499834209440451
12958	50	13	0	0	sombrero	1495	13	0	stimuli\sombrero\sombrero_04s.jpg	3	-1	0	0	sombrero_04s.jpg	0	0	0	110.092234418124	110.142215157161	0.0499807390369824
13058	50	14	0	0	seatbelt	1399	14	0	stimuli\seatbelt\seatbelt_09s.jpg	8	-1	0	0	seatbelt_09s.jpg	0	0	0	110.192235637172	110.242217839066	0.0499822018937266
13158	50	15	0	0	rag	1276	15	0	stimuli\rag\rag_04s.jpg	3	-1	0	0	rag_04s.jpg	0	0	0	110.292237587651	110.342219789545	0.0499822018937266
13258	50	16	0	0	mousetrap	1029	16	0	stimuli\mousetrap\mousetrap_03s.jpg	2	-1	0	0	mousetrap_03s.jpg	0	0	0	110.392240757177	110.442222959071	0.0499822018937266
13358	50	17	0	0	clasp	351	17	0	stimuli\clasp\clasp_06s.jpg	5	-1	0	0	clasp_06s.jpg	0	0	0	110.492244170513	110.54222442193	0.049980251416855
13458	50	18	0	0	reindeer	1301	18	0	stimuli\reindeer\reindeer_03s.jpg	2	-1	0	0	reindeer_03s.jpg	0	0	0	110.592264162904	110.642233686696	0.0499695237922424
13558	50	19	0	0	knife	879	19	0	stimuli\knife\knife_07s.jpg	6	-1	0	0	knife_07s.jpg	0	0	0	110.692253435278	110.742231004788	0.0499775695097924
13658	50	20	0	0	dogfood	496	20	0	stimuli\dogfood\dogfood_02s.jpg	1	-1	0	0	dogfood_02s.jpg	0	0	0	110.792254654327	110.842233686697	0.0499790323701745
13758	50	21	0	0	stained_glass	1531	21	0	stimuli\stained_glass\stained_glass_11s.jpg	10	-1	0	0	stained_glass_11s.jpg	0	0	0	110.892258067663	110.942235393362	0.0499773256997287
13858	50	22	0	0	jackhammer	837	22	0	stimuli\jackhammer\jackhammer_01b.jpg	0	-1	0	0	jackhammer_01b.jpg	0	0	0	110.992256604804	111.042240269559	0.0499836647541088
13958	50	23	0	0	slipper	1468	23	0	stimuli\slipper\slipper_03s.jpg	2	-1	0	0	slipper_03s.jpg	0	0	0	111.09226074957	111.142247096228	0.0499863466575334
14058	50	24	0	0	tuning_fork	1728	24	0	stimuli\tuning_fork\tuning_fork_11s.jpg	10	-1	0	0	tuning_fork_11s.jpg	0	0	0	111.192263675286	111.242247096226	0.0499834209404071
14158	50	25	0	0	cornbread	413	25	0	stimuli\cornbread\cornbread_06s.jpg	5	-1	0	0	cornbread_06s.jpg	0	0	0	111.292264650525	111.342248315275	0.0499836647504708
14258	50	26	0	0	tablet	1610	26	0	stimuli\tablet\tablet_10s.jpg	9	-1	0	0	tablet_10s.jpg	0	0	0	111.392274890532	111.442269770527	0.0499948799952108
14358	50	27	0	0	shell2	1418	27	0	stimuli\shell2\shell2_09s.jpg	8	-1	0	0	shell2_09s.jpg	0	0	0	111.492284642918	111.542268307669	0.0499836647504708
14458	50	28	0	0	van	1752	28	0	stimuli\van\van_05s.jpg	4	-1	0	0	van_05s.jpg	0	0	0	111.592291469588	111.642277572439	0.0499861028511077
14558	50	29	0	0	balance_beam	58	29	0	stimuli\balance_beam\balance_beam_10s.jpg	9	-1	0	0	balance_beam_10s.jpg	0	0	0	111.692293907687	111.74227440291	0.0499804952232807
14658	50	30	0	0	sausage	1365	30	0	stimuli\sausage\sausage_11s.jpg	10	-1	0	0	sausage_11s.jpg	0	0	0	111.792296101972	111.842278547676	0.0499824457037903
14758	50	31	0	0	urn	1749	31	0	stimuli\urn\urn_03s.jpg	2	-1	0	0	urn_03s.jpg	0	0	0	111.892298783878	111.942275621961	0.0499768380832393
14858	50	32	0	0	crystal_ball	455	32	0	stimuli\crystal_ball\crystal_ball_11s.jpg	10	-1	0	0	crystal_ball_11s.jpg	0	0	0	111.992299271496	112.042279522913	0.049980251416855
14958	50	33	0	0	centerpiece	295	33	0	stimuli\centerpiece\centerpiece_06s.jpg	5	-1	0	0	centerpiece_06s.jpg	0	0	0	112.092307317216	112.142278791485	0.049971474269114
15058	50	34	0	0	cap	265	34	0	stimuli\cap\cap_05s.jpg	4	-1	0	0	cap_05s.jpg	0	0	0	112.192299515307	112.242282448631	0.0499829333239177
15158	50	35	0	0	cross	443	35	0	stimuli\cross\cross_04s.jpg	3	-1	0	0	cross_04s.jpg	0	0	0	112.292309755314	112.342288056254	0.0499783009399835
15258	50	36	0	0	popcorn	1223	36	0	stimuli\popcorn\popcorn_10s.jpg	9	-1	0	0	popcorn_10s.jpg	0	0	0	112.392312193409	112.442291713396	0.0499795199866639
15358	50	37	0	0	meatball	989	37	0	stimuli\meatball\meatball_03s.jpg	2	-1	0	0	meatball_03s.jpg	0	0	0	112.492314143889	112.542295126732	0.0499809828434081
15458	50	38	0	0	trophy	1717	38	0	stimuli\trophy\trophy_09s.jpg	8	-1	0	0	trophy_09s.jpg	0	0	0	112.592316825794	112.642300734355	0.0499839085605345
15558	50	39	0	0	strap	1567	39	0	stimuli\strap\strap_04s.jpg	3	-1	0	0	strap_04s.jpg	0	0	0	112.692316338176	112.742299027686	0.049982689510216
15658	50	40	0	0	hopscotch	796	40	0	stimuli\hopscotch\hopscotch_11s.jpg	10	-1	0	0	hopscotch_11s.jpg	0	0	0	112.792317557221	112.842298783879	0.0499812266571098
15758	50	41	0	0	handcuff	746	41	0	stimuli\handcuff\handcuff_03s.jpg	2	-1	0	0	handcuff_03s.jpg	0	0	0	112.892346082954	112.942307073408	0.049960990454565
15858	50	42	0	0	doily	498	42	0	stimuli\doily\doily_08s.jpg	7	-1	0	0	doily_08s.jpg	0	0	0	112.992345839146	113.042325846753	0.0499800076067913
15958	50	43	0	0	tractor	1695	43	0	stimuli\tractor\tractor_03s.jpg	2	-1	0	0	tractor_03s.jpg	0	0	0	113.092347789621	113.142330235325	0.0499824457037903
16058	50	44	0	0	plastic_film	1196	44	0	stimuli\plastic_film\plastic_film_08s.jpg	7	-1	0	0	plastic_film_08s.jpg	0	0	0	113.192351202957	113.242315119125	0.0499639161680534
16158	50	45	0	0	banana	63	45	0	stimuli\banana\banana_01b.jpg	0	-1	0	0	banana_01b.jpg	0	0	0	113.292347789622	113.342310730553	0.0499629409314366
16258	50	46	0	0	bamboo	62	46	0	stimuli\bamboo\bamboo_02s.jpg	1	-1	0	0	bamboo_02s.jpg	0	0	0	113.392332185802	113.442322189607	0.0499900038048509
16358	50	47	0	0	speaker	1509	47	0	stimuli\speaker\speaker_03s.jpg	2	-1	0	0	speaker_03s.jpg	0	0	0	113.492362662011	113.54233389247	0.0499712304590503
16458	50	48	0	0	fishbowl	601	48	0	stimuli\fishbowl\fishbowl_01b.jpg	0	-1	0	0	fishbowl_01b.jpg	0	0	0	113.592340231524	113.642320239131	0.0499800076067913
16558	50	49	0	0	tupperware	1729	49	0	stimuli\tupperware\tupperware_12s.jpg	11	-1	0	0	tupperware_12s.jpg	0	0	0	113.692340231522	113.742323164846	0.0499829333239177
16658	50	50	0	0	paper_bag	1113	50	0	stimuli\paper_bag\paper_bag_04s.jpg	3	-1	0	0	paper_bag_04s.jpg	0	0	0	113.792366562968	113.842349740098	0.0499831771303434
16758	50	51	0	0	pajamas	1099	51	0	stimuli\pajamas\pajamas_05s.jpg	4	-1	0	0	pajamas_05s.jpg	0	0	0	113.892369732494	113.942350715337	0.0499809828434081
16858	50	52	0	0	candlestick	254	52	0	stimuli\candlestick\candlestick_04s.jpg	3	-1	0	0	candlestick_04s.jpg	0	0	0	113.992369732492	114.042343888668	0.0499741561761766
16958	50	53	0	0	mustache	1043	53	0	stimuli\mustache\mustache_06s.jpg	5	-1	0	0	mustache_06s.jpg	0	0	0	114.092356566769	114.142333892472	0.0499773257033667
17058	50	54	0	0	bathmat	89	54	0	stimuli\bathmat\bathmat_10s.jpg	9	-1	0	0	bathmat_10s.jpg	0	0	0	114.192355347721	114.242335355328	0.0499800076067913
17158	50	55	0	0	rock	1319	55	0	stimuli\rock\rock_06s.jpg	5	-1	0	0	rock_06s.jpg	0	0	0	114.292359004867	114.342339987714	0.0499809828470461
17258	50	56	0	0	alpaca	15	56	0	stimuli\alpaca\alpaca_10s.jpg	9	-1	0	0	alpaca_10s.jpg	0	0	0	114.392386067742	114.442361686775	0.0499756190329208
17358	50	57	0	0	lunchbox	950	57	0	stimuli\lunchbox\lunchbox_08s.jpg	7	-1	0	0	lunchbox_08s.jpg	0	0	0	114.492387774408	114.542329503896	0.0499417294886371
17458	50	58	0	0	poster	1229	58	0	stimuli\poster\poster_02s.jpg	1	-1	0	0	poster_02s.jpg	0	0	0	114.592358273439	114.642338524856	0.049980251416855
17558	50	59	0	0	sail	1346	59	0	stimuli\sail\sail_09s.jpg	8	-1	0	0	sail_09s.jpg	0	0	0	114.692354372484	114.742336818188	0.0499824457037903
17658	50	60	0	0	pepper1	1149	60	0	stimuli\pepper1\pepper1_05s.jpg	4	-1	0	0	pepper1_05s.jpg	0	0	0	114.792364124871	114.842375827735	0.0500117028641398
17758	50	61	0	0	french_horn	642	61	0	stimuli\french_horn\french_horn_02s.jpg	1	-1	0	0	french_horn_02s.jpg	0	0	0	114.892396307747	114.942377534404	0.0499812266571098
17858	50	62	0	0	toilet_paper	1671	62	0	stimuli\toilet_paper\toilet_paper_11s.jpg	10	-1	0	0	toilet_paper_11s.jpg	0	0	0	114.992381922977	115.042367050588	0.0499851276108529
17958	50	63	0	0	gallows	653	63	0	stimuli\gallows\gallows_06s.jpg	5	-1	0	0	gallows_06s.jpg	0	0	0	115.092401671562	115.142383142025	0.0499814704635355
18058	50	64	0	0	umbrella	1743	64	0	stimuli\umbrella\umbrella_10s.jpg	9	-1	0	0	umbrella_10s.jpg	0	0	0	115.192387530598	115.242368269635	0.0499807390369824
18158	50	65	0	0	sauerkraut	1364	65	0	stimuli\sauerkraut\sauerkraut_03s.jpg	2	-1	0	0	sauerkraut_03s.jpg	0	0	0	115.292399721082	115.342373877258	0.0499741561761766
18258	50	66	0	0	ketchup	867	66	0	stimuli\ketchup\ketchup_08s.jpg	7	-1	0	0	ketchup_08s.jpg	0	0	0	115.39239338203	115.442377046784	0.0499836647541088
18358	50	67	0	0	koala	884	67	0	stimuli\koala\koala_06s.jpg	5	-1	0	0	koala_06s.jpg	0	0	0	115.492412155378	115.542388749647	0.0499765942695376
18458	50	68	0	0	turntable	1735	68	0	stimuli\turntable\turntable_08s.jpg	7	-1	0	0	turntable_08s.jpg	0	0	0	115.592411667756	115.642388505839	0.0499768380832393
18558	50	69	0	0	shell3	1419	69	0	stimuli\shell3\shell3_10s.jpg	9	-1	0	0	shell3_10s.jpg	0	0	0	115.692407766801	115.742390943935	0.0499831771339814
18658	50	70	0	0	corkscrew	411	70	0	stimuli\corkscrew\corkscrew_03s.jpg	2	-1	0	0	corkscrew_03s.jpg	0	0	0	115.792398258225	115.842369244874	0.0499709866489866
18758	50	71	0	0	beetle	115	71	0	stimuli\beetle\beetle_10s.jpg	9	-1	0	0	beetle_10s.jpg	0	0	0	115.892391919173	115.942369244873	0.0499773256997287
18858	50	72	0	0	dough	513	72	0	stimuli\dough\dough_10s.jpg	9	-1	0	0	dough_10s.jpg	0	0	0	115.992392894412	116.042378265833	0.0499853714209166
18958	50	73	0	0	coop	404	73	0	stimuli\coop\coop_12s.jpg	11	-1	0	0	coop_12s.jpg	0	0	0	116.092396307748	116.14239460108	0.0499982933324645
19058	50	74	0	0	rain_gauge	1278	74	0	stimuli\rain_gauge\rain_gauge_07s.jpg	6	-1	0	0	rain_gauge_07s.jpg	0	0	0	116.19242458967	116.242395088699	0.0499704990288592
19158	50	75	0	0	home_plate	787	75	0	stimuli\home_plate\home_plate_10s.jpg	9	-1	0	0	home_plate_10s.jpg	0	0	0	116.292412642997	116.342412155376	0.049999512379145
19258	50	76	0	0	wall	1775	76	0	stimuli\wall\wall_06s.jpg	5	-1	0	0	wall_06s.jpg	0	0	0	116.392416787759	116.442396307746	0.0499795199866639
19358	50	77	0	0	kiwi	876	77	0	stimuli\kiwi\kiwi_04s.jpg	3	-1	0	0	kiwi_04s.jpg	0	0	0	116.492433610627	116.542418738238	0.0499851276108529
19458	50	78	0	0	propeller	1243	78	0	stimuli\propeller\propeller_11s.jpg	10	-1	0	0	propeller_11s.jpg	0	0	0	116.592436048722	116.642417763	0.0499817142772372
19558	50	79	0	0	noodle	1061	79	0	stimuli\noodle\noodle_04s.jpg	3	-1	0	0	noodle_04s.jpg	0	0	0	116.692440681109	116.742406060133	0.0499653790247976
19658	50	80	0	0	chest1	319	80	0	stimuli\chest1\chest1_12s.jpg	11	-1	0	0	chest1_12s.jpg	0	0	0	116.792418250618	116.842398989655	0.0499807390369824
19758	50	81	0	0	bench	120	81	0	stimuli\bench\bench_09s.jpg	8	-1	0	0	bench_09s.jpg	0	0	0	116.892417763	116.942408010611	0.0499902476112766
19858	50	82	0	0	broom	203	82	0	stimuli\broom\broom_05s.jpg	4	-1	0	0	broom_05s.jpg	0	0	0	116.992430197293	117.042416543951	0.0499863466575334
19958	50	83	0	0	board_game	153	83	0	stimuli\board_game\board_game_11s.jpg	10	-1	0	0	board_game_11s.jpg	0	0	0	117.092425808718	117.142402402987	0.0499765942695376
20058	50	84	0	0	candy_cane	257	84	0	stimuli\candy_cane\candy_cane_08s.jpg	7	-1	0	1	candy_cane_08s.jpg	0	0	0	117.19242434586	117.242437023964	0.0500126781043946
20158	50	85	0	0	paperclip	1116	85	0	stimuli\paperclip\paperclip_09s.jpg	8	-1	0	0	paperclip_09s.jpg	0	0	0	117.292457747786	117.34241678776	0.0499590399740555
20258	50	86	0	0	pasta	1123	86	0	stimuli\pasta\pasta_02s.jpg	1	-1	0	0	pasta_02s.jpg	0	0	0	117.392431172531	117.442413130615	0.0499819580836629
20358	50	87	0	0	sleeping_bag	1462	87	0	stimuli\sleeping_bag\sleeping_bag_05s.jpg	4	-1	0	0	sleeping_bag_05s.jpg	1	0.307739494241105	1	117.49243239158	117.542412886804	0.0499804952232807
20458	50	88	0	0	sweet_potato	1595	88	0	stimuli\sweet_potato\sweet_potato_11s.jpg	10	-1	0	0	sweet_potato_11s.jpg	0	0	0	117.592435561106	117.642447751587	0.0500121904806292
20558	50	89	0	0	bathtub	91	89	0	stimuli\bathtub\bathtub_03s.jpg	2	-1	0	0	bathtub_03s.jpg	0	0	0	117.692466281122	117.742447751589	0.0499814704671735
20658	50	90	0	0	batter	96	90	0	stimuli\batter\batter_07s.jpg	6	-1	0	0	batter_07s.jpg	0	0	0	117.792469450647	117.842435804916	0.0499663542686903
20758	50	91	0	0	ironing_board	833	91	0	stimuli\ironing_board\ironing_board_10s.jpg	9	-1	0	0	ironing_board_10s.jpg	0	0	0	117.892471644936	117.94245384683	0.0499822018937266
20858	50	92	0	0	crow	446	92	0	stimuli\crow\crow_01b.jpg	0	-1	0	0	crow_01b.jpg	0	0	0	117.99246042969	118.042457260166	0.0499968304757203
20958	50	93	0	0	hat	757	93	0	stimuli\hat\hat_12s.jpg	11	-1	0	0	hat_12s.jpg	0	0	0	118.092478715418	118.142459942072	0.0499812266534718
21058	50	94	0	0	pony	1220	94	0	stimuli\pony\pony_04s.jpg	3	-1	0	0	pony_04s.jpg	0	0	0	118.192481397324	118.242443850635	0.0499624533113092
21158	50	95	0	0	swing_set	1599	95	0	stimuli\swing_set\swing_set_01b.jpg	0	-1	0	0	swing_set_01b.jpg	0	0	0	118.292485785896	118.342465793503	0.0499800076067913
21258	50	96	0	0	bra	185	96	0	stimuli\bra\bra_07s.jpg	6	-1	0	0	bra_07s.jpg	0	0	0	118.392493100186	118.442471644936	0.0499785447500471
21358	50	97	0	0	windsock	1822	97	0	stimuli\windsock\windsock_08s.jpg	7	-1	0	0	windsock_08s.jpg	0	0	0	118.492487736374	118.542467743981	0.0499800076067913
21458	50	98	0	0	wetsuit	1803	98	0	stimuli\wetsuit\wetsuit_11s.jpg	10	-1	0	0	wetsuit_11s.jpg	0	0	0	118.592487980182	118.642454822068	0.0499668418851797
21558	50	99	0	0	gel	669	99	0	stimuli\gel\gel_12s.jpg	11	-1	0	0	gel_12s.jpg	0	0	0	118.692493831615	118.74245994207	0.0499661104549887
21658	50	100	0	0	buggy	213	100	0	stimuli\buggy\buggy_11s.jpg	10	-1	0	0	buggy_11s.jpg	0	0	0	118.792484079229	118.842457016355	0.0499729371258582
21758	50	101	0	0	ivy	834	101	0	stimuli\ivy\ivy_02s.jpg	1	-1	0	0	ivy_02s.jpg	0	0	0	118.89246993827	118.942448483016	0.0499785447464092
21858	50	102	0	0	syrup	1605	102	0	stimuli\syrup\syrup_11s.jpg	10	-1	0	0	syrup_11s.jpg	0	0	0	118.992485785897	119.04246238017	0.0499765942731756
21958	50	103	0	0	baton1	92	103	0	stimuli\baton1\baton1_06s.jpg	5	-1	0	0	baton1_06s.jpg	0	0	0	119.092486761136	119.142467256363	0.0499804952269187
22058	50	104	0	0	kaleidoscope	861	104	0	stimuli\kaleidoscope\kaleidoscope_10s.jpg	9	-1	0	0	kaleidoscope_10s.jpg	0	0	0	119.192496269712	119.242493343998	0.049997074285784
22158	50	105	0	0	sim_card	1446	105	0	stimuli\sim_card\sim_card_02s.jpg	1	-1	0	0	sim_card_02s.jpg	0	0	0	119.292512604959	119.342494319237	0.0499817142772372
22258	50	106	0	0	lipstick	936	106	0	stimuli\lipstick\lipstick_05s.jpg	4	-1	0	0	lipstick_05s.jpg	0	0	0	119.392515774485	119.442499683049	0.0499839085641725
22358	50	107	0	0	pitcher	1190	107	0	stimuli\pitcher\pitcher_04s.jpg	3	-1	0	0	pitcher_04s.jpg	0	0	0	119.492507972576	119.542482860183	0.0499748876063677
22458	50	108	0	0	waffle	1770	108	0	stimuli\waffle\waffle_03s.jpg	2	-1	0	0	waffle_03s.jpg	0	0	0	119.592502121144	119.642483347801	0.0499812266571098
22558	50	109	0	0	basket	82	109	0	stimuli\basket\basket_11s.jpg	10	-1	0	0	basket_11s.jpg	0	0	0	119.692507728767	119.742487980184	0.049980251416855
22658	50	110	0	0	guillotine	721	110	0	stimuli\guillotine\guillotine_01b.jpg	0	-1	0	0	guillotine_01b.jpg	0	0	0	119.792509435436	119.842489199233	0.0499797637967276
22758	50	111	0	0	breakfast	197	111	0	stimuli\breakfast\breakfast_01b.jpg	0	-1	0	0	breakfast_01b.jpg	0	0	0	119.892509435434	119.942490174471	0.0499807390369824
22858	50	112	0	0	scoreboard	1383	112	0	stimuli\scoreboard\scoreboard_02s.jpg	1	-1	0	0	scoreboard_02s.jpg	0	0	0	119.992511629724	120.042493587807	0.0499819580836629
22958	50	113	0	0	dishrag	490	113	0	stimuli\dishrag\dishrag_04s.jpg	3	-1	0	0	dishrag_04s.jpg	0	0	0	120.092511873532	120.142493100186	0.0499812266534718
23058	50	114	0	0	tape_recorder	1624	114	0	stimuli\tape_recorder\tape_recorder_09s.jpg	8	-1	0	0	tape_recorder_09s.jpg	0	0	0	120.192544544028	120.242518212584	0.0499736685560492
23158	50	115	0	0	bookshelf	167	115	0	stimuli\bookshelf\bookshelf_03s.jpg	2	-1	0	0	bookshelf_03s.jpg	0	0	0	120.292541374503	120.342525770684	0.0499843961806619
23258	50	116	0	0	cardigan	273	116	0	stimuli\cardigan\cardigan_05s.jpg	4	-1	0	0	cardigan_05s.jpg	0	0	0	120.392542837359	120.442504559243	0.0499617218847561
23358	50	117	0	0	screw	1390	117	0	stimuli\screw\screw_03s.jpg	2	-1	0	0	screw_03s.jpg	0	0	0	120.492525283065	120.542503827812	0.0499785447464092
23458	50	118	0	0	eyedropper	566	118	0	stimuli\eyedropper\eyedropper_07s.jpg	6	-1	0	0	eyedropper_07s.jpg	0	0	0	120.592525526874	120.64250455924	0.0499790323665366
23558	50	119	0	0	green_beans	712	119	0	stimuli\green_beans\green_beans_07s.jpg	6	-1	0	0	green_beans_07s.jpg	0	0	0	120.692536742117	120.742518456394	0.0499817142772372
23658	50	120	0	0	thumb	1653	120	0	stimuli\thumb\thumb_07s.jpg	6	-1	0	0	thumb_07s.jpg	0	0	0	120.792534304022	120.842515774486	0.0499814704635355
23758	50	121	0	0	stirrup	1558	121	0	stimuli\stirrup\stirrup_01b.jpg	0	-1	0	0	stirrup_01b.jpg	0	0	0	120.892539180215	120.942515286868	0.0499761066530482
23858	50	122	0	0	pretzel	1239	122	0	stimuli\pretzel\pretzel_04s.jpg	3	-1	0	0	pretzel_04s.jpg	0	0	0	120.992538204977	121.042521869727	0.0499836647504708
23958	50	123	0	0	sushi	1588	123	0	stimuli\sushi\sushi_02s.jpg	1	-1	0	0	sushi_02s.jpg	0	0	0	121.092540886882	121.142521382109	0.0499804952269187
24058	50	124	0	0	seahorse	1396	124	0	stimuli\seahorse\seahorse_12s.jpg	11	-1	0	0	seahorse_12s.jpg	0	0	0	121.192570387855	121.242545763078	0.0499753752228571
24158	50	125	0	0	shortbread	1429	125	0	stimuli\shortbread\shortbread_11s.jpg	10	-1	0	0	shortbread_11s.jpg	0	0	0	121.292566974516	121.342532109735	0.0499651352183719
24258	50	126	0	0	lampshade	893	126	0	stimuli\lampshade\lampshade_06s.jpg	5	-1	0	0	lampshade_06s.jpg	0	0	0	121.392565999278	121.442552345936	0.0499863466575334
24358	50	127	0	0	gravy	711	127	0	stimuli\gravy\gravy_01s.jpg	0	-1	0	0	gravy_01s.jpg	0	0	0	121.492567462137	121.542546738314	0.0499792761766003
24458	50	128	0	0	nutcracker	1067	128	0	stimuli\nutcracker\nutcracker_09s.jpg	8	-1	0	0	nutcracker_09s.jpg	0	0	0	121.592565267849	121.642552345937	0.0499870780877245
24558	50	129	0	0	makeup	961	129	0	stimuli\makeup\makeup_02s.jpg	1	-1	0	0	makeup_02s.jpg	0	0	0	121.692576726906	121.742551614509	0.0499748876027297
24658	50	130	0	0	potpourri	1235	130	0	stimuli\potpourri\potpourri_09s.jpg	8	-1	0	0	potpourri_09s.jpg	0	0	0	121.792577945955	121.842539911646	0.0499619656911818
24758	50	131	0	0	horse	798	131	0	stimuli\horse\horse_02s.jpg	1	-1	0	0	horse_02s.jpg	0	0	0	121.892559172607	121.942545031648	0.049985859041044
24858	50	132	0	0	skin	1456	132	0	stimuli\skin\skin_08s.jpg	7	-1	0	0	skin_08s.jpg	0	0	0	121.99256429261	122.042544544027	0.049980251416855
24958	50	133	0	0	bandage	66	133	0	stimuli\bandage\bandage_05s.jpg	4	-1	0	0	bandage_05s.jpg	0	0	0	122.092567218329	122.142545763076	0.0499785447464092
25058	50	134	0	0	bathrobe	90	134	0	stimuli\bathrobe\bathrobe_01b.jpg	0	-1	0	0	bathrobe_01b.jpg	0	0	0	122.192573069759	122.242548932601	0.0499758628429845
25158	50	135	0	0	checkers	311	135	0	stimuli\checkers\checkers_01b.jpg	0	-1	0	0	checkers_01b.jpg	0	0	0	122.292572825951	122.342556490701	0.0499836647504708
25258	50	136	0	0	phone_booth	1162	136	0	stimuli\phone_booth\phone_booth_05s.jpg	4	-1	0	0	phone_booth_05s.jpg	0	0	0	122.392575751666	122.442559172607	0.0499834209404071
25358	50	137	0	0	altar	16	137	0	stimuli\altar\altar_05s.jpg	4	-1	0	0	altar_05s.jpg	0	0	0	122.492578189762	122.542557465942	0.0499792761802382
25458	50	138	0	0	octopus	1070	138	0	stimuli\octopus\octopus_06s.jpg	5	-1	0	0	octopus_06s.jpg	0	0	0	122.592593549773	122.642576239286	0.049982689513854
25558	50	139	0	0	butter	228	139	0	stimuli\butter\butter_01b.jpg	0	-1	0	0	butter_01b.jpg	0	0	0	122.692599401205	122.742601595492	0.0500021942862077
25658	50	140	0	0	radar	1271	140	0	stimuli\radar\radar_03s.jpg	2	-1	0	0	radar_03s.jpg	0	0	0	122.792598182157	122.842579408811	0.0499812266534718
25758	50	141	0	0	tool	1676	141	0	stimuli\tool\tool_09s.jpg	8	-1	0	0	tool_09s.jpg	0	0	0	122.892592574535	122.942575751666	0.0499831771303434
25858	50	142	0	0	shaker	1408	142	0	stimuli\shaker\shaker_07s.jpg	6	-1	0	0	shaker_07s.jpg	0	0	0	122.992596231677	123.042573801187	0.0499775695097924
25958	50	143	0	0	marker	975	143	0	stimuli\marker\marker_10s.jpg	9	-1	0	0	marker_10s.jpg	0	0	0	123.09259647549	123.142578433573	0.0499819580836629
26058	50	144	0	0	banjo	68	144	0	stimuli\banjo\banjo_09s.jpg	8	-1	0	0	banjo_09s.jpg	0	0	0	123.192603545969	123.242584041196	0.0499804952269187
26158	50	145	0	0	pitchfork	1191	145	0	stimuli\pitchfork\pitchfork_02s.jpg	1	-1	0	0	pitchfork_02s.jpg	0	0	0	123.292601839301	123.342583797385	0.0499819580836629
26258	50	146	0	0	cocktail	374	146	0	stimuli\cocktail\cocktail_12s.jpg	11	-1	0	0	cocktail_12s.jpg	0	0	0	123.39260378978	123.442583309767	0.0499795199866639
26358	50	147	0	0	toilet	1670	147	0	stimuli\toilet\toilet_12s.jpg	11	-1	0	0	toilet_12s.jpg	0	0	0	123.492605496445	123.542583797385	0.0499783009399835
26458	50	148	0	0	pulpit	1251	148	0	stimuli\pulpit\pulpit_04s.jpg	3	-1	0	0	pulpit_04s.jpg	0	0	0	123.592610860258	123.642586479291	0.0499756190329208
26558	50	149	0	0	bank	69	149	0	stimuli\bank\bank_05s.jpg	4	-1	0	0	bank_05s.jpg	0	0	0	123.692611347877	123.742589161197	0.0499778133198561
26658	50	150	0	0	shirt	1422	150	0	stimuli\shirt\shirt_05s.jpg	4	-1	0	0	shirt_05s.jpg	0	0	0	123.792613054546	123.842591111676	0.0499780571299198
26758	50	151	0	0	artichoke	39	151	0	stimuli\artichoke\artichoke_03n.jpg	2	-1	0	0	artichoke_03n.jpg	0	0	0	123.892613542164	123.942614029784	0.0500004876193998
26858	50	152	0	0	thumbtack	1654	152	0	stimuli\thumbtack\thumbtack_03s.jpg	2	-1	0	0	thumbtack_03s.jpg	0	0	0	123.992621100264	124.042600620254	0.0499795199903019
26958	50	153	0	0	wooden_leg	1834	153	0	stimuli\wooden_leg\wooden_leg_02s.jpg	1	-1	0	0	wooden_leg_02s.jpg	0	0	0	124.092622563123	124.14260378978	0.0499812266571098
27058	50	154	0	0	beachball	99	154	0	stimuli\beachball\beachball_03s.jpg	2	-1	0	0	beachball_03s.jpg	0	0	0	124.192632071699	124.242608909783	0.0499768380832393
27158	50	155	0	0	fireworks	598	155	0	stimuli\fireworks\fireworks_02s.jpg	1	-1	0	0	fireworks_02s.jpg	0	0	0	124.292627683128	124.342608909781	0.0499812266534718
27258	50	156	0	0	wallet	1776	156	0	stimuli\wallet\wallet_06s.jpg	5	-1	0	0	wallet_06s.jpg	0	0	0	124.39263231551	124.442615492644	0.0499831771339814
27358	50	157	0	0	chips	335	157	0	stimuli\chips\chips_07s.jpg	6	-1	0	0	chips_07s.jpg	0	0	0	124.492632071702	124.542611835499	0.0499797637967276
27458	50	158	0	0	birdhouse	131	158	0	stimuli\birdhouse\birdhouse_06s.jpg	5	-1	0	0	birdhouse_06s.jpg	0	0	0	124.592635972655	124.642612566928	0.0499765942731756
27558	50	159	0	0	firewood	597	159	0	stimuli\firewood\firewood_12s.jpg	11	-1	0	0	firewood_12s.jpg	0	0	0	124.692665229817	124.742641824087	0.0499765942695376
27658	50	160	0	0	cigarette_butt	345	160	0	stimuli\cigarette_butt\cigarette_butt_10s.jpg	9	-1	0	0	cigarette_butt_10s.jpg	0	0	0	124.792661328862	124.842640605038	0.0499792761766003
27758	50	161	0	0	broccoli	201	161	0	stimuli\broccoli\broccoli_02s.jpg	1	-1	0	0	broccoli_02s.jpg	0	0	0	124.892662791721	124.942644262184	0.0499814704635355
27858	50	162	0	0	blanket	136	162	0	stimuli\blanket\blanket_12s.jpg	11	-1	0	0	blanket_12s.jpg	0	0	0	124.99266888696	125.0426471879	0.0499783009399835
27958	50	163	0	0	pudding	1246	163	0	stimuli\pudding\pudding_04s.jpg	3	-1	0	0	pudding_04s.jpg	0	0	0	125.092655965047	125.142649625996	0.0499936609485303
28058	50	164	0	0	bandanna	67	164	0	stimuli\bandanna\bandanna_10s.jpg	9	-1	0	0	bandanna_10s.jpg	0	0	0	125.192677907919	125.242654502192	0.0499765942731756
28158	50	165	0	0	asparagus	42	165	0	stimuli\asparagus\asparagus_03s.jpg	2	-1	0	0	asparagus_03s.jpg	0	0	0	125.29267693268	125.342644993612	0.0499680609318602
28258	50	166	0	0	seafood	1394	166	0	stimuli\seafood\seafood_09s.jpg	8	-1	0	0	seafood_09s.jpg	0	0	0	125.392675957442	125.442659378383	0.0499834209404071
28358	50	167	0	0	keg	866	167	0	stimuli\keg\keg_10s.jpg	9	-1	0	0	keg_10s.jpg	0	0	0	125.492666448863	125.542652064094	0.0499856152309803
28458	50	168	0	0	paperweight	1117	168	0	stimuli\paperweight\paperweight_10s.jpg	9	-1	0	0	paperweight_10s.jpg	0	0	0	125.592674006963	125.64265498981	0.0499809828470461
28558	50	169	0	0	baby	46	169	0	stimuli\baby\baby_01b.jpg	0	-1	0	0	baby_01b.jpg	0	0	0	125.692680102205	125.742657671715	0.0499775695097924
28658	50	170	0	0	thimble	1649	170	0	stimuli\thimble\thimble_12s.jpg	11	-1	0	0	thimble_12s.jpg	0	0	0	125.79269960698	125.842660109814	0.0499605028344376
28758	50	171	0	0	wasp	1785	171	0	stimuli\wasp\wasp_01b.jpg	0	-1	0	0	wasp_01b.jpg	0	0	0	125.892686197447	125.942668886961	0.049982689513854
28858	50	172	0	0	mint	1004	172	0	stimuli\mint\mint_01b.jpg	0	-1	0	0	mint_01b.jpg	0	0	0	125.992688391736	126.042665961246	0.0499775695097924
28958	50	173	0	0	tooth	1678	173	0	stimuli\tooth\tooth_06s.jpg	5	-1	0	0	tooth_06s.jpg	0	0	0	126.092686197448	126.142667180295	0.0499809828470461
29058	50	174	0	0	garlic	658	174	0	stimuli\garlic\garlic_04s.jpg	3	-1	0	0	garlic_04s.jpg	0	0	0	126.192681565062	126.242657671715	0.0499761066530482
29158	50	175	0	0	rolling_pin	1328	175	0	stimuli\rolling_pin\rolling_pin_05s.jpg	4	-1	0	0	rolling_pin_05s.jpg	0	0	0	126.292680589824	126.342662791718	0.0499822018937266
29258	50	176	0	0	raspberry	1284	176	0	stimuli\raspberry\raspberry_07s.jpg	6	-1	0	0	raspberry_07s.jpg	0	0	0	126.392680102206	126.442689366973	0.0500092647671408
29358	50	177	0	0	parking_meter	1120	177	0	stimuli\parking_meter\parking_meter_03s.jpg	2	-1	0	0	parking_meter_03s.jpg	0	0	0	126.492699363171	126.542671568866	0.0499722056956671
29458	50	178	0	0	snack	1475	178	0	stimuli\snack\snack_01b.jpg	0	-1	0	0	snack_01b.jpg	0	0	0	126.592693024118	126.642682052683	0.0499890285645961
29558	50	179	0	0	hubcap	809	179	0	stimuli\hubcap\hubcap_07s.jpg	6	-1	0	0	hubcap_07s.jpg	0	0	0	126.69269229269	126.742677176491	0.0499848838007892
29658	50	180	0	0	ball	59	180	0	stimuli\ball\ball_05s.jpg	4	-1	0	0	ball_05s.jpg	0	0	0	126.792696437453	126.84267644506	0.0499800076067913
29758	50	181	0	0	brussels_sprouts	206	181	0	stimuli\brussels_sprouts\brussels_sprouts_02s.jpg	1	-1	0	0	brussels_sprouts_02s.jpg	0	0	0	126.892703020316	126.942681077446	0.0499780571299198
29858	50	182	0	0	bush	227	182	0	stimuli\bush\bush_05s.jpg	4	-1	0	0	bush_05s.jpg	0	0	0	126.992698875551	127.04267693268	0.0499780571299198
29958	50	183	0	0	cougar	423	183	0	stimuli\cougar\cougar_09s.jpg	8	-1	0	0	cougar_09s.jpg	0	0	0	127.092701313646	127.142702045076	0.0500007314294635
30058	50	184	0	0	latch	900	184	0	stimuli\latch\latch_10s.jpg	9	-1	0	0	latch_10s.jpg	0	0	0	127.192733496526	127.242710334605	0.0499768380796013
30158	50	185	0	0	dip	487	185	0	stimuli\dip\dip_12s.jpg	11	-1	0	0	dip_12s.jpg	0	0	0	127.292729839381	127.342713747941	0.0499839085605345
30258	50	186	0	0	fondue	626	186	0	stimuli\fondue\fondue_06s.jpg	5	-1	0	0	fondue_06s.jpg	0	0	0	127.392730083189	127.442716429847	0.0499863466575334
30358	50	187	0	0	deodorant	479	187	0	stimuli\deodorant\deodorant_04s.jpg	3	-1	0	0	deodorant_04s.jpg	0	0	0	127.49271594223	127.542697900313	0.0499819580836629
30458	50	188	0	0	cereal	297	188	0	stimuli\cereal\cereal_05s.jpg	4	-1	0	0	cereal_05s.jpg	0	0	0	127.592714479371	127.642696681265	0.0499822018937266
30558	50	189	0	0	vest	1759	189	0	stimuli\vest\vest_08s.jpg	7	-1	0	0	vest_08s.jpg	0	0	0	127.692741542243	127.742702288888	0.0499607466445013
30658	50	190	0	0	motherboard	1024	190	0	stimuli\motherboard\motherboard_01b.jpg	0	-1	0	0	motherboard_01b.jpg	0	0	0	127.79272935176	127.842710090797	0.0499807390369824
30758	50	191	0	0	honeypot	790	191	0	stimuli\honeypot\honeypot_04s.jpg	3	-1	0	0	honeypot_04s.jpg	0	0	0	127.892740323194	127.942723500328	0.0499831771339814
30858	50	192	0	0	icepick	822	192	0	stimuli\icepick\icepick_04s.jpg	3	-1	0	1	icepick_04s.jpg	0	0	0	127.992731546048	128.042709846985	0.0499783009363455
30958	50	193	0	0	wrapping_paper	1838	193	0	stimuli\wrapping_paper\wrapping_paper_03s.jpg	2	-1	0	0	wrapping_paper_03s.jpg	0	0	0	128.092747393675	128.142710822223	0.049963428547926
31058	50	194	0	0	throne	1652	194	0	stimuli\throne\throne_07s.jpg	6	-1	0	0	throne_07s.jpg	0	0	0	128.192739104146	128.242714235559	0.0499751314127934
31158	50	195	0	0	fudge	647	195	0	stimuli\fudge\fudge_05s.jpg	4	-1	0	0	fudge_05s.jpg	1	0.341924292220938	1	128.292734471765	128.342713747941	0.0499792761766003
31258	50	196	0	0	shower	1433	196	0	stimuli\shower\shower_06s.jpg	5	-1	0	0	shower_06s.jpg	0	0	0	128.392749344152	128.44274446796	0.0499951238089125
31358	50	197	0	0	bookmark	166	197	0	stimuli\bookmark\bookmark_01s.jpg	0	-1	0	0	bookmark_01s.jpg	0	0	0	128.492761778445	128.542742761292	0.0499809828470461
31458	50	198	0	0	necklace	1054	198	0	stimuli\necklace\necklace_01b.jpg	0	-1	0	0	necklace_01b.jpg	0	0	0	128.592746174629	128.642745199388	0.0499990247590176
31558	50	199	0	0	ruby	1338	199	0	stimuli\ruby\ruby_03s.jpg	2	-1	0	0	ruby_03s.jpg	0	0	0	128.69276641083	128.742728864141	0.0499624533113092
31658	50	200	0	0	blackberry	135	200	0	stimuli\blackberry\blackberry_12s.jpg	11	-1	0	0	blackberry_12s.jpg	0	0	0	128.792745443199	128.842726913663	0.0499814704635355
31758	50	201	0	0	soup	1499	201	0	stimuli\soup\soup_11s.jpg	10	-1	0	0	soup_11s.jpg	0	0	0	128.892777138455	128.942753488918	0.0499763504631119
31858	50	202	0	0	cherry	316	202	0	stimuli\cherry\cherry_03s.jpg	2	-1	0	0	cherry_03s.jpg	0	0	0	128.992754951774	129.042734715571	0.0499797637967276
31958	50	203	0	0	shaving_cream	1410	203	0	stimuli\shaving_cream\shaving_cream_08s.jpg	7	-1	0	0	shaving_cream_08s.jpg	0	0	0	129.092751538439	129.142750807012	0.0499992685727193
32058	50	204	0	0	trowel	1719	204	0	stimuli\trowel\trowel_04s.jpg	3	-1	0	0	trowel_04s.jpg	0	0	0	129.192760803209	129.242738616529	0.0499778133198561
32158	50	205	0	0	backgammon	48	205	0	stimuli\backgammon\backgammon_09s.jpg	8	-1	0	0	backgammon_09s.jpg	0	0	0	129.292761778448	129.342742761291	0.0499809828434081
32258	50	206	0	0	cement_mixer	294	206	0	stimuli\cement_mixer\cement_mixer_08s.jpg	7	-1	0	0	cement_mixer_08s.jpg	0	0	0	129.39276592321	129.442735690813	0.0499697676023061
32358	50	207	0	0	humvee	813	207	0	stimuli\humvee\humvee_09s.jpg	8	-1	0	0	humvee_09s.jpg	0	0	0	129.49275007558	129.542771043212	0.0500209676320083
32458	50	208	0	0	wood	1833	208	0	stimuli\wood\wood_02s.jpg	1	-1	0	0	wood_02s.jpg	0	0	0	129.592791035608	129.642757633683	0.0499665980751161
32558	50	209	0	0	gate	662	209	0	stimuli\gate\gate_03s.jpg	2	-1	0	0	gate_03s.jpg	0	0	0	129.692793717513	129.74277372512	0.0499800076067913
32658	50	210	0	0	blazer	137	210	0	stimuli\blazer\blazer_08s.jpg	7	-1	0	0	blazer_08s.jpg	0	0	0	129.792778357503	129.842775431789	0.049997074285784
32758	50	211	0	0	corkboard	410	211	0	stimuli\corkboard\corkboard_07s.jpg	6	-1	0	0	corkboard_07s.jpg	0	0	0	129.892799812755	129.942781770838	0.0499819580836629
32858	50	212	0	0	fence	575	212	0	stimuli\fence\fence_04s.jpg	3	-1	0	0	fence_04s.jpg	0	0	0	129.992781770838	130.042757633681	0.0499758628429845
32958	50	213	0	0	gauge	663	213	0	stimuli\gauge\gauge_10s.jpg	9	-1	0	0	gauge_10s.jpg	0	0	0	130.092779088933	130.142760803206	0.0499817142735992
33058	50	214	0	0	lamp	891	214	0	stimuli\lamp\lamp_01b.jpg	0	-1	0	0	lamp_01b.jpg	0	0	0	130.192816635623	130.242786403222	0.0499697675986681
33158	50	215	0	0	man	963	215	0	stimuli\man\man_11s.jpg	10	-1	0	0	man_11s.jpg	0	0	0	130.292793229895	130.342790060367	0.0499968304720824
33258	50	216	0	0	crowbar	447	216	0	stimuli\crowbar\crowbar_05n.jpg	4	-1	0	0	crowbar_05n.jpg	0	0	0	130.39281200324	130.442792254657	0.049980251416855
33358	50	217	0	0	safety_pin	1344	217	0	stimuli\safety_pin\safety_pin_07s.jpg	6	-1	0	0	safety_pin_07s.jpg	0	0	0	130.492814928955	130.542795180372	0.049980251416855
33458	50	218	0	0	moss	1022	218	0	stimuli\moss\moss_10s.jpg	9	-1	0	0	moss_10s.jpg	0	0	0	130.592794205131	130.642777382265	0.0499831771339814
33558	50	219	0	0	twig	1740	219	0	stimuli\twig\twig_04s.jpg	3	-1	0	0	twig_04s.jpg	0	0	0	130.692805420378	130.742782502268	0.049977081889665
33658	50	220	0	0	almond	13	220	0	stimuli\almond\almond_06s.jpg	5	-1	0	0	almond_06s.jpg	0	0	0	130.792820780385	130.842782989886	0.0499622095012455
33758	50	221	0	0	olive	1075	221	0	stimuli\olive\olive_01b.jpg	0	-1	0	0	olive_01b.jpg	0	0	0	130.892827363248	130.942809321332	0.0499819580836629
33858	50	222	0	0	slicer	1463	222	0	stimuli\slicer\slicer_08s.jpg	7	-1	0	0	slicer_08s.jpg	0	0	0	130.992827850867	131.042793229895	0.0499653790284356
33958	50	223	0	0	brush	205	223	0	stimuli\brush\brush_11s.jpg	10	-1	0	0	brush_11s.jpg	0	0	0	131.09281005276	131.142796399421	0.0499863466611714
34058	50	224	0	0	bug	212	224	0	stimuli\bug\bug_07s.jpg	6	-1	0	0	bug_07s.jpg	0	0	0	131.192816148003	131.242789572749	0.0499734247459855
34158	50	225	0	0	backdrop	47	225	0	stimuli\backdrop\backdrop_05s.jpg	4	-1	0	0	backdrop_05s.jpg	0	0	0	131.292813709908	131.342797862279	0.0499841523705982
34258	50	226	0	0	cream	436	226	0	stimuli\cream\cream_08s.jpg	7	-1	0	0	cream_08s.jpg	0	0	0	131.392816635624	131.442823218484	0.0500065828600782
34358	50	227	0	0	crate	433	227	0	stimuli\crate\crate_07s.jpg	6	-1	0	0	crate_07s.jpg	0	0	0	131.492830288964	131.54280395752	0.0499736685560492
34458	50	228	0	0	stew	1551	228	0	stimuli\stew\stew_11s.jpg	10	-1	0	0	stew_11s.jpg	0	0	0	131.592824437532	131.642803713708	0.0499792761766003
34558	50	229	0	0	waffle_iron	1771	229	0	stimuli\waffle_iron\waffle_iron_01b.jpg	0	-1	0	0	waffle_iron_01b.jpg	0	0	0	131.692830532775	131.742809808951	0.0499792761766003
34658	50	230	0	0	cello	292	230	0	stimuli\cello\cello_11s.jpg	10	-1	0	0	cello_11s.jpg	0	0	0	131.792829801347	131.84281127181	0.0499814704635355
34758	50	231	0	0	pedometer	1137	231	0	stimuli\pedometer\pedometer_01b.jpg	0	-1	0	0	pedometer_01b.jpg	0	0	0	131.892832970872	131.942813466096	0.0499804952232807
34858	50	232	0	0	spaghetti	1503	232	0	stimuli\spaghetti\spaghetti_12s.jpg	11	-1	0	0	spaghetti_12s.jpg	0	0	0	131.992832239441	132.042809321334	0.049977081893303
34958	50	233	0	0	carousel	275	233	0	stimuli\carousel\carousel_01b.jpg	0	-1	0	0	carousel_01b.jpg	0	0	0	132.092835896587	132.142815904193	0.0499800076067913
35058	50	234	0	0	barrette	77	234	0	stimuli\barrette\barrette_01b.jpg	0	-1	0	0	barrette_01b.jpg	0	0	0	132.192839066112	132.242821268006	0.0499822018937266
35158	50	235	0	0	radio	1273	235	0	stimuli\radio\radio_08s.jpg	7	-1	0	0	radio_08s.jpg	0	0	0	132.292839553731	132.342822730865	0.0499831771339814
35259	50	236	0	0	sea_urchin	1393	236	0	stimuli\sea_urchin\sea_urchin_01b.jpg	0	-1	0	0	sea_urchin_01b.jpg	0	0	0	132.39287002994	132.442846380403	0.0499763504631119
35358	50	237	0	0	soda	1490	237	0	stimuli\soda\soda_03s.jpg	2	-1	0	0	soda_03s.jpg	0	0	0	132.492850525166	132.542848818499	0.0499982933324645
35459	50	238	0	0	pants	1108	238	0	stimuli\pants\pants_09s.jpg	8	-1	0	0	pants_09s.jpg	0	0	0	132.592870273751	132.642852231835	0.0499819580836629
35559	50	239	0	0	chocolate	338	239	0	stimuli\chocolate\chocolate_07s.jpg	6	-1	0	0	chocolate_07s.jpg	0	0	0	132.6928714928	132.742856620407	0.049985127607215
35659	50	240	0	0	chisel	336	240	0	stimuli\chisel\chisel_07s.jpg	6	-1	0	0	chisel_07s.jpg	0	0	0	132.792857108027	132.842855401359	0.0499982933324645
35759	50	241	0	0	oil	1072	241	0	stimuli\oil\oil_05s.jpg	4	-1	0	0	oil_05s.jpg	0	0	0	132.892861984223	132.942858327078	0.049996342855593
35859	50	242	0	0	beer	113	242	0	stimuli\beer\beer_03s.jpg	2	-1	0	0	beer_03s.jpg	0	0	0	132.992880757567	133.042863934697	0.0499831771303434
35959	50	243	0	0	bed	108	243	0	stimuli\bed\bed_02s.jpg	1	-1	0	0	bed_02s.jpg	0	0	0	133.092867104224	133.142849549928	0.0499824457037903
36059	50	244	0	0	hook2	794	244	0	stimuli\hook2\hook2_10s.jpg	9	-1	0	0	hook2_10s.jpg	0	0	0	133.192892460429	133.242852963263	0.0499605028344376
36159	50	245	0	0	meerkat	992	245	0	stimuli\meerkat\meerkat_03s.jpg	2	-1	0	0	meerkat_03s.jpg	0	0	0	133.292889047094	133.342869786131	0.0499807390369824
36259	50	246	0	0	weed	1802	246	0	stimuli\weed\weed_02s.jpg	1	-1	0	0	weed_02s.jpg	0	0	0	133.392891729003	133.442854426121	0.0499626971177349
36359	50	247	0	0	cake	237	247	0	stimuli\cake\cake_08s.jpg	7	-1	0	0	cake_08s.jpg	0	0	0	133.492863203272	133.542843454685	0.049980251413217
36459	50	248	0	0	juice	854	248	0	stimuli\juice\juice_10s.jpg	9	-1	0	0	juice_10s.jpg	0	0	0	133.592879294709	133.642861984223	0.049982689513854
36559	50	249	0	0	sprouts	1524	249	0	stimuli\sprouts\sprouts_06s.jpg	5	-1	0	0	sprouts_06s.jpg	0	0	0	133.692883439471	133.742869542322	0.0499861028511077
36659	50	250	0	0	spatula	1508	250	0	stimuli\spatula\spatula_08s.jpg	7	-1	0	0	spatula_08s.jpg	0	0	0	133.792904163296	133.842861984223	0.049957820927375
36759	50	251	0	0	cotton_candy	421	251	0	stimuli\cotton_candy\cotton_candy_10s.jpg	9	-1	0	0	cotton_candy_10s.jpg	0	0	0	133.892885877569	133.942867835653	0.0499819580836629
36859	50	252	0	0	granola	701	252	0	stimuli\granola\granola_10s.jpg	9	-1	0	0	granola_10s.jpg	0	0	0	133.992889534715	134.042868810891	0.0499792761766003
36959	50	253	0	0	cigar	343	253	0	stimuli\cigar\cigar_08s.jpg	7	-1	0	0	cigar_08s.jpg	0	0	0	134.092890509954	134.142875881374	0.0499853714209166
37059	50	254	0	0	dandelion	472	254	0	stimuli\dandelion\dandelion_01s.jpg	0	-1	0	0	dandelion_01s.jpg	0	0	0	134.192896361386	134.242870761369	0.0499743999826023
37159	50	255	0	0	berry	121	255	0	stimuli\berry\berry_02s.jpg	1	-1	0	0	berry_02s.jpg	0	0	0	134.292895629955	134.342872711848	0.049977081893303
37259	50	256	0	0	parrot	1121	256	0	stimuli\parrot\parrot_12s.jpg	11	-1	0	0	parrot_12s.jpg	0	0	0	134.392920742353	134.442899043293	0.0499783009399835
37359	50	257	0	0	apple_tree	31	257	0	stimuli\apple_tree\apple_tree_04s.jpg	3	-1	0	0	apple_tree_04s.jpg	0	0	0	134.492905138533	134.542889047094	0.0499839085605345
37459	50	258	0	0	flypaper	622	258	0	stimuli\flypaper\flypaper_12s.jpg	11	-1	0	0	flypaper_12s.jpg	0	0	0	134.592925374738	134.642903431864	0.0499780571262818
37559	50	259	0	0	dustpan	535	259	0	stimuli\dustpan\dustpan_07s.jpg	6	-1	0	0	dustpan_07s.jpg	0	0	0	134.692926349977	134.742906357584	0.0499800076067913
37659	50	260	0	0	valve	1751	260	0	stimuli\valve\valve_02s.jpg	1	-1	0	0	valve_02s.jpg	0	0	0	134.792913184254	134.842910014726	0.0499968304720824
37759	50	261	0	0	cooker	399	261	0	stimuli\cooker\cooker_10s.jpg	9	-1	0	0	cooker_10s.jpg	0	0	0	134.892932445218	134.942910989965	0.0499785447464092
37859	50	262	0	0	scone	1380	262	0	stimuli\scone\scone_01b.jpg	0	-1	0	0	scone_01b.jpg	0	0	0	134.992937077601	135.042916109967	0.0499790323665366
37959	50	263	0	0	tackle	1612	263	0	stimuli\tackle\tackle_08s.jpg	7	-1	0	0	tackle_08s.jpg	0	0	0	135.092921961401	135.142920254733	0.0499982933324645
38059	50	264	0	0	lanyard	896	264	0	stimuli\lanyard\lanyard_05s.jpg	4	-1	0	0	lanyard_05s.jpg	0	0	0	135.192942685222	135.242903431867	0.0499607466445013
38159	50	265	0	0	plaster_cast	1195	265	0	stimuli\plaster_cast\plaster_cast_06s.jpg	5	-1	0	0	plaster_cast_06s.jpg	0	0	0	135.292943904271	135.342922936641	0.0499790323701745
38259	50	266	0	0	snail	1476	266	0	stimuli\snail\snail_06s.jpg	5	-1	0	0	snail_06s.jpg	0	0	0	135.39292318045	135.442903919484	0.0499807390333444
38359	50	267	0	0	mitten	1008	267	0	stimuli\mitten\mitten_03s.jpg	2	-1	0	0	mitten_03s.jpg	0	0	0	135.492926837593	135.542905626153	0.0499787885601108
38459	50	268	0	0	gauze	664	268	0	stimuli\gauze\gauze_07s.jpg	6	-1	0	0	gauze_07s.jpg	0	0	0	135.592925374738	135.642910258535	0.0499848837971513
38559	50	269	0	0	dryer	524	269	0	stimuli\dryer\dryer_08s.jpg	7	-1	0	0	dryer_08s.jpg	0	0	0	135.692933908074	135.742910258537	0.0499763504631119
38659	50	270	0	0	stockings	1559	270	0	stimuli\stockings\stockings_01b.jpg	0	-1	0	0	stockings_01b.jpg	0	0	0	135.792934883313	135.842918791874	0.0499839085605345
38759	50	271	0	0	extinguisher	563	271	0	stimuli\extinguisher\extinguisher_05s.jpg	4	-1	0	0	extinguisher_05s.jpg	0	0	0	135.892965115712	135.94292269283	0.0499575771173113
38859	50	272	0	0	rollerskate	1327	272	0	stimuli\rollerskate\rollerskate_09s.jpg	8	-1	0	0	rollerskate_09s.jpg	0	0	0	135.992962189997	136.042940734747	0.0499785447500471
38959	50	273	0	0	train	1698	273	0	stimuli\train\train_12n.jpg	11	-1	0	0	train_12n.jpg	0	0	0	136.092962677616	136.142946342366	0.0499836647504708
39059	50	274	0	0	pistachio	1188	274	0	stimuli\pistachio\pistachio_10s.jpg	9	-1	0	0	pistachio_10s.jpg	0	0	0	136.192969016669	136.242944879512	0.0499758628429845
39159	50	275	0	0	mannequin	968	275	0	stimuli\mannequin\mannequin_05s.jpg	4	-1	0	0	mannequin_05s.jpg	0	0	0	136.292952193802	136.342930982359	0.0499787885564729
39259	50	276	0	0	bead	100	276	0	stimuli\bead\bead_02s.jpg	1	-1	0	0	bead_02s.jpg	0	0	0	136.392957069995	136.442935858551	0.0499787885564729
39359	50	277	0	0	dynamite	536	277	0	stimuli\dynamite\dynamite_06s.jpg	5	-1	0	0	dynamite_06s.jpg	0	0	0	136.492960483331	136.542936346174	0.0499758628429845
39459	50	278	0	0	inhaler	828	278	0	stimuli\inhaler\inhaler_12s.jpg	11	-1	0	0	inhaler_12s.jpg	0	0	0	136.592961702379	136.642964384286	0.0500026819063351
39559	50	279	0	0	yarn	1846	279	0	stimuli\yarn\yarn_01b.jpg	0	-1	0	0	yarn_01b.jpg	0	0	0	136.692979744294	136.74295999571	0.049980251416855
39659	50	280	0	0	bedpost	110	280	0	stimuli\bedpost\bedpost_04s.jpg	3	-1	0	0	bedpost_04s.jpg	0	0	0	136.792982913819	136.842963896666	0.0499809828470461
39759	50	281	0	0	potpie	1234	281	0	stimuli\potpie\potpie_06s.jpg	5	-1	0	0	potpie_06s.jpg	0	0	0	136.892985839535	136.942954388087	0.0499685485519876
39859	50	282	0	0	football_helmet	630	282	0	stimuli\football_helmet\football_helmet_04s.jpg	3	-1	0	0	football_helmet_04s.jpg	0	0	0	136.992970235715	137.042968529047	0.0499982933324645
39959	50	283	0	0	coffee_table	381	283	0	stimuli\coffee_table\coffee_table_08s.jpg	7	-1	0	0	coffee_table_08s.jpg	0	0	0	137.09299071573	137.142970235716	0.0499795199866639
40059	50	284	0	0	porcupine	1226	284	0	stimuli\porcupine\porcupine_12s.jpg	11	-1	0	0	porcupine_12s.jpg	0	0	0	137.192996567162	137.242958045234	0.0499614780710544
40159	50	285	0	0	flamethrower	607	285	0	stimuli\flamethrower\flamethrower_02s.jpg	1	-1	0	0	flamethrower_02s.jpg	0	0	0	137.292999980495	137.342974868101	0.0499748876063677
40259	50	286	0	0	dashboard	475	286	0	stimuli\dashboard\dashboard_10s.jpg	9	-1	0	0	dashboard_10s.jpg	0	0	0	137.392977306197	137.442955607137	0.0499783009399835
40359	50	287	0	0	cruise_ship	450	287	0	stimuli\cruise_ship\cruise_ship_03s.jpg	2	-1	0	0	cruise_ship_03s.jpg	0	0	0	137.492978769056	137.542958289043	0.0499795199866639
40459	50	288	0	0	photo_booth	1163	288	0	stimuli\photo_booth\photo_booth_03s.jpg	2	-1	0	0	photo_booth_03s.jpg	0	0	0	137.592981938582	137.642961946189	0.0499800076067913
40559	50	289	0	0	drain	515	289	0	stimuli\drain\drain_08s.jpg	7	-1	0	0	drain_08s.jpg	0	0	0	137.692987058585	137.742965847141	0.0499787885564729
40659	50	290	0	0	mouthpiece	1032	290	0	stimuli\mouthpiece\mouthpiece_01s.jpg	0	-1	0	0	mouthpiece_01s.jpg	0	0	0	137.792991203347	137.842972186194	0.0499809828470461
40759	50	291	0	0	visor	1766	291	0	stimuli\visor\visor_01b.jpg	0	-1	0	0	visor_01b.jpg	0	0	0	137.892994129063	137.9429748681	0.0499807390369824
40859	50	292	0	0	jump_rope	858	292	0	stimuli\jump_rope\jump_rope_10s.jpg	9	-1	0	0	jump_rope_10s.jpg	0	0	0	137.992996323352	138.042976330958	0.0499800076067913
40959	50	293	0	0	ship	1421	293	0	stimuli\ship\ship_04s.jpg	3	-1	0	0	ship_04s.jpg	0	0	0	138.092997786211	138.142979500484	0.0499817142735992
41059	50	294	0	0	prism	1241	294	0	stimuli\prism\prism_04s.jpg	3	-1	0	0	prism_04s.jpg	0	0	0	138.193007050977	138.2429824262	0.0499753752228571
41159	50	295	0	0	baklava	57	295	0	stimuli\baklava\baklava_05s.jpg	4	-1	0	0	baklava_05s.jpg	0	0	0	138.293005100499	138.342985839536	0.0499807390369824
41259	50	296	0	0	puck	1245	296	0	stimuli\puck\puck_02s.jpg	1	-1	0	0	puck_02s.jpg	0	0	0	138.393006075738	138.442989252871	0.0499831771339814
41359	50	297	0	0	ski	1452	297	0	stimuli\ski\ski_07s.jpg	6	-1	0	0	ski_07s.jpg	0	0	0	138.493005344309	138.542986083346	0.0499807390369824
41459	50	298	0	0	garbage	655	298	0	stimuli\garbage\garbage_02s.jpg	1	-1	0	0	garbage_02s.jpg	0	0	0	138.593011927169	138.642989496679	0.0499775695097924
41559	50	299	0	0	cracker	429	299	0	stimuli\cracker\cracker_02s.jpg	1	-1	0	0	cracker_02s.jpg	0	0	0	138.693013146218	138.742992666204	0.0499795199866639
41659	50	300	0	0	magnifying_glass	958	300	0	stimuli\magnifying_glass\magnifying_glass_09s.jpg	8	-1	0	0	magnifying_glass_09s.jpg	0	0	0	138.79301339003	138.843002662401	0.0499892723710218
41759	50	301	0	0	straw1	1568	301	0	stimuli\straw1\straw1_11s.jpg	10	-1	0	0	straw1_11s.jpg	0	0	0	138.893018266222	138.942997054779	0.0499787885564729
41859	50	302	0	0	brass_knuckles	193	302	0	stimuli\brass_knuckles\brass_knuckles_03s.jpg	2	-1	0	0	brass_knuckles_03s.jpg	0	0	0	138.993019972888	139.043000711925	0.0499807390369824
41959	50	303	0	0	antenna	27	303	0	stimuli\antenna\antenna_02s.jpg	1	-1	0	0	antenna_02s.jpg	0	0	0	139.093022654797	139.142999980497	0.0499773256997287
42059	50	304	0	0	needle	1055	304	0	stimuli\needle\needle_11s.jpg	10	-1	0	0	needle_11s.jpg	0	0	0	139.193048742432	139.24301217098	0.049963428547926
42159	50	305	0	0	tweezers	1739	305	0	stimuli\tweezers\tweezers_03s.jpg	2	-1	0	0	tweezers_03s.jpg	0	0	0	139.293032894802	139.343030944325	0.0499980495224008
42259	50	306	0	0	accordion	2	306	0	stimuli\accordion\accordion_05s.jpg	4	-1	0	0	accordion_05s.jpg	0	0	0	139.393037039565	139.443013146218	0.0499761066530482
42359	50	307	0	0	bike	123	307	0	stimuli\bike\bike_05s.jpg	4	-1	0	0	bike_05s.jpg	0	0	0	139.4930353329	139.543011195739	0.0499758628393465
42459	50	308	0	0	sprinkler	1523	308	0	stimuli\sprinkler\sprinkler_12s.jpg	11	-1	0	0	sprinkler_12s.jpg	0	0	0	139.593050449097	139.643039233855	0.0499887847581704
52426	50	309	0	0	seismograph	1403	0	1	stimuli\seismograph\seismograph_02s.jpg	1	-1	1	0	seismograph_02s.jpg	0	0	0	149.559959137499	149.609931099389	0.0499719618892414
52526	50	310	0	0	toad	1664	1	1	stimuli\toad\toad_09s.jpg	8	-1	1	0	toad_09s.jpg	0	0	0	149.659986931802	149.709988150851	0.0500012190495909
52626	50	311	0	0	playing_card	1199	2	1	stimuli\playing_card\playing_card_06s.jpg	5	-1	1	0	playing_card_06s.jpg	0	0	0	149.759974253699	149.809974497508	0.0500002438093361
52726	50	312	0	0	blowgun	147	3	1	stimuli\blowgun\blowgun_04s.jpg	3	-1	1	0	blowgun_04s.jpg	0	0	0	149.859999366097	149.909977423224	0.0499780571262818
52826	50	313	0	0	tank1	1620	4	1	stimuli\tank1\tank1_03s.jpg	2	-1	1	0	tank1_03s.jpg	0	0	0	149.959999609906	150.009977910846	0.0499783009399835
52926	50	314	0	0	helmet	776	5	1	stimuli\helmet\helmet_02s.jpg	1	-1	1	0	helmet_02s.jpg	0	0	0	150.059985712753	150.109960356549	0.049974643796304
53026	50	315	0	0	seaplane	1398	6	1	stimuli\seaplane\seaplane_11s.jpg	10	-1	1	0	seaplane_11s.jpg	0	0	0	150.159978154654	150.209954017497	0.0499758628429845
53126	50	316	0	0	rim	1312	7	1	stimuli\rim\rim_04s.jpg	3	-1	1	0	rim_04s.jpg	0	0	0	150.259976447986	150.309957918453	0.0499814704671735
53226	50	317	0	0	shark	1409	8	1	stimuli\shark\shark_12s.jpg	11	-1	1	0	shark_12s.jpg	0	0	0	150.360010825152	150.409991564185	0.0499807390333444
53326	50	318	0	0	bottle_opener	171	9	1	stimuli\bottle_opener\bottle_opener_06s.jpg	5	-1	1	0	bottle_opener_06s.jpg	0	0	0	150.460012775628	150.509996196572	0.0499834209440451
53426	50	319	0	0	ticktacktoe	1657	10	1	stimuli\ticktacktoe\ticktacktoe_09s.jpg	8	-1	1	0	ticktacktoe_09s.jpg	0	0	0	150.5599893699	150.609971327984	0.0499819580836629
53526	50	320	0	0	wineglass	1826	11	1	stimuli\wineglass\wineglass_12s.jpg	11	-1	1	0	wineglass_12s.jpg	0	0	0	150.659990588949	150.709972303222	0.0499817142735992
53626	50	321	0	0	gum	724	12	1	stimuli\gum\gum_09s.jpg	8	-1	1	0	gum_09s.jpg	0	0	0	150.759993758475	150.809976935605	0.0499831771303434
53726	50	322	0	0	calf2	242	13	1	stimuli\calf2\calf2_02s.jpg	1	-1	1	0	calf2_02s.jpg	0	0	0	150.85999546514	150.909977179417	0.0499817142772372
53826	50	323	0	0	meatloaf	990	14	1	stimuli\meatloaf\meatloaf_08s.jpg	7	-1	1	0	meatloaf_08s.jpg	0	0	0	150.959995952759	151.009975472749	0.0499795199903019
53926	50	324	0	0	hula_hoop	810	15	1	stimuli\hula_hoop\hula_hoop_05s.jpg	4	-1	1	0	hula_hoop_05s.jpg	0	0	0	151.059996684191	151.110011800389	0.0500151161977556
54026	50	325	0	0	mole	1014	16	1	stimuli\mole\mole_09s.jpg	8	-1	1	0	mole_09s.jpg	0	0	0	151.160027891827	151.209993027045	0.0499651352183719
54126	50	326	0	0	weather_vane	1798	17	1	stimuli\weather_vane\weather_vane_12s.jpg	11	-1	1	0	weather_vane_12s.jpg	0	0	0	151.260030573732	151.310000828955	0.0499702552224335
54226	50	327	0	0	comb	389	18	1	stimuli\comb\comb_07s.jpg	6	-1	1	0	comb_07s.jpg	0	0	0	151.360034474688	151.410018627059	0.0499841523705982
54326	50	328	0	0	juicer1	855	19	1	stimuli\juicer1\juicer1_10s.jpg	9	-1	1	0	juicer1_10s.jpg	0	0	0	151.460021308965	151.510019602298	0.0499982933324645
54426	50	329	0	0	stove2	1564	20	1	stimuli\stove2\stove2_06s.jpg	5	-1	1	0	stove2_06s.jpg	0	0	0	151.560043008027	151.610003510861	0.0499605028344376
54526	50	330	0	0	wind_chimes	1817	21	1	stimuli\wind_chimes\wind_chimes_12s.jpg	11	-1	1	0	wind_chimes_12s.jpg	0	0	0	151.660016920392	151.709998390856	0.0499814704635355
54626	50	331	0	0	sweeper	1594	22	1	stimuli\sweeper\sweeper_08s.jpg	7	-1	1	0	sweeper_08s.jpg	0	0	0	151.760019846108	151.810003023242	0.0499831771339814
54726	50	332	0	0	tomato	1672	23	1	stimuli\tomato\tomato_06s.jpg	5	-1	1	0	tomato_06s.jpg	0	0	0	151.860052272794	151.910029842304	0.0499775695097924
54826	50	333	0	0	refrigerator	1300	24	1	stimuli\refrigerator\refrigerator_01b.jpg	0	-1	1	0	refrigerator_01b.jpg	0	0	0	151.960052028986	152.010033499449	0.0499814704635355
54926	50	334	0	0	mistletoe	1007	25	1	stimuli\mistletoe\mistletoe_02s.jpg	1	-1	1	0	mistletoe_02s.jpg	0	0	0	152.060057148989	152.110020577536	0.049963428547926
55026	50	335	0	0	root	1331	26	1	stimuli\root\root_01b.jpg	0	-1	1	0	root_01b.jpg	0	0	0	152.160038375645	152.210024966113	0.0499865904675971
55126	50	336	0	0	blind	140	27	1	stimuli\blind\blind_11s.jpg	10	-1	1	0	blind_11s.jpg	0	0	0	152.260056905179	152.31004081374	0.0499839085605345
55226	50	337	0	0	harp	755	28	1	stimuli\harp\harp_11s.jpg	10	-1	1	0	harp_11s.jpg	0	0	0	152.360063488039	152.410012531818	0.0499490437796339
55326	50	338	0	0	magnet	956	29	1	stimuli\magnet\magnet_10s.jpg	9	-1	1	0	magnet_10s.jpg	0	0	0	152.460036425167	152.510014238487	0.0499778133198561
55426	50	339	0	0	crystal2	454	30	1	stimuli\crystal2\crystal2_02s.jpg	1	-1	1	1	crystal2_02s.jpg	0	0	0	152.56004032612	152.610017651823	0.0499773257033667
55526	50	340	0	0	eel	545	31	1	stimuli\eel\eel_08s.jpg	7	-1	1	0	eel_08s.jpg	0	0	0	152.660040569932	152.710022771826	0.0499822018937266
55626	50	341	0	0	celery	291	32	1	stimuli\celery\celery_01b.jpg	0	-1	1	0	celery_01b.jpg	0	0	0	152.760044958504	152.810026185161	0.0499812266571098
55726	50	342	0	0	sheep	1414	33	1	stimuli\sheep\sheep_10s.jpg	9	-1	1	0	sheep_10s.jpg	0	0	0	152.86004910327	152.91002618516	0.049977081889665
55826	50	343	0	0	buoy	223	34	1	stimuli\buoy\buoy_05s.jpg	4	-1	1	0	buoy_05s.jpg	1	0.392265138143557	1	152.960049590889	153.010033499449	0.0499839085605345
55926	50	344	0	0	float	616	35	1	stimuli\float\float_05s.jpg	4	-1	1	0	float_05s.jpg	0	0	0	153.060066169946	153.110057636608	0.049991466661595
56026	50	345	0	0	peach	1129	36	1	stimuli\peach\peach_09n.jpg	8	-1	1	0	peach_09n.jpg	0	0	0	153.160061049944	153.210039350881	0.0499783009363455
56126	50	346	0	0	strainer	1566	37	1	stimuli\strainer\strainer_02s.jpg	1	-1	1	0	strainer_02s.jpg	0	0	0	153.260058611846	153.310043008027	0.0499843961806619
56226	50	347	0	0	tiger	1659	38	1	stimuli\tiger\tiger_03s.jpg	2	-1	1	0	tiger_03s.jpg	0	0	0	153.360061537562	153.410042276599	0.0499807390369824
56326	50	348	0	0	waterwheel	1794	39	1	stimuli\waterwheel\waterwheel_05s.jpg	4	-1	1	0	waterwheel_05s.jpg	0	0	0	153.460061537564	153.510043983268	0.0499824457037903
56426	50	349	0	0	petal	1158	40	1	stimuli\petal\petal_10s.jpg	9	-1	1	0	petal_10s.jpg	0	0	0	153.560063975659	153.61004788422	0.0499839085605345
56526	50	350	0	0	guacamole	719	41	1	stimuli\guacamole\guacamole_09s.jpg	8	-1	1	0	guacamole_09s.jpg	0	0	0	153.660067876615	153.710047396602	0.0499795199866639
56626	50	351	0	0	cash_machine	279	42	1	stimuli\cash_machine\cash_machine_01b.jpg	0	-1	1	0	cash_machine_01b.jpg	0	0	0	153.760081042336	153.810064219469	0.0499831771339814
56726	50	352	0	0	moose	1018	43	1	stimuli\moose\moose_04s.jpg	3	-1	1	0	moose_04s.jpg	0	0	0	153.860084943291	153.910087869008	0.0500029257163987
56826	50	353	0	0	train_car	1699	44	1	stimuli\train_car\train_car_06s.jpg	5	-1	1	0	train_car_06s.jpg	0	0	0	153.960109324256	154.010075678525	0.0499663542686903
56926	50	354	0	0	pocket	1205	45	1	stimuli\pocket\pocket_07s.jpg	6	-1	1	0	pocket_07s.jpg	0	0	0	154.060101034731	154.110072752806	0.0499717180755397
57026	50	355	0	0	racehorse	1267	46	1	stimuli\racehorse\racehorse_08s.jpg	7	-1	1	0	racehorse_08s.jpg	0	0	0	154.160094695679	154.210076897572	0.0499822018937266
57126	50	356	0	0	spinach	1515	47	1	stimuli\spinach\spinach_01b.jpg	0	-1	1	0	spinach_01b.jpg	0	0	0	154.260098596631	154.310086406149	0.0499878095179156
57226	50	357	0	0	bun	220	48	1	stimuli\bun\bun_02s.jpg	1	-1	1	0	bun_02s.jpg	0	0	0	154.36010103473	154.410080554717	0.0499795199866639
57326	50	358	0	0	lemonade	915	49	1	stimuli\lemonade\lemonade_09s.jpg	8	-1	1	0	lemonade_09s.jpg	0	0	0	154.460104691876	154.510085187099	0.0499804952232807
57426	50	359	0	0	meat_grinder	988	50	1	stimuli\meat_grinder\meat_grinder_12s.jpg	11	-1	1	0	meat_grinder_12s.jpg	0	0	0	154.560109080448	154.610089088055	0.0499800076067913
57526	50	360	0	0	flashbulb	610	51	1	stimuli\flashbulb\flashbulb_04s.jpg	3	-1	1	0	flashbulb_04s.jpg	0	0	0	154.66010688616	154.710090550914	0.0499836647541088
57626	50	361	0	0	cuckoo_clock	456	52	1	stimuli\cuckoo_clock\cuckoo_clock_10s.jpg	9	-1	1	0	cuckoo_clock_10s.jpg	0	0	0	154.760112981403	154.810095670917	0.049982689513854
57726	50	362	0	0	showerhead	1436	53	1	stimuli\showerhead\showerhead_08s.jpg	7	-1	1	0	showerhead_08s.jpg	0	0	0	154.860111274735	154.910088844244	0.0499775695097924
57826	50	363	0	0	leg	911	54	1	stimuli\leg\leg_10s.jpg	9	-1	1	0	leg_10s.jpg	0	0	0	154.960113712834	155.010094939487	0.0499812266534718
57926	50	364	0	0	lawnmower	905	55	1	stimuli\lawnmower\lawnmower_07s.jpg	6	-1	1	0	lawnmower_07s.jpg	0	0	0	155.060142726183	155.110124928076	0.0499822018937266
58026	50	365	0	0	measuring_cup	986	56	1	stimuli\measuring_cup\measuring_cup_01b.jpg	0	-1	1	0	measuring_cup_01b.jpg	0	0	0	155.160125415696	155.210101522349	0.0499761066530482
58126	50	366	0	0	couch	422	57	1	stimuli\couch\couch_01b.jpg	0	-1	1	0	couch_01b.jpg	0	0	0	155.260120783314	155.310101278537	0.0499804952232807
58226	50	367	0	0	chinchilla	332	58	1	stimuli\chinchilla\chinchilla_01b.jpg	0	-1	1	0	chinchilla_01b.jpg	0	0	0	155.360151015713	155.410111274734	0.049960259020736
58326	50	368	0	0	bone	161	59	1	stimuli\bone\bone_05s.jpg	4	-1	1	0	bone_05s.jpg	0	0	0	155.460150771902	155.510130779508	0.0499800076067913
58426	50	369	0	0	top_hat	1682	60	1	stimuli\top_hat\top_hat_04s.jpg	3	-1	1	0	top_hat_04s.jpg	0	0	0	155.560140775706	155.610114931882	0.0499741561761766
58526	50	370	0	0	bok_choy	156	61	1	stimuli\bok_choy\bok_choy_09s.jpg	8	-1	1	0	bok_choy_09s.jpg	0	0	0	155.660137362371	155.710118345218	0.0499809828470461
58626	50	371	0	0	straw2	1569	62	1	stimuli\straw2\straw2_11s.jpg	10	-1	1	0	straw2_11s.jpg	0	0	0	155.76014418904	155.810121027123	0.0499768380832393
58726	50	372	0	0	deer	476	63	1	stimuli\deer\deer_01b.jpg	0	-1	1	0	deer_01b.jpg	0	0	0	155.860148089996	155.910122733789	0.049974643792666
58826	50	373	0	0	pickax	1166	64	1	stimuli\pickax\pickax_01b.jpg	0	-1	1	0	pickax_01b.jpg	0	0	0	155.960141750944	156.010122002361	0.049980251416855
58926	50	374	0	0	sandpaper	1356	65	1	stimuli\sandpaper\sandpaper_03s.jpg	2	-1	1	0	sandpaper_03s.jpg	0	0	0	156.06014613952	156.110131267127	0.049985127607215
59026	50	375	0	0	container	398	66	1	stimuli\container\container_07s.jpg	6	-1	1	0	container_07s.jpg	0	0	0	156.160147114759	156.210129560463	0.0499824457037903
59126	50	376	0	0	truck	1720	67	1	stimuli\truck\truck_07s.jpg	6	-1	1	0	truck_07s.jpg	0	0	0	156.260149309044	156.310157110955	0.0500078019103967
59226	50	377	0	0	bulletin_board	217	68	1	stimuli\bulletin_board\bulletin_board_07s.jpg	6	-1	1	0	bulletin_board_07s.jpg	0	0	0	156.360157354764	156.41013077951	0.0499734247459855
59326	50	378	0	0	elbow	552	69	1	stimuli\elbow\elbow_10s.jpg	9	-1	1	0	elbow_10s.jpg	0	0	0	156.460154429049	156.510136143323	0.0499817142735992
59426	50	379	0	0	staple_gun	1538	70	1	stimuli\staple_gun\staple_gun_11s.jpg	10	-1	1	0	staple_gun_11s.jpg	0	0	0	156.560149552854	156.610119076646	0.0499695237922424
59526	50	380	0	0	rocking_chair	1321	71	1	stimuli\rocking_chair\rocking_chair_07s.jpg	6	-1	1	0	rocking_chair_07s.jpg	0	0	0	156.66016028048	156.710141263324	0.0499809828434081
59626	50	381	0	0	domino	503	72	1	stimuli\domino\domino_07s.jpg	6	-1	1	0	domino_07s.jpg	0	0	0	156.760177590968	156.810159305242	0.0499817142735992
59726	50	382	0	0	pie	1168	73	1	stimuli\pie\pie_12s.jpg	11	-1	1	0	pie_12s.jpg	0	0	0	156.860183686207	156.910164912864	0.0499812266571098
59826	50	383	0	0	locker	941	74	1	stimuli\locker\locker_07s.jpg	6	-1	1	0	locker_07s.jpg	0	0	0	156.960168082391	157.010148089998	0.0499800076067913
59926	50	384	0	0	calzone	243	75	1	stimuli\calzone\calzone_07s.jpg	6	-1	1	0	calzone_07s.jpg	0	0	0	157.060188318592	157.110146870949	0.0499585523575661
60026	50	385	0	0	clothespin	363	76	1	stimuli\clothespin\clothespin_04s.jpg	3	-1	1	0	clothespin_04s.jpg	0	0	0	157.16015979286	157.210143457611	0.0499836647504708
60126	50	386	0	0	water_filter	1789	77	1	stimuli\water_filter\water_filter_02s.jpg	1	-1	1	0	water_filter_02s.jpg	0	0	0	157.260162474766	157.31014492047	0.0499824457037903
60226	50	387	0	0	pine_needle	1180	78	1	stimuli\pine_needle\pine_needle_05s.jpg	4	-1	1	1	pine_needle_05s.jpg	0	0	0	157.360167838578	157.410146627139	0.0499787885601108
60326	50	388	0	0	jelly_bean	844	79	1	stimuli\jelly_bean\jelly_bean_10s.jpg	9	-1	1	0	jelly_bean_10s.jpg	0	0	0	157.460168570007	157.510151747141	0.0499831771339814
60426	50	389	0	0	laundry_basket	902	80	1	stimuli\laundry_basket\laundry_basket_03s.jpg	2	-1	1	0	laundry_basket_03s.jpg	0	0	0	157.560171983343	157.61015296619	0.0499809828470461
60526	50	390	0	0	tortellini	1686	81	1	stimuli\tortellini\tortellini_02s.jpg	1	-1	1	0	tortellini_02s.jpg	0	0	0	157.660174665249	157.710153453809	0.0499787885601108
60626	50	391	0	0	music_box	1041	82	1	stimuli\music_box\music_box_05s.jpg	4	-1	1	0	music_box_05s.jpg	0	0	0	157.760175396681	157.81017539668	0.0499999999992724
60726	50	392	0	0	cooler	403	83	1	stimuli\cooler\cooler_01b.jpg	0	-1	1	0	cooler_01b.jpg	0	0	0	157.860191975738	157.910172714772	0.0499807390333444
60826	50	393	0	0	eye	564	84	1	stimuli\eye\eye_03s.jpg	2	-1	1	0	eye_03s.jpg	0	0	0	157.960195145264	158.010174421441	0.0499792761766003
60926	50	394	0	0	window	1818	85	1	stimuli\window\window_05s.jpg	4	-1	1	0	window_05s.jpg	0	0	0	158.060202459554	158.110186124304	0.0499836647504708
61026	50	395	0	0	seaweed	1400	86	1	stimuli\seaweed\seaweed_05s.jpg	4	-1	1	0	seaweed_05s.jpg	0	0	0	158.160205385269	158.210172714775	0.0499673295053071
61126	50	396	0	0	taxi	1630	87	1	stimuli\taxi\taxi_12s.jpg	11	-1	1	0	taxi_12s.jpg	0	0	0	158.2601961205	158.310171983343	0.0499758628429845
61226	50	397	0	0	shorts	1430	88	1	stimuli\shorts\shorts_06s.jpg	5	-1	1	0	shorts_06s.jpg	0	0	0	158.36022830338	158.410203922413	0.0499756190329208
61326	50	398	0	0	raincoat	1279	89	1	stimuli\raincoat\raincoat_04s.jpg	3	-1	1	0	raincoat_04s.jpg	0	0	0	158.460225865281	158.510188074782	0.0499622095012455
61426	50	399	0	0	car_seat	269	90	1	stimuli\car_seat\car_seat_12s.jpg	11	-1	1	0	car_seat_12s.jpg	0	0	0	158.560211724322	158.610210017654	0.0499982933324645
61526	50	400	0	0	swordfish	1603	91	1	stimuli\swordfish\swordfish_06s.jpg	5	-1	1	0	swordfish_06s.jpg	0	0	0	158.660229522426	158.710198070978	0.0499685485519876
61626	50	401	0	0	thermometer	1646	92	1	stimuli\thermometer\thermometer_10s.jpg	9	-1	1	0	thermometer_10s.jpg	0	0	0	158.760215869086	158.810187099545	0.0499712304590503
61726	50	402	0	0	solar_panel	1493	93	1	stimuli\solar_panel\solar_panel_02s.jpg	1	-1	1	0	solar_panel_02s.jpg	0	0	0	158.860239031004	158.910198802409	0.0499597714042466
61826	50	403	0	0	microscope	999	94	1	stimuli\microscope\microscope_11s.jpg	10	-1	1	0	microscope_11s.jpg	0	0	0	158.960237324336	159.010230253854	0.0499929295183392
61926	50	404	0	0	road_sign	1315	95	1	stimuli\road_sign\road_sign_02s.jpg	1	-1	1	0	road_sign_02s.jpg	0	0	0	159.060240493862	159.110206360507	0.049965866644925
62026	50	405	0	0	tent	1643	96	1	stimuli\tent\tent_10n.jpg	9	-1	1	0	tent_10n.jpg	0	0	0	159.160246101485	159.210222939564	0.0499768380796013
62126	50	406	0	0	licorice	922	97	1	stimuli\licorice\licorice_12s.jpg	11	-1	1	0	licorice_12s.jpg	0	0	0	159.260246589103	159.310228303377	0.0499817142735992
62226	50	407	0	0	outfit	1087	98	1	stimuli\outfit\outfit_06s.jpg	5	-1	1	0	outfit_06s.jpg	0	0	0	159.360238787194	159.410209286223	0.0499704990288592
62326	50	408	0	0	mousse	1030	99	1	stimuli\mousse\mousse_10s.jpg	9	-1	1	0	mousse_10s.jpg	0	0	0	159.460222451948	159.51022001385	0.0499975619022734
62426	50	409	0	0	totem_pole	1689	100	1	stimuli\totem_pole\totem_pole_10s.jpg	9	-1	1	1	totem_pole_10s.jpg	0	0	0	159.560257316731	159.610235373857	0.0499780571262818
62526	50	410	0	0	flower	619	101	1	stimuli\flower\flower_04s.jpg	3	-1	1	0	flower_04s.jpg	0	0	0	159.660240006244	159.710235617669	0.0499956114254019
62626	50	411	0	0	chainsaw	299	102	1	stimuli\chainsaw\chainsaw_09s.jpg	8	-1	1	0	chainsaw_09s.jpg	0	0	0	159.760245857673	159.810246832913	0.0500009752395272
62726	50	412	0	0	tile	1660	103	1	stimuli\tile\tile_02s.jpg	1	-1	1	0	tile_02s.jpg	1	0.34191258935607	1	159.860267556734	159.91023488624	0.0499673295053071
62826	50	413	0	0	roll	1323	104	1	stimuli\roll\roll_07s.jpg	6	-1	1	0	roll_07s.jpg	0	0	0	159.960253415775	160.010230253854	0.0499768380796013
62926	50	414	0	0	toolbox	1677	105	1	stimuli\toolbox\toolbox_07s.jpg	6	-1	1	0	toolbox_07s.jpg	0	0	0	160.060271701499	160.11025634149	0.0499846399907256
63026	50	415	0	0	handle	748	106	1	stimuli\handle\handle_09s.jpg	8	-1	1	0	handle_09s.jpg	0	0	0	160.160258048159	160.210255610062	0.0499975619022734
63126	50	416	0	0	ring	1313	107	1	stimuli\ring\ring_05s.jpg	4	-1	1	0	ring_05s.jpg	0	0	0	160.260228303378	160.310260242444	0.0500319390666846
63226	50	417	0	0	monkey	1017	108	1	stimuli\monkey\monkey_05s.jpg	4	-1	1	0	monkey_05s.jpg	0	0	0	160.360284623413	160.410262680543	0.0499780571299198
63326	50	418	0	0	stopwatch	1562	109	1	stimuli\stopwatch\stopwatch_11s.jpg	10	-1	1	0	stopwatch_11s.jpg	0	0	0	160.460287549129	160.51027804055	0.0499904914213403
63426	50	419	0	0	hairnet	736	110	1	stimuli\hairnet\hairnet_10s.jpg	9	-1	1	0	hairnet_10s.jpg	0	0	0	160.560290962465	160.610251221486	0.049960259020736
63526	50	420	0	0	pill	1174	111	1	stimuli\pill\pill_10s.jpg	9	-1	1	0	pill_10s.jpg	0	0	0	160.660268044354	160.710247564341	0.0499795199866639
63626	50	421	0	0	gumdrop	726	112	1	stimuli\gumdrop\gumdrop_08s.jpg	7	-1	1	0	gumdrop_08s.jpg	0	0	0	160.760293156753	160.810270238642	0.049977081889665
63726	50	422	0	0	shredder	1437	113	1	stimuli\shredder\shredder_10s.jpg	9	-1	1	0	shredder_10s.jpg	0	0	0	160.860294131991	160.910273651978	0.0499795199866639
63826	50	423	0	0	spam	1504	114	1	stimuli\spam\spam_05s.jpg	4	-1	1	0	spam_05s.jpg	0	0	0	160.960278771981	161.01027145769	0.0499926857082755
63926	50	424	0	0	saucer	1363	115	1	stimuli\saucer\saucer_12s.jpg	11	-1	1	0	saucer_12s.jpg	0	0	0	161.060275846263	161.110260486254	0.0499846399907256
64026	50	425	0	0	apron	33	116	1	stimuli\apron\apron_12s.jpg	11	-1	1	0	apron_12s.jpg	0	0	0	161.160282429126	161.21026511864	0.049982689513854
64126	50	426	0	0	scissors	1379	117	1	stimuli\scissors\scissors_04s.jpg	3	-1	1	0	scissors_04s.jpg	0	0	0	161.260287792938	161.310268288165	0.0499804952269187
64226	50	427	0	0	gong	692	118	1	stimuli\gong\gong_05s.jpg	4	-1	1	0	gong_05s.jpg	0	0	0	161.360290962464	161.410270238641	0.0499792761766003
64326	50	428	0	0	jewelry	850	119	1	stimuli\jewelry\jewelry_08s.jpg	7	-1	1	0	jewelry_08s.jpg	0	0	0	161.460290962463	161.510270238643	0.0499792761802382
64426	50	429	0	0	bagel	55	120	1	stimuli\bagel\bagel_02n.jpg	1	-1	1	0	bagel_02n.jpg	0	0	0	161.560290474845	161.610270726262	0.049980251416855
64526	50	430	0	0	anklet	23	121	1	stimuli\anklet\anklet_08s.jpg	7	-1	1	0	anklet_08s.jpg	0	0	0	161.660294131991	161.710272676737	0.0499785447464092
64626	50	431	0	0	hamster	743	122	1	stimuli\hamster\hamster_03s.jpg	2	-1	1	0	hamster_03s.jpg	0	0	0	161.760294375799	161.810305591043	0.0500112152440124
64726	50	432	0	0	chili	327	123	1	stimuli\chili\chili_08s.jpg	7	-1	1	0	chili_08s.jpg	0	0	0	161.860302909139	161.910283404362	0.0499804952232807
64826	50	433	0	0	grenade	713	124	1	stimuli\grenade\grenade_06s.jpg	5	-1	1	0	grenade_06s.jpg	0	0	0	161.960314368192	162.010294619609	0.049980251416855
64926	50	434	0	0	hanger	751	125	1	stimuli\hanger\hanger_03s.jpg	2	-1	1	0	hanger_03s.jpg	0	0	0	162.060316806288	162.110300471042	0.0499836647541088
65026	50	435	0	0	diskette	493	126	1	stimuli\diskette\diskette_12s.jpg	11	-1	1	0	diskette_12s.jpg	0	0	0	162.160319244387	162.210302177707	0.0499829333202797
65126	50	436	0	0	poinsettia	1209	127	1	stimuli\poinsettia\poinsettia_07s.jpg	6	-1	1	0	poinsettia_07s.jpg	0	0	0	162.260327533913	162.310306566284	0.0499790323701745
65226	50	437	0	0	catapult	285	128	1	stimuli\catapult\catapult_05s.jpg	4	-1	1	0	catapult_05s.jpg	0	0	0	162.360326314865	162.410302909138	0.0499765942731756
65326	50	438	0	0	napkin	1050	129	1	stimuli\napkin\napkin_12s.jpg	11	-1	1	0	napkin_12s.jpg	0	0	0	162.460328752964	162.510308760571	0.0499800076067913
65426	50	439	0	0	wagon	1772	130	1	stimuli\wagon\wagon_09s.jpg	8	-1	1	0	wagon_09s.jpg	0	0	0	162.56033045963	162.610311442477	0.0499809828470461
65526	50	440	0	0	playpen	1200	131	1	stimuli\playpen\playpen_07s.jpg	6	-1	1	0	playpen_07s.jpg	0	0	0	162.660330947252	162.710315343433	0.0499843961806619
65626	50	441	0	0	mustard	1044	132	1	stimuli\mustard\mustard_03s.jpg	2	-1	1	0	mustard_03s.jpg	0	0	0	162.760331922487	162.810309735807	0.0499778133198561
65726	50	442	0	0	stair	1532	133	1	stimuli\stair\stair_02s.jpg	1	-1	1	0	stair_02s.jpg	0	0	0	162.860328752962	162.910310467239	0.0499817142772372
65826	50	443	0	0	javelin	841	134	1	stimuli\javelin\javelin_10s.jpg	9	-1	1	0	javelin_10s.jpg	0	0	0	162.960332410108	163.010311442478	0.0499790323701745
65926	50	444	0	0	peeler	1138	135	1	stimuli\peeler\peeler_01b.jpg	0	-1	1	0	peeler_01b.jpg	0	0	0	163.06033143487	163.110310954857	0.0499795199866639
66026	50	445	0	0	bomb	160	136	1	stimuli\bomb\bomb_08s.jpg	7	-1	1	0	bomb_08s.jpg	0	0	0	163.160334360586	163.210314855813	0.0499804952269187
66126	50	446	0	0	cellphone	293	137	1	stimuli\cellphone\cellphone_10s.jpg	9	-1	1	0	cellphone_10s.jpg	0	0	0	163.260336067255	163.310348501545	0.0500124342906929
66226	50	447	0	0	apple	30	138	1	stimuli\apple\apple_05s.jpg	4	-1	1	0	apple_05s.jpg	0	0	0	163.36036020441	163.410327046295	0.0499668418851797
66326	50	448	0	0	denture	478	139	1	stimuli\denture\denture_03s.jpg	2	-1	1	0	denture_03s.jpg	0	0	0	163.460360692032	163.510333629158	0.0499729371258582
66426	50	449	0	0	notepad	1065	140	1	stimuli\notepad\notepad_03s.jpg	2	-1	1	0	notepad_03s.jpg	0	0	0	163.560350695832	163.610327046295	0.0499763504631119
66526	50	450	0	0	pug	1249	141	1	stimuli\pug\pug_10s.jpg	9	-1	1	0	pug_10s.jpg	0	0	0	163.660348745358	163.710329240581	0.0499804952232807
66626	50	451	0	0	telegraph	1638	142	1	stimuli\telegraph\telegraph_09s.jpg	8	-1	1	0	telegraph_09s.jpg	0	0	0	163.760357278694	163.810334604397	0.0499773257033667
66726	50	452	0	0	moccasin	1010	143	1	stimuli\moccasin\moccasin_10s.jpg	9	-1	1	0	moccasin_10s.jpg	0	0	0	163.860351671072	163.910333141539	0.0499814704671735
66826	50	453	0	0	stomach	1560	144	1	stimuli\stomach\stomach_01b.jpg	0	-1	1	0	stomach_01b.jpg	0	0	0	163.960353621551	164.010345819639	0.0499921980881481
66926	50	454	0	0	tape_measure	1623	145	1	stimuli\tape_measure\tape_measure_08s.jpg	7	-1	1	0	tape_measure_08s.jpg	0	0	0	164.06038361014	164.110344356781	0.0499607466408634
67026	50	455	0	0	place_mat	1193	146	1	stimuli\place_mat\place_mat_06s.jpg	5	-1	1	0	place_mat_06s.jpg	0	0	0	164.160387023476	164.210348501547	0.0499614780710544
67126	50	456	0	0	padlock	1095	147	1	stimuli\padlock\padlock_10s.jpg	9	-1	1	0	padlock_10s.jpg	0	0	0	164.260386292048	164.310369469178	0.0499831771303434
67226	50	457	0	0	bulldozer	215	148	1	stimuli\bulldozer\bulldozer_03n.jpg	2	-1	1	1	bulldozer_03n.jpg	0	0	0	164.36039092443	164.410369712987	0.0499787885564729
67326	50	458	0	0	hearing_aid	770	149	1	stimuli\hearing_aid\hearing_aid_08s.jpg	7	-1	1	0	hearing_aid_08s.jpg	0	0	0	164.460390680619	164.510372638706	0.0499819580873009
67426	50	459	0	0	hot_tub	804	150	1	stimuli\hot_tub\hot_tub_03s.jpg	2	-1	1	0	hot_tub_03s.jpg	1	0.256827646066085	1	164.560378977756	164.610374832992	0.0499958552354656
67526	50	460	0	0	duckling	526	151	1	stimuli\duckling\duckling_11s.jpg	10	-1	1	0	duckling_11s.jpg	0	0	0	164.660396288244	164.710377027277	0.0499807390333444
67626	50	461	0	0	wing	1827	152	1	stimuli\wing\wing_02s.jpg	1	-1	1	0	wing_02s.jpg	0	0	0	164.760399701579	164.810362886317	0.0499631847378623
67726	50	462	0	0	footprint	632	153	1	stimuli\footprint\footprint_09s.jpg	8	-1	1	0	footprint_09s.jpg	0	0	0	164.860381172042	164.910360935839	0.0499797637967276
67826	50	463	0	0	shoehorn	1425	154	1	stimuli\shoehorn\shoehorn_03s.jpg	2	-1	1	0	shoehorn_03s.jpg	0	0	0	164.960387023475	165.010387511094	0.0500004876193998
67926	50	464	0	0	polar_bear	1211	155	1	stimuli\polar_bear\polar_bear_12s.jpg	11	-1	1	0	polar_bear_12s.jpg	0	0	0	165.060394825385	165.110389217763	0.0499943923787214
68026	50	465	0	0	wheat	1805	156	1	stimuli\wheat\wheat_06s.jpg	5	-1	1	0	wheat_06s.jpg	0	0	0	165.160393362527	165.210390680619	0.0499973180922098
68126	50	466	0	0	mixer	1009	157	1	stimuli\mixer\mixer_10s.jpg	9	-1	1	0	mixer_10s.jpg	0	0	0	165.260411160634	165.310381415853	0.0499702552187955
68226	50	467	0	0	sugar_cube	1579	158	1	stimuli\sugar_cube\sugar_cube_09s.jpg	8	-1	1	0	sugar_cube_09s.jpg	0	0	0	165.360397507291	165.410375808231	0.0499783009399835
68326	50	468	0	0	hydrant	814	159	1	stimuli\hydrant\hydrant_09s.jpg	8	-1	1	0	hydrant_09s.jpg	0	0	0	165.460399457766	165.51037653966	0.049977081893303
68426	50	469	0	0	pocket_watch	1206	160	1	stimuli\pocket_watch\pocket_watch_09s.jpg	8	-1	1	0	pocket_watch_09s.jpg	0	0	0	165.560397263482	165.610401408245	0.0500041447630792
68526	50	470	0	0	corset	418	161	1	stimuli\corset\corset_08s.jpg	7	-1	1	0	corset_08s.jpg	0	0	0	165.660423838737	165.710403602534	0.0499797637967276
68626	50	471	0	0	washboard	1782	162	1	stimuli\washboard\washboard_07s.jpg	6	-1	1	0	washboard_07s.jpg	0	0	0	165.760426520643	165.810388973954	0.0499624533113092
68726	50	472	0	0	lifesaver	925	163	1	stimuli\lifesaver\lifesaver_02s.jpg	1	-1	1	0	lifesaver_02s.jpg	0	0	0	165.860410673013	165.91039116824	0.0499804952269187
68826	50	473	0	0	espresso	560	164	1	stimuli\espresso\espresso_02s.jpg	1	-1	1	0	espresso_02s.jpg	0	0	0	165.960412379682	166.010395313006	0.0499829333239177
68926	50	474	0	0	chime	328	165	1	stimuli\chime\chime_08s.jpg	7	-1	1	0	chime_08s.jpg	0	0	0	166.060415061587	166.110399457768	0.0499843961806619
69026	50	475	0	0	workbench	1835	166	1	stimuli\workbench\workbench_02s.jpg	1	-1	1	0	workbench_02s.jpg	0	0	0	166.160418718733	166.210399701577	0.0499809828434081
69126	50	476	0	0	slug	1472	167	1	stimuli\slug\slug_05s.jpg	4	-1	1	0	slug_05s.jpg	0	0	0	166.260420425398	166.310400189199	0.0499797638003656
69226	50	477	0	0	champagne	304	168	1	stimuli\champagne\champagne_01b.jpg	0	-1	1	0	champagne_01b.jpg	0	0	0	166.360423351118	166.410405796818	0.0499824457001523
69326	50	478	0	0	chariot	309	169	1	stimuli\chariot\chariot_02s.jpg	1	-1	1	0	chariot_02s.jpg	0	0	0	166.460423838736	166.510412379681	0.0499885409444687
69426	50	479	0	0	hatchet	759	170	1	stimuli\hatchet\hatchet_06s.jpg	5	-1	1	0	hatchet_06s.jpg	0	0	0	166.560433347313	166.610410429203	0.049977081889665
69526	50	480	0	0	pesto	1156	171	1	stimuli\pesto\pesto_01b.jpg	0	-1	1	0	pesto_01b.jpg	0	0	0	166.660432372075	166.710413111108	0.0499807390333444
69626	50	481	0	0	thermostat	1648	172	1	stimuli\thermostat\thermostat_10s.jpg	9	-1	1	0	thermostat_10s.jpg	0	0	0	166.760431153027	166.810414086347	0.0499829333202797
69726	50	482	0	0	gumball	725	173	1	stimuli\gumball\gumball_01b.jpg	0	-1	1	0	gumball_01b.jpg	0	0	0	166.860435541599	166.910417987303	0.0499824457037903
69826	50	483	0	0	tab	1607	174	1	stimuli\tab\tab_07s.jpg	6	-1	1	0	tab_07s.jpg	0	0	0	166.960437979698	167.010420669209	0.049982689510216
69926	50	484	0	0	money	1015	175	1	stimuli\money\money_11s.jpg	10	-1	1	0	money_11s.jpg	0	0	0	167.060439930174	167.110420669211	0.0499807390369824
70026	50	485	0	0	radiator	1272	176	1	stimuli\radiator\radiator_03s.jpg	2	-1	1	0	radiator_03s.jpg	0	0	0	167.160439442556	167.210419693973	0.049980251416855
70126	50	486	0	0	vase	1753	177	1	stimuli\vase\vase_02s.jpg	1	-1	1	0	vase_02s.jpg	0	0	0	167.260441880651	167.310426764452	0.0499848838007892
70226	50	487	0	0	chin	330	178	1	stimuli\chin\chin_08s.jpg	7	-1	1	0	chin_08s.jpg	0	0	0	167.36044261208	167.410425545404	0.0499829333239177
70326	50	488	0	0	ham	739	179	1	stimuli\ham\ham_05s.jpg	4	-1	1	0	ham_05s.jpg	0	0	0	167.460446756846	167.51043481017	0.0499880533243413
70426	50	489	0	0	shovel	1432	180	1	stimuli\shovel\shovel_11s.jpg	10	-1	1	0	shovel_11s.jpg	0	0	0	167.560457240659	167.610433591122	0.0499763504631119
70526	50	490	0	0	goalpost	683	181	1	stimuli\goalpost\goalpost_09s.jpg	8	-1	1	0	goalpost_09s.jpg	0	0	0	167.660457484471	167.710439198745	0.0499817142735992
70626	50	491	0	0	robe	1317	182	1	stimuli\robe\robe_05s.jpg	4	-1	1	0	robe_05s.jpg	0	0	0	167.760464311141	167.810442124461	0.0499778133198561
70726	50	492	0	0	trunk	1722	183	1	stimuli\trunk\trunk_05s.jpg	4	-1	1	0	trunk_05s.jpg	0	0	0	167.860460653996	167.910439198746	0.0499785447500471
70826	50	493	0	0	table	1608	184	1	stimuli\table\table_07s.jpg	6	-1	1	0	table_07s.jpg	0	0	0	167.960464311142	168.010466505428	0.0500021942862077
70926	50	494	0	0	sled	1460	185	1	stimuli\sled\sled_01b.jpg	0	-1	1	0	sled_01b.jpg	0	0	0	168.060476014005	168.110450413991	0.0499743999862403
71026	50	495	0	0	fire_alarm	591	186	1	stimuli\fire_alarm\fire_alarm_04s.jpg	3	-1	1	0	fire_alarm_04s.jpg	0	0	0	168.160474794957	168.210453583517	0.0499787885601108
71126	50	496	0	0	kazoo	864	187	1	stimuli\kazoo\kazoo_04s.jpg	3	-1	1	0	kazoo_04s.jpg	0	0	0	168.26048040258	168.310459922566	0.0499795199866639
71226	50	497	0	0	fruitcake	646	188	1	stimuli\fruitcake\fruitcake_10s.jpg	9	-1	1	0	fruitcake_10s.jpg	0	0	0	168.360474794958	168.410454558754	0.0499797637967276
71326	50	498	0	0	jetski	848	189	1	stimuli\jetski\jetski_01b.jpg	0	-1	1	0	jetski_01b.jpg	0	0	0	168.460493080682	168.510470406382	0.0499773256997287
71426	50	499	0	0	moth	1023	190	1	stimuli\moth\moth_08n.jpg	7	-1	1	0	moth_08n.jpg	0	0	0	168.560490886397	168.610462604473	0.0499717180755397
71526	50	500	0	0	film	586	191	1	stimuli\film\film_10s.jpg	9	-1	1	1	film_10s.jpg	0	0	0	168.660484547345	168.710465286378	0.0499807390333444
71626	50	501	0	0	screwdriver	1391	192	1	stimuli\screwdriver\screwdriver_03s.jpg	2	-1	1	0	screwdriver_03s.jpg	0	0	0	168.760493568301	168.810470650191	0.049977081889665
71726	50	502	0	0	ready_meal	1292	193	1	stimuli\ready_meal\ready_meal_09s.jpg	8	-1	1	0	ready_meal_09s.jpg	0	0	0	168.860512097835	168.910459678758	0.0499475809228898
71826	50	503	0	0	rattle	1287	194	1	stimuli\rattle\rattle_08s.jpg	7	-1	1	0	rattle_08s.jpg	1	0.301702766751987	1	168.9604808902	169.010460897807	0.0499800076067913
71926	50	504	0	0	scaffolding	1370	195	1	stimuli\scaffolding\scaffolding_01b.jpg	0	-1	1	0	scaffolding_01b.jpg	0	0	0	169.06051794927	169.110500882591	0.0499829333202797
72026	50	505	0	0	exerciser	561	196	1	stimuli\exerciser\exerciser_11s.jpg	10	-1	1	0	exerciser_11s.jpg	0	0	0	169.160500394973	169.210495762589	0.0499953676153382
72126	50	506	0	0	whiteboard	1813	197	1	stimuli\whiteboard\whiteboard_10s.jpg	9	-1	1	0	whiteboard_10s.jpg	0	0	0	169.260502589259	169.310499907355	0.0499973180958477
72226	50	507	0	0	feather	574	198	1	stimuli\feather\feather_11s.jpg	10	-1	1	0	feather_11s.jpg	0	0	0	169.360505271165	169.410488935919	0.0499836647541088
72326	50	508	0	0	mandolin	965	199	1	stimuli\mandolin\mandolin_05s.jpg	4	-1	1	0	mandolin_05s.jpg	0	0	0	169.460522337842	169.510505514976	0.0499831771339814
72426	50	509	0	0	skeleton	1450	200	1	stimuli\skeleton\skeleton_08s.jpg	7	-1	1	0	skeleton_08s.jpg	0	0	0	169.560527457845	169.610507709262	0.049980251416855
72526	50	510	0	0	gurney	728	201	1	stimuli\gurney\gurney_08s.jpg	7	-1	1	0	gurney_08s.jpg	0	0	0	169.660513316885	169.710510391171	0.049997074285784
72626	50	511	0	0	sarcophagus	1358	202	1	stimuli\sarcophagus\sarcophagus_01b.jpg	0	-1	1	0	sarcophagus_01b.jpg	0	0	0	169.760515023554	169.81051648641	0.0500014628560166
72726	50	512	0	0	pogo_stick	1208	203	1	stimuli\pogo_stick\pogo_stick_07s.jpg	6	-1	1	0	pogo_stick_07s.jpg	0	0	0	169.860536966422	169.910506977834	0.0499700114123698
72826	50	513	0	0	steering_wheel	1546	204	1	stimuli\steering_wheel\steering_wheel_02s.jpg	1	-1	1	0	steering_wheel_02s.jpg	0	0	0	169.960528676893	170.010507221643	0.0499785447500471
72926	50	514	0	0	hail	732	205	1	stimuli\hail\hail_03s.jpg	2	-1	1	0	hail_03s.jpg	0	0	0	170.060525019751	170.110501126401	0.0499761066494102
73026	50	515	0	0	ice-cream_cone	817	206	1	stimuli\ice-cream_cone\ice-cream_cone_02s.jpg	1	-1	1	0	ice-cream_cone_02s.jpg	0	0	0	170.160528189277	170.2105262388	0.0499980495224008
73126	50	516	0	0	pinecone	1183	207	1	stimuli\pinecone\pinecone_10s.jpg	9	-1	1	0	pinecone_10s.jpg	0	0	0	170.260553545482	170.310528433085	0.0499748876027297
73226	50	517	0	0	easter_egg	543	208	1	stimuli\easter_egg\easter_egg_03s.jpg	2	-1	1	0	easter_egg_03s.jpg	0	0	0	170.36054769405	170.410530871181	0.0499831771303434
73326	50	518	0	0	coconut	375	209	1	stimuli\coconut\coconut_08s.jpg	7	-1	1	0	coconut_08s.jpg	0	0	0	170.460551595002	170.510534528326	0.0499829333239177
73426	50	519	0	0	detonator	482	210	1	stimuli\detonator\detonator_06s.jpg	5	-1	1	0	detonator_06s.jpg	0	0	0	170.560541842617	170.610516730219	0.0499748876027297
73526	50	520	0	0	pomegranate	1219	211	1	stimuli\pomegranate\pomegranate_06s.jpg	5	-1	1	0	pomegranate_06s.jpg	0	0	0	170.660537697851	170.71053184642	0.0499941485686577
73626	50	521	0	0	crayon	435	212	1	stimuli\crayon\crayon_09s.jpg	8	-1	1	0	crayon_09s.jpg	0	0	0	170.760542817854	170.810525994988	0.0499831771339814
73726	50	522	0	0	wrist	1842	213	1	stimuli\wrist\wrist_07s.jpg	6	-1	1	0	wrist_07s.jpg	0	0	0	170.860550375957	170.91052477594	0.0499743999826023
73826	50	523	0	0	cornhusk	414	214	1	stimuli\cornhusk\cornhusk_01b.jpg	0	-1	1	0	cornhusk_01b.jpg	0	0	0	170.960551107386	171.010527214035	0.0499761066494102
73926	50	524	0	0	bison	134	215	1	stimuli\bison\bison_09s.jpg	8	-1	1	0	bison_09s.jpg	0	0	0	171.060548913098	171.110529408325	0.0499804952269187
74026	50	525	0	0	boulder	172	216	1	stimuli\boulder\boulder_09s.jpg	8	-1	1	0	boulder_09s.jpg	0	0	0	171.160552570243	171.210537454044	0.0499848838007892
74126	50	526	0	0	toucan	1690	217	1	stimuli\toucan\toucan_07s.jpg	6	-1	1	0	toucan_07s.jpg	0	0	0	171.260555252149	171.310537697853	0.0499824457037903
74226	50	527	0	0	shrimp	1438	218	1	stimuli\shrimp\shrimp_03s.jpg	2	-1	1	0	shrimp_03s.jpg	0	0	0	171.360554764531	171.410531358801	0.0499765942695376
74326	50	528	0	0	thread	1651	219	1	stimuli\thread\thread_08s.jpg	7	-1	1	0	thread_08s.jpg	0	0	0	171.460572318825	171.51056256644	0.0499902476149146
74426	50	529	0	0	contact_lens	397	220	1	stimuli\contact_lens\contact_lens_11s.jpg	10	-1	1	0	contact_lens_11s.jpg	0	0	0	171.560586459786	171.610560615962	0.0499741561761766
74526	50	530	0	0	meat	987	221	1	stimuli\meat\meat_11s.jpg	10	-1	1	0	meat_11s.jpg	0	0	0	171.660566955012	171.710590116931	0.0500231619189435
74626	50	531	0	0	grain	698	222	1	stimuli\grain\grain_07s.jpg	6	-1	1	0	grain_07s.jpg	0	0	0	171.760588166453	171.810565492156	0.0499773257033667
74726	50	532	0	0	speedboat	1511	223	1	stimuli\speedboat\speedboat_12s.jpg	11	-1	1	0	speedboat_12s.jpg	0	0	0	171.860592798839	171.910563297868	0.0499704990288592
74826	50	533	0	0	sunroof	1586	224	1	stimuli\sunroof\sunroof_11s.jpg	10	-1	1	0	sunroof_11s.jpg	0	0	0	171.960569636918	172.010564516917	0.0499948799988488
74926	50	534	0	0	drink	521	225	1	stimuli\drink\drink_06s.jpg	5	-1	1	0	drink_06s.jpg	0	0	0	172.060591092169	172.110565248346	0.0499741561761766
75026	50	535	0	0	diamond	484	226	1	stimuli\diamond\diamond_01b.jpg	0	-1	1	0	diamond_01b.jpg	0	0	0	172.160589141695	172.21053306547	0.0499439237755723
75126	50	536	0	0	neck	1053	227	1	stimuli\neck\neck_02s.jpg	1	-1	1	0	neck_02s.jpg	0	0	0	172.2605918236	172.310574269304	0.0499824457037903
75226	50	537	0	0	flyswatter	623	228	1	stimuli\flyswatter\flyswatter_05s.jpg	4	-1	1	0	flyswatter_05s.jpg	0	0	0	172.360596943603	172.410575000733	0.0499780571299198
75326	50	538	0	0	kite	874	229	1	stimuli\kite\kite_09n.jpg	8	-1	1	0	kite_09n.jpg	0	0	0	172.460573537875	172.510581827402	0.0500082895268861
75426	50	539	0	0	taco	1613	230	1	stimuli\taco\taco_05s.jpg	4	-1	1	0	taco_05s.jpg	0	0	0	172.560601819798	172.610580364544	0.0499785447464092
75526	50	540	0	0	paper_towel	1115	231	1	stimuli\paper_towel\paper_towel_07s.jpg	6	-1	1	0	paper_towel_07s.jpg	0	0	0	172.660601088366	172.710587191217	0.0499861028511077
75626	50	541	0	0	barnacle	75	232	1	stimuli\barnacle\barnacle_08s.jpg	7	-1	1	0	barnacle_08s.jpg	0	0	0	172.760605720752	172.810584996929	0.0499792761766003
75726	50	542	0	0	highlighter	778	233	1	stimuli\highlighter\highlighter_08s.jpg	7	-1	1	0	highlighter_08s.jpg	0	0	0	172.860606208371	172.910587435024	0.0499812266534718
75826	50	543	0	0	wire	1828	234	1	stimuli\wire\wire_03s.jpg	2	-1	1	0	wire_03s.jpg	0	0	0	172.96061352266	173.010594505507	0.0499809828470461
75926	50	544	0	0	undershirt	1744	235	1	stimuli\undershirt\undershirt_05s.jpg	4	-1	1	0	undershirt_05s.jpg	0	0	0	173.060614741709	173.110592798839	0.0499780571299198
76026	50	545	0	0	shoulder	1431	236	1	stimuli\shoulder\shoulder_11s.jpg	10	-1	1	0	shoulder_11s.jpg	0	0	0	173.160614254091	173.210599625509	0.0499853714172787
76126	50	546	0	0	belt	118	237	1	stimuli\belt\belt_04s.jpg	3	-1	1	0	belt_04s.jpg	0	0	0	173.260623031238	173.310603038844	0.0499800076067913
76226	50	547	0	0	granite	700	238	1	stimuli\granite\granite_04s.jpg	3	-1	1	0	granite_04s.jpg	0	0	0	173.36062815124	173.410603038843	0.0499748876027297
76326	50	548	0	0	gourd	696	239	1	stimuli\gourd\gourd_01b.jpg	0	-1	1	0	gourd_01b.jpg	0	0	0	173.460628882669	173.510606695989	0.0499778133198561
76426	50	549	0	0	coleslaw	386	240	1	stimuli\coleslaw\coleslaw_02n.jpg	1	-1	1	0	coleslaw_02n.jpg	0	0	0	173.560625713144	173.610607915038	0.0499822018937266
76526	50	550	0	0	rollerblade	1326	241	1	stimuli\rollerblade\rollerblade_06s.jpg	5	-1	1	0	rollerblade_06s.jpg	0	0	0	173.66062815124	173.710610596943	0.0499824457037903
76626	50	551	0	0	horseshoe	799	242	1	stimuli\horseshoe\horseshoe_10s.jpg	9	-1	1	0	horseshoe_10s.jpg	0	0	0	173.760633027436	173.810612791232	0.0499797637967276
76726	50	552	0	0	jack	835	243	1	stimuli\jack\jack_11s.jpg	10	-1	1	0	jack_11s.jpg	0	0	0	173.86062254362	173.91060572075	0.0499831771303434
76826	50	553	0	0	pumpkin	1253	244	1	stimuli\pumpkin\pumpkin_12s.jpg	11	-1	1	0	pumpkin_12s.jpg	0	0	0	173.960645949348	174.010625469335	0.0499795199866639
76926	50	554	0	0	suit	1580	245	1	stimuli\suit\suit_10s.jpg	9	-1	1	0	suit_10s.jpg	0	0	0	174.060648631254	174.110610840755	0.0499622095012455
77026	50	555	0	0	soy_sauce	1500	246	1	stimuli\soy_sauce\soy_sauce_04s.jpg	3	-1	1	0	soy_sauce_04s.jpg	0	0	0	174.160655945543	174.210626932192	0.0499709866489866
77126	50	556	0	0	bonsai	164	247	1	stimuli\bonsai\bonsai_04s.jpg	3	-1	1	0	bonsai_04s.jpg	1	0	0	174.260657164592	174.310619130283	0.0499619656911818
77226	50	557	0	0	tick	1656	248	1	stimuli\tick\tick_06s.jpg	5	-1	1	0	tick_06s.jpg	0	0	0	174.360654726494	174.410637903628	0.0499831771339814
77326	50	558	0	0	generator	671	249	1	stimuli\generator\generator_09s.jpg	8	-1	1	0	generator_09s.jpg	0	0	0	174.46066009031	174.510638635056	0.0499785447464092
77426	50	559	0	0	guitar	723	250	1	stimuli\guitar\guitar_07s.jpg	6	-1	1	0	guitar_07s.jpg	0	0	0	174.560662284595	174.610640341725	0.0499780571299198
77526	50	560	0	0	piglet	1173	251	1	stimuli\piglet\piglet_10s.jpg	9	-1	1	0	piglet_10s.jpg	0	0	0	174.660647168395	174.710647412205	0.0500002438093361
77626	50	561	0	0	snowmobile	1483	252	1	stimuli\snowmobile\snowmobile_04s.jpg	3	-1	1	0	snowmobile_04s.jpg	0	0	0	174.760669598887	174.810646924587	0.0499773256997287
77726	50	562	0	0	macadamia	951	253	1	stimuli\macadamia\macadamia_06n.jpg	5	-1	1	0	macadamia_06n.jpg	0	0	0	174.860671549362	174.910637903628	0.0499663542650524
77826	50	563	0	0	nail	1046	254	1	stimuli\nail\nail_02s.jpg	1	-1	1	0	nail_02s.jpg	0	0	0	174.96063570934	175.010650337921	0.0500146285812662
77926	50	564	0	0	airbag	7	255	1	stimuli\airbag\airbag_01b.jpg	0	-1	1	0	airbag_01b.jpg	0	0	0	175.060665941739	175.110646436966	0.0499804952269187
78026	50	565	0	0	eclair	544	256	1	stimuli\eclair\eclair_12s.jpg	11	-1	1	0	eclair_12s.jpg	0	0	0	175.160669355075	175.21063546553	0.0499661104549887
78126	50	566	0	0	wheelbarrow	1807	257	1	stimuli\wheelbarrow\wheelbarrow_08s.jpg	7	-1	1	0	wheelbarrow_08s.jpg	0	0	0	175.260660090309	175.310641073153	0.0499809828434081
78226	50	567	0	0	pantsuit	1109	258	1	stimuli\pantsuit\pantsuit_03s.jpg	2	-1	1	0	pantsuit_03s.jpg	0	0	0	175.360662040785	175.410643023632	0.0499809828470461
78326	50	568	0	0	rake	1281	259	1	stimuli\rake\rake_01b.jpg	0	-1	1	0	rake_01b.jpg	0	0	0	175.460663747454	175.51064277982	0.0499790323665366
78426	50	569	0	0	ear	538	260	1	stimuli\ear\ear_05s.jpg	4	-1	1	0	ear_05s.jpg	0	0	0	175.560691054136	175.610669355076	0.0499783009399835
78526	50	570	0	0	slot	1469	261	1	stimuli\slot\slot_02s.jpg	1	-1	1	0	slot_02s.jpg	0	0	0	175.660675206509	175.710671793171	0.0499965866620187
78626	50	571	0	0	taillight	1617	262	1	stimuli\taillight\taillight_04s.jpg	3	-1	1	0	taillight_04s.jpg	0	0	0	175.760678132225	175.810657408401	0.0499792761766003
78726	50	572	0	0	sticker	1553	263	1	stimuli\sticker\sticker_02s.jpg	1	-1	1	0	sticker_02s.jpg	0	0	0	175.86068057032	175.910673256032	0.0499926857119135
78826	50	573	0	0	wine	1823	264	1	stimuli\wine\wine_06s.jpg	5	-1	1	0	wine_06s.jpg	0	0	0	175.960692273184	176.010669598887	0.0499773257033667
78926	50	574	0	0	roadsweeper	1316	265	1	stimuli\roadsweeper\roadsweeper_02s.jpg	1	-1	1	0	roadsweeper_02s.jpg	0	0	0	176.060693979853	176.110675450316	0.0499814704635355
79026	50	575	0	0	tag	1616	266	1	stimuli\tag\tag_06s.jpg	5	-1	1	0	tag_06s.jpg	0	0	0	176.160698124619	176.210679351272	0.0499812266534718
79126	50	576	0	0	floss	617	267	1	stimuli\floss\floss_02s.jpg	1	-1	1	0	floss_02s.jpg	0	0	0	176.260698124617	176.310674718887	0.0499765942695376
79226	50	577	0	0	leech	909	268	1	stimuli\leech\leech_04s.jpg	3	-1	1	0	leech_04s.jpg	0	0	0	176.360691541755	176.410672768412	0.0499812266571098
79326	50	578	0	0	goggles	686	269	1	stimuli\goggles\goggles_08s.jpg	7	-1	1	0	goggles_08s.jpg	0	0	0	176.460692273184	176.510678619845	0.0499863466611714
79426	50	579	0	0	railing	1277	270	1	stimuli\railing\railing_07s.jpg	6	-1	1	0	railing_07s.jpg	0	0	0	176.56069714938	176.610676669367	0.0499795199866639
79526	50	580	0	0	earring	540	271	1	stimuli\earring\earring_11n.jpg	10	-1	1	0	earring_11n.jpg	0	0	0	176.660697880809	176.710674231268	0.0499763504594739
79626	50	581	0	0	chicken1	322	272	1	stimuli\chicken1\chicken1_12s.jpg	11	-1	1	0	chicken1_12s.jpg	0	0	0	176.760701781761	176.810682764608	0.0499809828470461
79726	50	582	0	0	toaster_oven	1667	273	1	stimuli\toaster_oven\toaster_oven_05s.jpg	4	-1	1	0	toaster_oven_05s.jpg	0	0	0	176.860705438907	176.910683008417	0.0499775695097924
79826	50	583	0	0	engine	557	274	1	stimuli\engine\engine_12s.jpg	11	-1	1	0	engine_12s.jpg	0	0	0	176.960703244618	177.010683496035	0.049980251416855
79926	50	584	0	0	mosquito	1020	275	1	stimuli\mosquito\mosquito_08s.jpg	7	-1	1	0	mosquito_08s.jpg	0	0	0	177.060710558912	177.110713728434	0.0500031695228245
80026	50	585	0	0	polygraph	1217	276	1	stimuli\polygraph\polygraph_05s.jpg	4	-1	1	0	polygraph_05s.jpg	0	0	0	177.160714459864	177.210700318905	0.049985859041044
80126	50	586	0	0	ambulance	19	277	1	stimuli\ambulance\ambulance_06s.jpg	5	-1	1	0	ambulance_06s.jpg	0	0	0	177.26071762939	177.310714703675	0.049997074285784
80226	50	587	0	0	grille	715	278	1	stimuli\grille\grille_02s.jpg	1	-1	1	1	grille_02s.jpg	0	0	0	177.360737377974	177.410720311298	0.0499829333239177
80326	50	588	0	0	spear	1510	279	1	stimuli\spear\spear_10s.jpg	9	-1	1	0	spear_10s.jpg	0	0	0	177.460737865593	177.510704707478	0.0499668418851797
80426	50	589	0	0	turkey	1733	280	1	stimuli\turkey\turkey_10s.jpg	9	-1	1	0	turkey_10s.jpg	0	0	0	177.560746398933	177.610724699873	0.0499783009399835
80526	50	590	0	0	hard_disk	752	281	1	stimuli\hard_disk\hard_disk_02s.jpg	1	-1	1	0	hard_disk_02s.jpg	0	0	0	177.660744692264	177.710709583673	0.0499648914083082
80626	50	591	0	0	bikini	124	282	1	stimuli\bikini\bikini_04s.jpg	3	-1	1	0	bikini_04s.jpg	0	0	0	177.760745667503	177.810713728435	0.0499680609318602
80726	50	592	0	0	bracelet1	187	283	1	stimuli\bracelet1\bracelet1_11s.jpg	10	-1	1	0	bracelet1_11s.jpg	0	0	0	177.860756882747	177.910714216054	0.0499573333072476
80826	50	593	0	0	baton4	95	284	1	stimuli\baton4\baton4_09s.jpg	8	-1	1	0	baton4_09s.jpg	0	0	0	177.960733233209	178.010713484626	0.049980251416855
80926	50	594	0	0	hinge	779	285	1	stimuli\hinge\hinge_11s.jpg	10	-1	1	0	hinge_11s.jpg	0	0	0	178.060738840832	178.110718117012	0.0499792761802382
81026	50	595	0	0	dessert	481	286	1	stimuli\dessert\dessert_11s.jpg	10	-1	1	0	dessert_11s.jpg	0	0	0	178.160738840834	178.210718848441	0.0499800076067913
81126	50	596	0	0	teddy_bear	1635	287	1	stimuli\teddy_bear\teddy_bear_11s.jpg	10	-1	1	0	teddy_bear_11s.jpg	0	0	0	178.260739816073	178.31072616273	0.0499863466575334
81226	50	597	0	0	swing	1598	288	1	stimuli\swing\swing_10s.jpg	9	-1	1	0	swing_10s.jpg	0	0	0	178.360741035118	178.410723724632	0.049982689513854
81326	50	598	0	0	pillbox	1175	289	1	stimuli\pillbox\pillbox_05s.jpg	4	-1	1	0	pillbox_05s.jpg	0	0	0	178.460745667504	178.510723968444	0.0499783009399835
81426	50	599	0	0	spur	1525	290	1	stimuli\spur\spur_09s.jpg	8	-1	1	0	spur_09s.jpg	0	0	0	178.560743717026	178.610753957033	0.0500102400073956
81526	50	600	0	0	underwear	1745	291	1	stimuli\underwear\underwear_06s.jpg	5	-1	1	0	underwear_06s.jpg	0	0	0	178.660771267518	178.710739328453	0.0499680609354982
81626	50	601	0	0	school_bus	1378	292	1	stimuli\school_bus\school_bus_12s.jpg	11	-1	1	0	school_bus_12s.jpg	0	0	0	178.760758101795	178.81075541989	0.0499973180958477
81726	50	602	0	0	crystal1	453	293	1	stimuli\crystal1\crystal1_06s.jpg	5	-1	1	0	crystal1_06s.jpg	0	0	0	178.86077931324	178.910741522737	0.0499622094976075
81826	50	603	0	0	smoothie	1474	294	1	stimuli\smoothie\smoothie_12s.jpg	11	-1	1	0	smoothie_12s.jpg	0	0	0	178.960781507525	179.010762977989	0.0499814704635355
81926	50	604	0	0	navel	1052	295	1	stimuli\navel\navel_12s.jpg	11	-1	1	0	navel_12s.jpg	0	0	0	179.060790528481	179.110765172278	0.049974643796304
82026	50	605	0	0	yo-yo	1847	296	1	stimuli\yo-yo\yo-yo_09s.jpg	8	-1	1	0	yo-yo_09s.jpg	0	0	0	179.160760783703	179.210743717027	0.0499829333239177
82126	50	606	0	0	defibrillator	477	297	1	stimuli\defibrillator\defibrillator_02s.jpg	1	-1	1	0	defibrillator_02s.jpg	0	0	0	179.260766878946	179.310745179882	0.0499783009363455
82226	50	607	0	0	mirror	1005	298	1	stimuli\mirror\mirror_05s.jpg	4	-1	1	0	mirror_05s.jpg	0	0	0	179.360770048472	179.410750787505	0.0499807390333444
82326	50	608	0	0	fish	600	299	1	stimuli\fish\fish_08s.jpg	7	-1	1	0	fish_08s.jpg	0	0	0	179.460772730377	179.510752494174	0.0499797637967276
82426	50	609	0	0	mantle	969	300	1	stimuli\mantle\mantle_03s.jpg	2	-1	1	0	mantle_03s.jpg	0	0	0	179.56077687514	179.61075493227	0.0499780571299198
82526	50	610	0	0	bubble_wrap	208	301	1	stimuli\bubble_wrap\bubble_wrap_06s.jpg	5	-1	1	0	bubble_wrap_06s.jpg	0	0	0	179.660774437045	179.710758833226	0.0499843961806619
82626	50	611	0	0	filter	587	302	1	stimuli\filter\filter_01b.jpg	0	-1	1	0	filter_01b.jpg	0	0	0	179.760777362761	179.810761271321	0.0499839085605345
82726	50	612	0	0	pinwheel	1185	303	1	stimuli\pinwheel\pinwheel_10s.jpg	9	-1	1	0	pinwheel_10s.jpg	0	0	0	179.860782238953	179.910759320846	0.049977081893303
82826	50	613	0	0	clarinet	350	304	1	stimuli\clarinet\clarinet_07n.jpg	6	-1	1	0	clarinet_07n.jpg	0	0	0	179.960782238955	180.010763221799	0.0499809828434081
82926	50	614	0	0	brace	186	305	1	stimuli\brace\brace_03s.jpg	2	-1	1	0	brace_03s.jpg	0	0	0	180.060786139908	180.110768829421	0.049982689513854
83026	50	615	0	0	torpedo	1684	306	1	stimuli\torpedo\torpedo_01s.jpg	0	-1	1	0	torpedo_01s.jpg	0	0	0	180.160787358956	180.21076907323	0.0499817142735992
83126	50	616	0	0	wallpaper	1777	307	1	stimuli\wallpaper\wallpaper_05s.jpg	4	-1	1	0	wallpaper_05s.jpg	0	0	0	180.260790772292	180.310772974186	0.0499822018937266
83226	50	617	0	0	backpack	49	308	1	stimuli\backpack\backpack_10s.jpg	9	-1	1	0	backpack_10s.jpg	0	0	0	180.360797598962	180.410774680855	0.049977081893303
90310	50	618	0	0	screen1	1388	0	2	stimuli\screen1\screen1_09s.jpg	8	-1	2	0	screen1_09s.jpg	0	0	0	187.444333375595	187.494318990823	0.0499856152273424
90410	50	619	0	0	chair	300	1	2	stimuli\chair\chair_06s.jpg	5	-1	2	0	chair_06s.jpg	0	0	0	187.544334838454	187.594316065108	0.0499812266534718
90510	50	620	0	0	plant	1194	2	2	stimuli\plant\plant_10s.jpg	9	-1	2	0	plant_10s.jpg	0	0	0	187.64433630131	187.694318990823	0.049982689513854
90610	50	621	0	0	cheesecake	314	3	2	stimuli\cheesecake\cheesecake_10s.jpg	9	-1	2	0	cheesecake_10s.jpg	0	0	0	187.744332400354	187.79432898702	0.0499965866656567
90710	50	622	0	0	potato	1231	4	2	stimuli\potato\potato_12s.jpg	11	-1	2	0	potato_12s.jpg	0	0	0	187.844331912736	187.894312651773	0.0499807390369824
90810	50	623	0	0	gondola	691	5	2	stimuli\gondola\gondola_07s.jpg	6	-1	2	0	gondola_07s.jpg	0	0	0	187.944339714646	187.99432240416	0.049982689513854
90910	50	624	0	0	skewer	1451	6	2	stimuli\skewer\skewer_03s.jpg	2	-1	2	0	skewer_03s.jpg	0	0	0	188.044343127982	188.094324598445	0.0499814704635355
91010	50	625	0	0	applesauce	32	7	2	stimuli\applesauce\applesauce_01b.jpg	0	-1	2	0	applesauce_01b.jpg	0	0	0	188.144339470837	188.194319722254	0.049980251416855
91110	50	626	0	0	crayfish	434	8	2	stimuli\crayfish\crayfish_04s.jpg	3	-1	2	0	crayfish_04s.jpg	0	0	0	188.244356781324	188.294344590839	0.0499878095142776
91210	50	627	0	0	piano	1165	9	2	stimuli\piano\piano_11n.jpg	10	-1	2	0	piano_11n.jpg	0	0	0	188.344366289901	188.394655204364	0.0502889144627261
91310	50	628	0	0	clothes	361	10	2	stimuli\clothes\clothes_12s.jpg	11	-1	2	0	clothes_12s.jpg	0	0	0	188.444348491794	188.494338007979	0.0499895161847235
91410	50	629	0	0	beanie	104	11	2	stimuli\beanie\beanie_11s.jpg	10	-1	2	0	beanie_11s.jpg	0	0	0	188.544342640362	188.594323867019	0.0499812266571098
91510	50	630	0	0	orangutan	1080	12	2	stimuli\orangutan\orangutan_01b.jpg	0	-1	2	0	orangutan_01b.jpg	0	0	0	188.644342152744	188.694322891777	0.0499807390333444
91610	50	631	0	0	flan	609	13	2	stimuli\flan\flan_02s.jpg	1	-1	2	0	flan_02s.jpg	0	0	0	188.744361413708	188.7943284994	0.0499670856916055
91710	50	632	0	0	yacht	1844	14	2	stimuli\yacht\yacht_02s.jpg	1	-1	2	0	yacht_02s.jpg	0	0	0	188.844348004175	188.894327036542	0.0499790323665366
91810	50	633	0	0	trident	1712	15	2	stimuli\trident\trident_11s.jpg	10	-1	2	0	trident_11s.jpg	0	0	0	188.944349710844	188.994334107025	0.0499843961806619
91910	50	634	0	0	sofa_bed	1492	16	2	stimuli\sofa_bed\sofa_bed_06s.jpg	5	-1	2	0	sofa_bed_06s.jpg	0	0	0	189.044355318467	189.094333863213	0.0499785447464092
92010	50	635	0	0	cork	409	17	2	stimuli\cork\cork_12s.jpg	11	-1	2	0	cork_12s.jpg	0	0	0	189.144357025132	189.194334107022	0.049977081889665
92110	50	636	0	0	noose	1062	18	2	stimuli\noose\noose_05s.jpg	4	-1	2	0	noose_05s.jpg	0	0	0	189.244357025134	189.294335569881	0.0499785447464092
92210	50	637	0	0	cord	407	19	2	stimuli\cord\cord_05s.jpg	4	-1	2	0	cord_05s.jpg	0	0	0	189.34436019466	189.39433630131	0.0499761066494102
92310	50	638	0	0	penguin	1145	20	2	stimuli\penguin\penguin_02s.jpg	1	-1	2	0	penguin_02s.jpg	0	0	0	189.444358487992	189.494340933696	0.0499824457037903
92410	50	639	0	0	filing_cabinet	585	21	2	stimuli\filing_cabinet\filing_cabinet_02s.jpg	1	-1	2	0	filing_cabinet_02s.jpg	0	0	0	189.544359707041	189.594345809888	0.0499861028474697
92510	50	640	0	0	roulette_wheel	1335	22	2	stimuli\roulette_wheel\roulette_wheel_05s.jpg	4	-1	2	0	roulette_wheel_05s.jpg	0	0	0	189.644364827043	189.694348979414	0.0499841523705982
92610	50	641	0	0	blower	145	23	2	stimuli\blower\blower_10s.jpg	9	-1	2	0	blower_10s.jpg	0	0	0	189.74437482324	189.794350198463	0.0499753752228571
92710	50	642	0	0	muff	1034	24	2	stimuli\muff\muff_02s.jpg	1	-1	2	0	muff_02s.jpg	0	0	0	189.844372628952	189.894352392748	0.0499797637967276
92810	50	643	0	0	can	250	25	2	stimuli\can\can_01s.jpg	0	-1	2	0	can_01s.jpg	0	0	0	189.94437360419	189.994390183248	0.0500165790581377
92910	50	644	0	0	tripod	1714	26	2	stimuli\tripod\tripod_06s.jpg	5	-1	2	0	tripod_06s.jpg	0	0	0	190.04440505564	190.094384819437	0.0499797637967276
93010	50	645	0	0	jukebox	857	27	2	stimuli\jukebox\jukebox_02s.jpg	1	-1	2	0	jukebox_02s.jpg	0	0	0	190.144406030879	190.194387988962	0.0499819580836629
93110	50	646	0	0	peppermint	1152	28	2	stimuli\peppermint\peppermint_11s.jpg	10	-1	2	0	peppermint_11s.jpg	0	0	0	190.244407493734	190.294390914678	0.0499834209440451
93210	50	647	0	0	aardvark	0	29	2	stimuli\aardvark\aardvark_12s.jpg	11	-1	2	0	aardvark_12s.jpg	0	0	0	190.344402373732	190.394377017525	0.049974643792666
93310	50	648	0	0	quiche	1262	30	2	stimuli\quiche\quiche_09s.jpg	8	-1	2	0	quiche_09s.jpg	0	0	0	190.444397741347	190.494382137531	0.0499843961842998
93410	50	649	0	0	knee	877	31	2	stimuli\knee\knee_01b.jpg	0	-1	2	0	knee_01b.jpg	0	0	0	190.544428461366	190.594404568019	0.0499761066530482
93510	50	650	0	0	grater	708	32	2	stimuli\grater\grater_12s.jpg	11	-1	2	0	grater_12s.jpg	0	0	0	190.644408468972	190.694390183249	0.0499817142772372
93610	50	651	0	0	coffee	377	33	2	stimuli\coffee\coffee_01b.jpg	0	-1	2	0	coffee_01b.jpg	0	0	0	190.744429924223	190.794394328012	0.0499644037881808
93710	50	652	0	0	dumpling	532	34	2	stimuli\dumpling\dumpling_02s.jpg	1	-1	2	0	dumpling_02s.jpg	0	0	0	190.844413101357	190.894390670866	0.0499775695097924
93810	50	653	0	0	toy	1694	35	2	stimuli\toy\toy_06s.jpg	5	-1	2	0	toy_06s.jpg	0	0	0	190.944413588975	190.994423097552	0.0500095085772045
93910	50	654	0	0	stethoscope	1550	36	2	stimuli\stethoscope\stethoscope_12s.jpg	11	-1	2	0	stethoscope_12s.jpg	0	0	0	191.044436507087	191.094416514694	0.0499800076067913
94010	50	655	0	0	hose	800	37	2	stimuli\hose\hose_04s.jpg	3	-1	2	0	hose_04s.jpg	0	0	0	191.144438701373	191.19441992803	0.0499812266571098
94110	50	656	0	0	pizza	1192	38	2	stimuli\pizza\pizza_05s.jpg	4	-1	2	0	pizza_05s.jpg	0	0	0	191.244427729936	191.294406518497	0.0499787885601108
94210	50	657	0	0	ferret	578	39	2	stimuli\ferret\ferret_08s.jpg	7	-1	2	0	ferret_08s.jpg	0	0	0	191.344445771854	191.394426267081	0.0499804952269187
