onset	duration	eventnumber	blocksequencenumber	isteststim	object	objectnumber	presentationnumber	sequencenumber	stim	stimnumber	teststimnumber	withinsequencenumber	istarget	stimname	response	rt	correct	time_stimon	time_stimoff	stimdur
59967	50	0	0	0	raft	1275	0	0	stimuli\raft\raft_09s.jpg	8	-1	0	0	raft_09s.jpg	0	0	0	219.374315871391	219.424275789177	0.0499599177855998
60067	50	1	0	0	drumstick	523	1	0	stimuli\drumstick\drumstick_11s.jpg	10	-1	0	0	drumstick_11s.jpg	0	0	0	219.474294952583	219.524277788412	0.0499828358297236
60167	50	2	0	0	spoon	1519	2	0	stimuli\spoon\spoon_02s.jpg	1	-1	0	0	spoon_02s.jpg	0	0	0	219.574294757505	219.624275155249	0.0499803977436386
60267	50	3	0	0	hairbrush	734	3	0	stimuli\hairbrush\hairbrush_11s.jpg	10	-1	0	0	hairbrush_11s.jpg	0	0	0	219.674318943406	219.724285931617	0.0499669882119633
60367	50	4	0	0	tarp	1628	4	0	stimuli\tarp\tarp_02s.jpg	1	-1	0	0	tarp_02s.jpg	0	0	0	219.774300950288	219.824281835638	0.0499808853492141
60467	50	5	0	0	sheep	1414	5	0	stimuli\sheep\sheep_01b.jpg	0	-1	0	0	sheep_01b.jpg	0	0	0	219.874303437129	219.924941875914	0.0506384387845173
60567	50	6	0	0	tuba	1723	6	0	stimuli\tuba\tuba_03s.jpg	2	-1	0	0	tuba_03s.jpg	0	0	0	219.974308362056	220.024283883628	0.0499755215714686
60667	50	7	0	0	spinach	1515	7	0	stimuli\spinach\spinach_07s.jpg	6	-1	0	0	spinach_07s.jpg	0	0	0	220.0743074356	220.12429222191	0.0499847863102332
60767	50	8	0	0	roulette_wheel	1335	8	0	stimuli\roulette_wheel\roulette_wheel_06s.jpg	5	-1	0	0	roulette_wheel_06s.jpg	0	0	0	220.174315286276	220.224294464919	0.0499791786423884
60867	50	9	0	0	otter	1085	9	0	stimuli\otter\otter_10n.jpg	9	-1	0	0	otter_10n.jpg	0	0	0	220.274313140719	220.324295245111	0.0499821043922566
60967	50	10	0	0	ball	59	10	0	stimuli\ball\ball_06s.jpg	5	-1	0	0	ball_06s.jpg	0	0	0	220.374313433305	220.424297975784	0.0499845424783416
61067	50	11	0	0	trumpet	1721	11	0	stimuli\trumpet\trumpet_06s.jpg	5	-1	0	0	trumpet_06s.jpg	0	0	0	220.474317626795	220.524305095023	0.0499874682282098
61167	50	12	0	0	machete	953	12	0	stimuli\machete\machete_07s.jpg	6	-1	0	0	machete_07s.jpg	0	0	0	220.574318163213	220.624300999043	0.0499828358297236
61267	50	13	0	0	suspenders	1589	13	0	stimuli\suspenders\suspenders_04s.jpg	3	-1	0	0	suspenders_04s.jpg	0	0	0	220.674325038621	220.724307143013	0.0499821043922566
61367	50	14	0	0	doorknocker	510	14	0	stimuli\doorknocker\doorknocker_01b.jpg	0	-1	0	0	doorknocker_01b.jpg	0	0	0	220.774313384551	220.824289881333	0.0499764967826195
61467	50	15	0	0	roof_rack	1329	15	0	stimuli\roof_rack\roof_rack_04s.jpg	3	-1	0	0	roof_rack_04s.jpg	0	0	0	220.8743129457	220.9242921244	0.0499791787005961
61567	50	16	0	0	beard	106	16	0	stimuli\beard\beard_05s.jpg	4	-1	0	0	beard_05s.jpg	0	0	0	220.974345177237	221.02431899216	0.0499738149228506
61667	50	17	0	0	chick	321	17	0	stimuli\chick\chick_09s.jpg	8	-1	0	0	chick_09s.jpg	0	0	0	221.074333523167	221.124312214262	0.0499786910950206
61767	50	18	0	0	button2	231	18	0	stimuli\button2\button2_06s.jpg	5	-1	0	0	button2_06s.jpg	0	0	0	221.174331133836	221.224305680196	0.0499745463603176
61867	50	19	0	0	hay	761	19	0	stimuli\hay\hay_06s.jpg	5	-1	0	0	hay_06s.jpg	0	0	0	221.274320698809	221.324306460388	0.0499857615795918
61967	50	20	0	0	mailbox	960	20	0	stimuli\mailbox\mailbox_12s.jpg	11	-1	0	0	mailbox_12s.jpg	0	0	0	221.37432245427	221.424308215792	0.0499857615213841
62067	50	21	0	0	walnut	1778	21	0	stimuli\walnut\walnut_10s.jpg	9	-1	0	0	walnut_10s.jpg	0	0	0	221.474326891592	221.52429826837	0.0499713767785579
62167	50	22	0	0	donkey	504	22	0	stimuli\donkey\donkey_06s.jpg	5	-1	0	0	donkey_06s.jpg	0	0	0	221.574320113694	221.624297829519	0.049977715825662
62267	50	23	0	0	hinge	779	23	0	stimuli\hinge\hinge_02s.jpg	1	-1	0	0	hinge_02s.jpg	0	0	0	221.674327232875	221.724306167802	0.0499789349269122
62367	50	24	0	0	paper_bag	1113	24	0	stimuli\paper_bag\paper_bag_06s.jpg	5	-1	0	0	paper_bag_06s.jpg	0	0	0	221.774338740681	221.824315725127	0.0499769844464026
62467	50	25	0	0	bubble_wrap	208	25	0	stimuli\bubble_wrap\bubble_wrap_10s.jpg	9	-1	0	0	bubble_wrap_10s.jpg	0	0	0	221.874338058056	221.924320650054	0.0499825919978321
62567	50	26	0	0	pillbox	1175	26	0	stimuli\pillbox\pillbox_12s.jpg	11	-1	0	0	pillbox_12s.jpg	0	0	0	221.974347127718	222.024313628324	0.0499665006063879
62667	50	27	0	0	wreath	1839	27	0	stimuli\wreath\wreath_03s.jpg	2	-1	0	0	wreath_03s.jpg	0	0	0	222.074368144094	222.124331475177	0.0499633310828358
62767	50	28	0	0	antelope	26	28	0	stimuli\antelope\antelope_01b.jpg	0	-1	0	0	antelope_01b.jpg	0	0	0	222.17437014333	222.224334937287	0.0499647939577699
62867	50	29	0	0	sorbet	1497	29	0	stimuli\sorbet\sorbet_01b.jpg	0	-1	0	0	sorbet_01b.jpg	0	0	0	222.274362390162	222.324351077434	0.0499886872712523
62967	50	30	0	0	cross	443	30	0	stimuli\cross\cross_05s.jpg	4	-1	0	0	cross_05s.jpg	0	0	0	222.374374385574	222.424354783318	0.0499803977436386
63067	50	31	0	0	jack	835	31	0	stimuli\jack\jack_07s.jpg	6	-1	0	0	jack_07s.jpg	0	0	0	222.474376872473	222.524340203556	0.0499633310828358
63167	50	32	0	0	fast_food	572	32	0	stimuli\fast_food\fast_food_09s.jpg	8	-1	0	0	fast_food_09s.jpg	0	0	0	222.574376921228	222.62435902562	0.0499821043922566
63267	50	33	0	0	cockatoo	372	33	0	stimuli\cockatoo\cockatoo_04s.jpg	3	-1	0	0	cockatoo_04s.jpg	0	0	0	222.674380627112	222.724365657254	0.0499850301421247
63367	50	34	0	0	wallet	1776	34	0	stimuli\wallet\wallet_05s.jpg	4	-1	0	0	wallet_05s.jpg	0	0	0	222.774385308265	222.824368875532	0.0499835672671907
63467	50	35	0	0	straw1	1568	35	0	stimuli\straw1\straw1_11s.jpg	10	-1	0	0	straw1_11s.jpg	0	0	0	222.874368534191	222.924367705244	0.0499991710530594
63567	50	36	0	0	horn	797	36	0	stimuli\horn\horn_10s.jpg	9	-1	0	0	horn_10s.jpg	0	0	0	222.974388087692	223.024351906381	0.0499638186884113
63667	50	37	0	0	chihuahua	326	37	0	stimuli\chihuahua\chihuahua_09s.jpg	8	-1	0	0	chihuahua_09s.jpg	0	0	0	223.074371069786	223.124348541838	0.0499774720519781
63767	50	38	0	0	stomach	1560	38	0	stimuli\stomach\stomach_10s.jpg	9	-1	0	0	stomach_10s.jpg	0	0	0	223.174395987124	223.224374678161	0.049978691036813
63867	50	39	0	0	teabag	1632	39	0	stimuli\teabag\teabag_08s.jpg	7	-1	0	0	teabag_08s.jpg	0	0	0	223.274396035878	223.324377896439	0.049981860560365
63967	50	40	0	0	blowgun	147	40	0	stimuli\blowgun\blowgun_07s.jpg	6	-1	0	0	blowgun_07s.jpg	0	0	0	223.374402179848	223.424378189025	0.049976009177044
64067	50	41	0	0	cat	284	41	0	stimuli\cat\cat_11s.jpg	10	-1	0	0	cat_11s.jpg	0	0	0	223.474398571474	223.524363853037	0.0499652815633453
64167	50	42	0	0	rabbit	1265	42	0	stimuli\rabbit\rabbit_12n.jpg	11	-1	0	0	rabbit_12n.jpg	0	0	0	223.574403984065	223.624382675102	0.049978691036813
64267	50	43	0	0	quilt	1264	43	0	stimuli\quilt\quilt_04s.jpg	3	-1	0	1	quilt_04s.jpg	0	0	0	223.674405495636	223.724384430563	0.0499789349269122
64367	50	44	0	0	leg	911	44	0	stimuli\leg\leg_09s.jpg	8	-1	0	0	leg_09s.jpg	0	0	0	223.774407007266	223.824372045055	0.0499650377896614
64467	50	45	0	0	canister	259	45	0	stimuli\canister\canister_07s.jpg	6	-1	0	0	canister_07s.jpg	0	0	0	223.874410225544	223.924373800459	0.0499635749147274
64567	50	46	0	0	caramel	270	46	0	stimuli\caramel\caramel_11s.jpg	10	-1	0	0	caramel_11s.jpg	0	0	0	223.974413931428	224.024393597792	0.0499796663643792
64667	50	47	0	0	acorn	3	47	0	stimuli\acorn\acorn_10s.jpg	9	-1	0	0	acorn_10s.jpg	0	0	0	224.07442031923	224.124393646547	0.0499733273172751
64767	50	48	0	0	washing_machine	1784	48	0	stimuli\washing_machine\washing_machine_12s.jpg	11	-1	0	0	washing_machine_12s.jpg	0	0	0	224.17442183086	224.224402228603	0.0499803977436386
64867	50	49	0	0	airplane	10	49	0	stimuli\airplane\airplane_05n.jpg	4	-1	0	0	airplane_05n.jpg	0	0	0	224.274428218661	224.324402764963	0.04997454630211
64967	50	50	0	0	crab	428	50	0	stimuli\crab\crab_12s.jpg	11	-1	0	0	crab_12s.jpg	0	0	0	224.374425585556	224.424406470906	0.0499808853492141
65067	50	51	0	0	sunflower	1584	51	0	stimuli\sunflower\sunflower_08s.jpg	7	-1	0	0	sunflower_08s.jpg	0	0	0	224.474417344783	224.524399936781	0.0499825919978321
65167	50	52	0	0	crib	441	52	0	stimuli\crib\crib_03s.jpg	2	-1	0	0	crib_03s.jpg	0	0	0	224.57442031923	224.624398278887	0.0499779596575536
65267	50	53	0	0	chopsticks	339	53	0	stimuli\chopsticks\chopsticks_05s.jpg	4	-1	0	0	chopsticks_05s.jpg	0	0	0	224.67442378134	224.724400521955	0.0499767406145111
65367	50	54	0	0	watch	1786	54	0	stimuli\watch\watch_06s.jpg	5	-1	0	0	watch_06s.jpg	0	0	0	224.774426024407	224.824407397362	0.0499813729547895
65467	50	55	0	0	christmas_card	340	55	0	stimuli\christmas_card\christmas_card_01b.jpg	0	-1	0	0	christmas_card_01b.jpg	0	0	0	224.87443143694	224.92441159091	0.0499801539699547
65567	50	56	0	0	fire_hydrant	592	56	0	stimuli\fire_hydrant\fire_hydrant_08s.jpg	7	-1	0	0	fire_hydrant_08s.jpg	0	0	0	224.974423683831	225.024414321524	0.0499906376935542
65667	50	57	0	0	french_horn	642	57	0	stimuli\french_horn\french_horn_01s.jpg	0	-1	0	0	french_horn_01s.jpg	0	0	0	225.074418124976	225.124399254157	0.0499811291811056
65767	50	58	0	0	cord	407	58	0	stimuli\cord\cord_02s.jpg	1	-1	0	0	cord_02s.jpg	0	0	0	225.174439628958	225.224432948569	0.0499933196115308
65867	50	59	0	0	pancake	1104	59	0	stimuli\pancake\pancake_12s.jpg	11	-1	0	0	pancake_12s.jpg	0	0	0	225.274424561532	225.324420075456	0.0499955139239319
65967	50	60	0	0	screen1	1388	60	0	stimuli\screen1\screen1_04s.jpg	3	-1	0	0	screen1_04s.jpg	0	0	0	225.374447040725	225.424426707032	0.0499796663061716
66067	50	61	0	0	rake	1281	61	0	stimuli\rake\rake_01b.jpg	0	-1	0	0	rake_01b.jpg	0	0	0	225.474430022878	225.524412858707	0.0499828358297236
66167	50	62	0	0	costume	419	62	0	stimuli\costume\costume_05s.jpg	4	-1	0	0	costume_05s.jpg	0	0	0	225.574448113504	225.624411444587	0.0499633310828358
66267	50	63	0	0	windshield	1820	63	0	stimuli\windshield\windshield_08s.jpg	7	-1	0	0	windshield_08s.jpg	0	0	0	225.674450844177	225.724430754315	0.0499799101380631
66367	50	64	0	0	yogurt	1848	64	0	stimuli\yogurt\yogurt_03s.jpg	2	-1	0	0	yogurt_03s.jpg	0	0	0	225.774451380537	225.824416905933	0.0499655253952369
66467	50	65	0	0	cooler	403	65	0	stimuli\cooler\cooler_10s.jpg	9	-1	0	0	cooler_10s.jpg	0	0	0	225.874457280734	225.924438653688	0.0499813729547895
66567	50	66	0	0	hoe	784	66	0	stimuli\hoe\hoe_12s.jpg	11	-1	0	0	hoe_12s.jpg	0	0	0	225.97445757332	226.024437971064	0.0499803977436386
66667	50	67	0	0	flashlight	611	67	0	stimuli\flashlight\flashlight_06s.jpg	5	-1	0	0	flashlight_06s.jpg	0	0	0	226.074445187813	226.124443139823	0.0499979520100169
66767	50	68	0	0	awning	44	68	0	stimuli\awning\awning_03s.jpg	2	-1	0	0	awning_03s.jpg	0	0	0	226.174449137528	226.224444895226	0.0499957576976158
66867	50	69	0	0	ham	739	69	0	stimuli\ham\ham_10s.jpg	9	-1	0	0	ham_10s.jpg	0	0	0	226.27445552533	226.324448113504	0.0499925881740637
66967	50	70	0	0	jewel	849	70	0	stimuli\jewel\jewel_05s.jpg	4	-1	0	0	jewel_05s.jpg	0	0	0	226.374468983558	226.424454257474	0.0499852739158086
67067	50	71	0	0	wedding_cake	1800	71	0	stimuli\wedding_cake\wedding_cake_03s.jpg	2	-1	0	0	wedding_cake_03s.jpg	0	0	0	226.47447073902	226.524458938628	0.0499881996074691
67167	50	72	0	0	chain	298	72	0	stimuli\chain\chain_11s.jpg	10	-1	0	0	chain_11s.jpg	0	0	0	226.574473225861	226.624452648335	0.04997942247428
67267	50	73	0	0	earring	540	73	0	stimuli\earring\earring_02s.jpg	1	-1	0	0	earring_02s.jpg	0	0	0	226.674474737491	226.724457085656	0.0499823481659405
67367	50	74	0	0	biscuit	133	74	0	stimuli\biscuit\biscuit_02s.jpg	1	-1	0	1	biscuit_02s.jpg	0	0	0	226.774476980499	226.824443237332	0.0499662568327039
67467	50	75	0	0	globe	679	75	0	stimuli\globe\globe_05s.jpg	4	-1	0	0	globe_05s.jpg	0	0	0	226.874473372125	226.924466691737	0.0499933196115308
67567	50	76	0	0	floss	617	76	0	stimuli\floss\floss_01b.jpg	0	-1	0	0	floss_01b.jpg	0	0	0	226.974484636099	227.024470885284	0.0499862491851673
67667	50	77	0	0	tongs	1674	77	0	stimuli\tongs\tongs_04s.jpg	3	-1	0	0	tongs_04s.jpg	0	0	0	227.074468105857	227.124455086421	0.0499869805644266
67767	50	78	0	0	potpourri	1235	78	0	stimuli\potpourri\potpourri_07s.jpg	6	-1	0	0	potpourri_07s.jpg	0	0	0	227.174491072656	227.224469763751	0.0499786910950206
67867	50	79	0	0	playpen	1200	79	0	stimuli\playpen\playpen_10s.jpg	9	-1	0	0	playpen_10s.jpg	0	0	0	227.274489902426	227.324453233508	0.0499633310828358
67967	50	80	0	0	air_pump	6	80	0	stimuli\air_pump\air_pump_01s.jpg	0	-1	0	0	air_pump_01s.jpg	0	0	0	227.374496046396	227.424473518447	0.0499774720519781
68067	50	81	0	0	pony	1220	81	0	stimuli\pony\pony_12s.jpg	11	-1	0	0	pony_12s.jpg	0	0	0	227.474496826588	227.524475273851	0.0499784472631291
68167	50	82	0	0	watermelon	1793	82	0	stimuli\watermelon\watermelon_12s.jpg	11	-1	0	0	watermelon_12s.jpg	0	0	0	227.574481271557	227.624486781657	0.0500055101001635
68267	50	83	0	0	skateboard	1449	83	0	stimuli\skateboard\skateboard_08s.jpg	7	-1	0	0	skateboard_08s.jpg	0	0	0	227.674500337453	227.724464643747	0.0499643062939867
68367	50	84	0	0	gong	692	84	0	stimuli\gong\gong_11s.jpg	10	-1	0	0	gong_11s.jpg	0	0	0	227.774504043336	227.824488342041	0.0499842987046577
68467	50	85	0	0	blackberry	135	85	0	stimuli\blackberry\blackberry_03s.jpg	2	-1	0	0	blackberry_03s.jpg	0	0	0	227.874504579697	227.924469373655	0.0499647939577699
68567	50	86	0	0	fork	634	86	0	stimuli\fork\fork_05s.jpg	4	-1	0	0	fork_05s.jpg	0	0	0	227.974494388502	228.024471129116	0.0499767406145111
68667	50	87	0	0	gun	727	87	0	stimuli\gun\gun_07n.jpg	6	-1	0	0	gun_07n.jpg	0	0	0	228.074509309605	228.12448239309	0.0499730834853835
68767	50	88	0	0	tool	1676	88	0	stimuli\tool\tool_09s.jpg	8	-1	0	0	tool_09s.jpg	0	0	0	228.174515697407	228.224492194189	0.0499764967826195
68867	50	89	0	0	fondue	626	89	0	stimuli\fondue\fondue_07s.jpg	6	-1	0	0	fondue_07s.jpg	0	0	0	228.274500142375	228.324496875342	0.0499967329669744
68967	50	90	0	0	matchbox	984	90	0	stimuli\matchbox\matchbox_12s.jpg	11	-1	0	0	matchbox_12s.jpg	0	0	0	228.37450019113	228.424500093621	0.0499999024905264
69067	50	91	0	0	shoelace	1426	91	0	stimuli\shoelace\shoelace_10s.jpg	9	-1	0	0	shoelace_10s.jpg	0	0	0	228.474518281815	228.524487951945	0.0499696701299399
69167	50	92	0	0	fruitcake	646	92	0	stimuli\fruitcake\fruitcake_05s.jpg	4	-1	0	0	fruitcake_05s.jpg	0	0	0	228.574524181953	228.624487756868	0.0499635749147274
69267	50	93	0	0	coffee_bean	378	93	0	stimuli\coffee_bean\coffee_bean_07s.jpg	6	-1	0	0	coffee_bean_07s.jpg	0	0	0	228.674526912626	228.724530472246	0.050003559619654
69367	50	94	0	0	mattress	985	94	0	stimuli\mattress\mattress_08s.jpg	7	-1	0	0	mattress_08s.jpg	0	0	0	228.774534031865	228.824512966734	0.0499789348687045
69467	50	95	0	0	manhole	967	95	0	stimuli\manhole\manhole_05n.jpg	4	-1	0	0	manhole_05n.jpg	0	0	0	228.87452091492	228.924517404055	0.0499964891350828
69567	50	96	0	0	sifter	1443	96	0	stimuli\sifter\sifter_05s.jpg	4	-1	0	0	sifter_05s.jpg	0	0	0	228.974540712254	229.024519159517	0.0499784472631291
69667	50	97	0	0	closet	360	97	0	stimuli\closet\closet_03s.jpg	2	-1	0	0	closet_03s.jpg	0	0	0	229.074540273403	229.124506774009	0.0499665006063879
69767	50	98	0	0	bell	116	98	0	stimuli\bell\bell_08s.jpg	7	-1	0	0	bell_08s.jpg	0	0	0	229.174544466892	229.224523157987	0.0499786910950206
69867	50	99	0	0	dryer	524	99	0	stimuli\dryer\dryer_04s.jpg	3	-1	0	0	dryer_04s.jpg	0	0	0	229.274529399467	229.324525400996	0.0499960015295073
69967	50	100	0	0	baby	46	100	0	stimuli\baby\baby_11s.jpg	10	-1	0	0	baby_11s.jpg	0	0	0	229.374550172011	229.424528619274	0.0499784472631291
70067	50	101	0	0	stamp1	1535	101	0	stimuli\stamp1\stamp1_04s.jpg	3	-1	0	0	stamp1_04s.jpg	0	0	0	229.474549733161	229.524514039513	0.0499643063521944
70167	50	102	0	0	hail	732	102	0	stimuli\hail\hail_02s.jpg	1	-1	0	0	hail_02s.jpg	0	0	0	229.574537103879	229.6245360311	0.0499989272211678
70267	50	103	0	0	turban	1730	103	0	stimuli\turban\turban_04s.jpg	3	-1	0	0	turban_04s.jpg	0	0	0	229.674562752596	229.724528277991	0.0499655253952369
70367	50	104	0	0	incubator	827	104	0	stimuli\incubator\incubator_10s.jpg	9	-1	0	0	incubator_10s.jpg	0	0	0	229.774541346123	229.824522475305	0.0499811291811056
70467	50	105	0	0	armor	37	105	0	stimuli\armor\armor_12s.jpg	11	-1	0	0	armor_12s.jpg	0	0	0	229.874561631063	229.924530813587	0.0499691825243644
70567	50	106	0	0	pastry	1124	106	0	stimuli\pastry\pastry_12s.jpg	11	-1	0	0	pastry_12s.jpg	0	0	0	229.974548514117	230.024526473775	0.0499779596575536
70667	50	107	0	0	taco	1613	107	0	stimuli\taco\taco_07s.jpg	6	-1	0	0	taco_07s.jpg	0	0	0	230.074564654322	230.124548221531	0.049983567208983
70767	50	108	0	0	jukebox	857	108	0	stimuli\jukebox\jukebox_06s.jpg	5	-1	0	0	jukebox_06s.jpg	0	0	0	230.174569823081	230.224546319863	0.0499764967826195
70867	50	109	0	0	handlebar	749	109	0	stimuli\handlebar\handlebar_11s.jpg	10	-1	0	0	handlebar_11s.jpg	0	0	0	230.274569140398	230.324548562872	0.04997942247428
70967	50	110	0	0	hearing_aid	770	110	0	stimuli\hearing_aid\hearing_aid_09s.jpg	8	-1	0	0	hearing_aid_09s.jpg	0	0	0	230.374576503411	230.424554463068	0.0499779596575536
71067	50	111	0	0	ping-pong_table	1184	111	0	stimuli\ping-pong_table\ping-pong_table_05s.jpg	4	-1	0	0	ping-pong_table_05s.jpg	0	0	0	230.47457606456	230.524556218472	0.049980153911747
71167	50	112	0	0	trunk	1722	112	0	stimuli\trunk\trunk_03s.jpg	2	-1	0	0	trunk_03s.jpg	0	0	0	230.574563435279	230.624560655851	0.0499972205725498
71267	50	113	0	0	amber	18	113	0	stimuli\amber\amber_08s.jpg	7	-1	0	0	amber_08s.jpg	0	0	0	230.674581769679	230.724547538906	0.0499657692271285
71367	50	114	0	0	lightbulb	927	114	0	stimuli\lightbulb\lightbulb_07s.jpg	6	-1	0	0	lightbulb_07s.jpg	0	0	0	230.774584012746	230.824550269579	0.0499662568327039
71467	50	115	0	0	baton4	95	115	0	stimuli\baton4\baton4_09s.jpg	8	-1	0	1	baton4_09s.jpg	0	0	0	230.874584792939	230.924569823081	0.0499850301421247
71567	50	116	0	0	waffle	1770	116	0	stimuli\waffle\waffle_08s.jpg	7	-1	0	0	waffle_08s.jpg	0	0	0	230.974587767385	231.024552073737	0.0499643063521944
71667	50	117	0	0	coat_rack	370	117	0	stimuli\coat_rack\coat_rack_04s.jpg	3	-1	0	0	coat_rack_04s.jpg	0	0	0	231.07458976662	231.124559924414	0.049970157793723
71767	50	118	0	0	railing	1277	118	0	stimuli\railing\railing_06s.jpg	5	-1	0	0	railing_06s.jpg	0	0	0	231.174593960168	231.22457606456	0.0499821043922566
71867	50	119	0	0	cookie_sheet	402	119	0	stimuli\cookie_sheet\cookie_sheet_12s.jpg	11	-1	0	0	cookie_sheet_12s.jpg	0	0	0	231.274583525141	231.32456441049	0.0499808853492141
71967	50	120	0	0	calzone	243	120	0	stimuli\calzone\calzone_10s.jpg	9	-1	0	0	calzone_10s.jpg	0	0	0	231.374583817727	231.424582013511	0.0499981957837008
72067	50	121	0	0	stem	1547	121	0	stimuli\stem\stem_10s.jpg	9	-1	0	0	stem_10s.jpg	0	0	0	231.474602639792	231.524562801351	0.0499601615592837
72167	50	122	0	0	domino	503	122	0	stimuli\domino\domino_10s.jpg	9	-1	0	0	domino_10s.jpg	0	0	0	231.57460293232	231.624584792939	0.0499818606185727
72267	50	123	0	0	tooth	1678	123	0	stimuli\tooth\tooth_04s.jpg	3	-1	0	0	tooth_04s.jpg	0	0	0	231.674613221083	231.724575333123	0.0499621120397933
72367	50	124	0	0	loom	946	124	0	stimuli\loom\loom_02s.jpg	1	-1	0	0	loom_02s.jpg	0	0	0	231.774591083231	231.824572456186	0.0499813729547895
72467	50	125	0	0	grass	705	125	0	stimuli\grass\grass_12s.jpg	11	-1	0	0	grass_12s.jpg	0	0	0	231.874612587213	231.924578843988	0.0499662567744963
72567	50	126	0	0	nail_polish	1049	126	0	stimuli\nail_polish\nail_polish_02s.jpg	1	-1	0	0	nail_polish_02s.jpg	0	0	0	231.974597032182	232.02459278988	0.0499957576976158
72667	50	127	0	0	gumdrop	726	127	0	stimuli\gumdrop\gumdrop_06s.jpg	5	-1	0	0	gumdrop_06s.jpg	0	0	0	232.074616341852	232.124600152893	0.0499838110408746
72767	50	128	0	0	okra	1074	128	0	stimuli\okra\okra_06s.jpg	5	-1	0	0	okra_06s.jpg	0	0	0	232.174618341087	232.224584841693	0.0499665006063879
72867	50	129	0	0	dough	513	129	0	stimuli\dough\dough_04s.jpg	3	-1	0	0	dough_04s.jpg	0	0	0	232.27462009649	232.324599519023	0.0499794225324877
72967	50	130	0	0	sushi	1588	130	0	stimuli\sushi\sushi_01b.jpg	0	-1	0	0	sushi_01b.jpg	0	0	0	232.374622827163	232.42460444395	0.0499816167866811
73067	50	131	0	0	loveseat	947	131	0	stimuli\loveseat\loveseat_01b.jpg	0	-1	0	0	loveseat_01b.jpg	0	0	0	232.474626045441	232.524605711747	0.0499796663061716
73167	50	132	0	0	bungee	221	132	0	stimuli\bungee\bungee_01b.jpg	0	-1	0	0	bungee_01b.jpg	0	0	0	232.57462658186	232.624608930026	0.0499823481659405
73267	50	133	0	0	pocketknife	1207	133	0	stimuli\pocketknife\pocketknife_03s.jpg	2	-1	0	0	pocketknife_03s.jpg	0	0	0	232.674630043912	232.724611173093	0.0499811291811056
73367	50	134	0	0	stair	1532	134	0	stimuli\stair\stair_02s.jpg	1	-1	0	0	stair_02s.jpg	0	0	0	232.774633506022	232.824619267543	0.0499857615213841
73467	50	135	0	0	swing_set	1599	135	0	stimuli\swing_set\swing_set_10s.jpg	9	-1	0	0	swing_set_10s.jpg	0	0	0	232.874639649992	232.924616878212	0.0499772282200865
73567	50	136	0	0	whoopee_cushion	1814	136	0	stimuli\whoopee_cushion\whoopee_cushion_03s.jpg	2	-1	0	0	whoopee_cushion_03s.jpg	0	0	0	232.974645306356	233.02460229845	0.0499569920939393
73667	50	137	0	0	hard_disk	752	137	0	stimuli\hard_disk\hard_disk_03s.jpg	2	-1	0	0	hard_disk_03s.jpg	0	0	0	233.074623168504	233.124620632909	0.0499974644044414
73767	50	138	0	0	flag	605	138	0	stimuli\flag\flag_08s.jpg	7	-1	0	0	flag_08s.jpg	0	0	0	233.17464589153	233.224625314004	0.04997942247428
73867	50	139	0	0	barnacle	75	139	0	stimuli\barnacle\barnacle_09s.jpg	8	-1	0	0	barnacle_09s.jpg	0	0	0	233.274634481233	233.324609027593	0.0499745463603176
73967	50	140	0	0	ladder	886	140	0	stimuli\ladder\ladder_03s.jpg	2	-1	0	0	ladder_03s.jpg	0	0	0	233.374636968132	233.424630287744	0.0499933196115308
74067	50	141	0	0	brace	186	141	0	stimuli\brace\brace_09s.jpg	8	-1	0	0	brace_09s.jpg	0	0	0	233.474660178763	233.524616439361	0.0499562605982646
74167	50	142	0	0	cow	426	142	0	stimuli\cow\cow_12s.jpg	11	-1	0	0	cow_12s.jpg	0	0	0	233.574640478939	233.624635749089	0.049995270150248
74267	50	143	0	0	graffiti	697	143	0	stimuli\graffiti\graffiti_07s.jpg	6	-1	0	0	graffiti_07s.jpg	0	0	0	233.674641259131	233.724636773055	0.0499955139239319
74367	50	144	0	0	napkin	1050	144	0	stimuli\napkin\napkin_07s.jpg	6	-1	0	0	napkin_07s.jpg	0	0	0	233.774658374547	233.824622193293	0.0499638187466189
74467	50	145	0	0	pulley	1250	145	0	stimuli\pulley\pulley_04s.jpg	3	-1	0	0	pulley_04s.jpg	0	0	0	233.87466500618	233.924625899177	0.0499608929967508
74567	50	146	0	0	hammock	742	146	0	stimuli\hammock\hammock_09s.jpg	8	-1	0	0	hammock_09s.jpg	0	0	0	233.974665786372	234.024628142186	0.0499623558134772
74667	50	147	0	0	chalkboard	303	147	0	stimuli\chalkboard\chalkboard_06s.jpg	5	-1	0	0	chalkboard_06s.jpg	0	0	0	234.074667297944	234.124650377606	0.0499830796616152
74767	50	148	0	0	gourd	696	148	0	stimuli\gourd\gourd_06s.jpg	5	-1	0	1	gourd_06s.jpg	0	0	0	234.174670028617	234.224632140656	0.0499621120397933
74867	50	149	0	0	eye	564	149	0	stimuli\eye\eye_10s.jpg	9	-1	0	0	eye_10s.jpg	0	0	0	234.274673978332	234.324635846599	0.0499618682661094
74967	50	150	0	0	shrimp	1438	150	0	stimuli\shrimp\shrimp_01b.jpg	0	-1	0	0	shrimp_01b.jpg	1	0.252137962845154	1	234.374672808044	234.424655643874	0.0499828358297236
75067	50	151	0	0	paperclip	1116	151	0	stimuli\paperclip\paperclip_06s.jpg	5	-1	0	0	paperclip_06s.jpg	0	0	0	234.474675051111	234.524654717417	0.0499796663061716
75167	50	152	0	0	bracelet2	188	152	0	stimuli\bracelet2\bracelet2_07s.jpg	6	-1	0	0	bracelet2_07s.jpg	0	0	0	234.574676806515	234.624658667133	0.0499818606185727
75267	50	153	0	0	frame	639	153	0	stimuli\frame\frame_08s.jpg	7	-1	0	0	frame_08s.jpg	0	0	0	234.674680024793	234.724661885411	0.0499818606185727
75367	50	154	0	0	sequin	1404	154	0	stimuli\sequin\sequin_10s.jpg	9	-1	0	0	sequin_10s.jpg	0	0	0	234.77466715168	234.824664128479	0.0499969767988659
75467	50	155	0	0	fungus	648	155	0	stimuli\fungus\fungus_02s.jpg	1	-1	0	0	fungus_02s.jpg	0	0	0	234.874688655662	234.924668078136	0.04997942247428
75567	50	156	0	0	food_processor	627	156	0	stimuli\food_processor\food_processor_12s.jpg	11	-1	0	0	food_processor_12s.jpg	0	0	0	234.974689192022	235.024670077371	0.0499808853492141
75667	50	157	0	0	clothespin	363	157	0	stimuli\clothespin\clothespin_03s.jpg	2	-1	0	0	clothespin_03s.jpg	0	0	0	235.0746924103	235.12467256427	0.0499801539699547
75767	50	158	0	0	teddy_bear	1635	158	0	stimuli\teddy_bear\teddy_bear_09s.jpg	8	-1	0	0	teddy_bear_09s.jpg	0	0	0	235.174694165762	235.22465798445	0.0499638186884113
75867	50	159	0	0	bomb	160	159	0	stimuli\bomb\bomb_01b.jpg	0	-1	0	0	bomb_01b.jpg	0	0	0	235.274696408771	235.324682170351	0.0499857615795918
75967	50	160	0	0	ramp	1283	160	0	stimuli\ramp\ramp_01b.jpg	0	-1	0	0	ramp_01b.jpg	0	0	0	235.374704259448	235.42467880575	0.04997454630211
76067	50	161	0	0	champagne	304	161	0	stimuli\champagne\champagne_11s.jpg	10	-1	0	0	champagne_11s.jpg	0	0	0	235.474685534893	235.524668370723	0.0499828358297236
76167	50	162	0	0	snail	1476	162	0	stimuli\snail\snail_12s.jpg	11	-1	0	0	snail_12s.jpg	0	0	0	235.57468777796	235.624690606142	0.0500028281821869
76267	50	163	0	0	shawl	1411	163	0	stimuli\shawl\shawl_03s.jpg	2	-1	0	0	shawl_03s.jpg	0	0	0	235.674709281942	235.724686022499	0.0499767405563034
76367	50	164	0	0	footrest	633	164	0	stimuli\footrest\footrest_08s.jpg	7	-1	0	0	footrest_08s.jpg	0	0	0	235.774708355428	235.824671930342	0.0499635749147274
76467	50	165	0	0	meatloaf	990	165	0	stimuli\meatloaf\meatloaf_10s.jpg	9	-1	0	0	meatloaf_10s.jpg	0	0	0	235.874712061312	235.924696847622	0.0499847863102332
76567	50	166	0	0	chin	330	166	0	stimuli\chin\chin_04s.jpg	3	-1	0	0	chin_04s.jpg	0	0	0	235.974713329168	236.024692751642	0.04997942247428
76667	50	167	0	0	smoothie	1474	167	0	stimuli\smoothie\smoothie_03s.jpg	2	-1	0	0	smoothie_03s.jpg	0	0	0	236.074716547446	236.124695482315	0.0499789348687045
76767	50	168	0	0	beachball	99	168	0	stimuli\beachball\beachball_01b.jpg	0	-1	0	0	beachball_01b.jpg	0	0	0	236.174705868587	236.224689192022	0.0499833234352991
76867	50	169	0	0	book	165	169	0	stimuli\book\book_05s.jpg	4	-1	0	0	book_05s.jpg	0	0	0	236.274722984002	236.324684120831	0.0499611368286423
76967	50	170	0	0	pot	1230	170	0	stimuli\pot\pot_12s.jpg	11	-1	0	0	pot_12s.jpg	0	0	0	236.374723764195	236.424702211458	0.0499784472631291
77067	50	171	0	0	oyster	1092	171	0	stimuli\oyster\oyster_02n.jpg	1	-1	0	0	oyster_02n.jpg	0	0	0	236.474708452937	236.524705917342	0.0499974644044414
77167	50	172	0	0	insole	831	172	0	stimuli\insole\insole_03s.jpg	2	-1	0	0	insole_03s.jpg	0	0	0	236.574727031228	236.624712061312	0.0499850300839171
77267	50	173	0	0	banana_split	65	173	0	stimuli\banana_split\banana_split_01b.jpg	0	-1	0	0	banana_split_01b.jpg	0	0	0	236.674730493338	236.724694799632	0.0499643062939867
77367	50	174	0	0	dice	486	174	0	stimuli\dice\dice_01s.jpg	0	-1	0	0	dice_01s.jpg	0	0	0	236.774717620166	236.824700212223	0.0499825920560397
77467	50	175	0	0	splinter	1516	175	0	stimuli\splinter\splinter_01b.jpg	0	-1	0	0	splinter_01b.jpg	0	0	0	236.874737905106	236.924701967626	0.0499640625203028
77567	50	176	0	0	polo_shirt	1216	176	0	stimuli\polo_shirt\polo_shirt_02s.jpg	1	-1	0	0	polo_shirt_02s.jpg	0	0	0	236.974740635778	237.024717863998	0.0499772282200865
77667	50	177	0	0	grapevine	704	177	0	stimuli\grapevine\grapevine_04s.jpg	3	-1	0	0	grapevine_04s.jpg	0	0	0	237.074743122619	237.124727665156	0.0499845425365493
77767	50	178	0	0	doorstop	512	178	0	stimuli\doorstop\doorstop_05s.jpg	4	-1	0	0	doorstop_05s.jpg	0	0	0	237.174747072335	237.22472283768	0.0499757653451525
77867	50	179	0	0	lion	933	179	0	stimuli\lion\lion_09s.jpg	8	-1	0	0	lion_09s.jpg	0	0	0	237.274744683004	237.324726787396	0.0499821043922566
77967	50	180	0	0	rosary	1333	180	0	stimuli\rosary\rosary_08s.jpg	7	-1	0	0	rosary_08s.jpg	0	0	0	237.374735223188	237.424730493338	0.049995270150248
78067	50	181	0	0	kayak	863	181	0	stimuli\kayak\kayak_07s.jpg	6	-1	0	0	kayak_07s.jpg	0	0	0	237.474737466255	237.524716401123	0.0499789348687045
78167	50	182	0	0	warthog	1781	182	0	stimuli\warthog\warthog_01b.jpg	0	-1	0	0	warthog_01b.jpg	0	0	0	237.574756775924	237.624738636543	0.0499818606185727
78267	50	183	0	0	beet	114	183	0	stimuli\beet\beet_04s.jpg	3	-1	0	0	beet_04s.jpg	0	0	0	237.674740733288	237.724723325344	0.0499825920560397
78367	50	184	0	0	rhubarb	1307	184	0	stimuli\rhubarb\rhubarb_01b.jpg	0	-1	0	0	rhubarb_01b.jpg	0	0	0	237.774741269706	237.824742147408	0.0500008777016774
78467	50	185	0	0	bandanna	67	185	0	stimuli\bandanna\bandanna_05s.jpg	4	-1	0	0	bandanna_05s.jpg	0	0	0	237.87475521554	237.924746097124	0.0499908815836534
78567	50	186	0	0	television	1641	186	0	stimuli\television\television_09s.jpg	8	-1	0	0	television_09s.jpg	0	0	0	237.974743317696	238.024722984002	0.0499796663061716
78667	50	187	0	0	moccasin	1010	187	0	stimuli\moccasin\moccasin_10s.jpg	9	-1	0	0	moccasin_10s.jpg	0	0	0	238.074744341662	238.124727665156	0.0499833234935068
78767	50	188	0	0	goat	684	188	0	stimuli\goat\goat_11s.jpg	10	-1	0	0	goat_11s.jpg	0	0	0	238.174762676121	238.224747950037	0.0499852739158086
78867	50	189	0	0	counter	424	189	0	stimuli\counter\counter_02s.jpg	1	-1	0	0	counter_02s.jpg	0	0	0	238.274766382005	238.324751168315	0.0499847863102332
78967	50	190	0	0	car	267	190	0	stimuli\car\car_09s.jpg	8	-1	0	0	car_09s.jpg	0	0	0	238.374753508891	238.424733662861	0.0499801539699547
79067	50	191	0	0	souffle	1498	191	0	stimuli\souffle\souffle_12s.jpg	11	-1	0	0	souffle_12s.jpg	0	0	0	238.474772087182	238.524751753488	0.0499796663061716
79167	50	192	0	0	periscope	1155	192	0	stimuli\periscope\periscope_05s.jpg	4	-1	0	0	periscope_05s.jpg	0	0	0	238.57477335498	238.624754240329	0.0499808853492141
79267	50	193	0	0	card	271	193	0	stimuli\card\card_04s.jpg	3	-1	0	0	card_04s.jpg	0	0	0	238.674774622777	238.724756971002	0.0499823482241482
79367	50	194	0	0	razor_blade	1291	194	0	stimuli\razor_blade\razor_blade_06s.jpg	5	-1	0	0	razor_blade_06s.jpg	0	0	0	238.774761262059	238.824745316932	0.0499840548727661
79467	50	195	0	0	unicycle	1746	195	0	stimuli\unicycle\unicycle_04s.jpg	3	-1	0	0	unicycle_04s.jpg	0	0	0	238.874784472689	238.924765114207	0.0499806415173225
79567	50	196	0	0	jet	847	196	0	stimuli\jet\jet_07s.jpg	6	-1	0	0	jet_07s.jpg	0	0	0	238.974772574787	239.024768820149	0.0499962453613989
79667	50	197	0	0	bulletproof_vest	218	197	0	stimuli\bulletproof_vest\bulletproof_vest_01s.jpg	0	-1	0	0	bulletproof_vest_01s.jpg	0	0	0	239.074791884457	239.124757897458	0.0499660130008124
79767	50	198	0	0	cigarette_butt	345	198	0	stimuli\cigarette_butt\cigarette_butt_07s.jpg	6	-1	0	0	cigarette_butt_07s.jpg	0	0	0	239.174793152255	239.224759409088	0.0499662568327039
79867	50	199	0	0	lamb	889	199	0	stimuli\lamb\lamb_12s.jpg	11	-1	0	1	lamb_12s.jpg	0	0	0	239.274801734369	239.324765065452	0.0499633310828358
79967	50	200	0	0	headdress	763	200	0	stimuli\headdress\headdress_12s.jpg	11	-1	0	0	headdress_12s.jpg	0	0	0	239.374798857432	239.424781693262	0.0499828358297236
80067	50	201	0	0	chandelier	305	201	0	stimuli\chandelier\chandelier_01b.jpg	0	-1	0	0	chandelier_01b.jpg	0	0	0	239.474784033839	239.524765162962	0.049981129122898
80167	50	202	0	0	bench	120	202	0	stimuli\bench\bench_02s.jpg	1	-1	0	0	bench_02s.jpg	1	0.292145101586357	1	239.574804562551	239.624786910776	0.0499823482241482
80267	50	203	0	0	kaleidoscope	861	203	0	stimuli\kaleidoscope\kaleidoscope_06s.jpg	5	-1	0	0	kaleidoscope_06s.jpg	0	0	0	239.674815826525	239.724771355744	0.0499555292190053
80367	50	204	0	0	fishing_pole	603	204	0	stimuli\fishing_pole\fishing_pole_02s.jpg	1	-1	0	0	fishing_pole_02s.jpg	0	0	0	239.774813437194	239.824790177809	0.0499767406145111
80467	50	205	0	0	caviar	289	205	0	stimuli\caviar\caviar_12s.jpg	11	-1	0	0	caviar_12s.jpg	0	0	0	239.874812998343	239.924777304695	0.0499643063521944
80567	50	206	0	0	lighter	928	206	0	stimuli\lighter\lighter_02s.jpg	1	-1	0	0	lighter_02s.jpg	0	0	0	239.974812071887	240.024776134407	0.0499640625203028
80667	50	207	0	0	racket	1270	207	0	stimuli\racket\racket_01b.jpg	0	-1	0	0	racket_01b.jpg	0	0	0	240.074809926329	240.124802758335	0.0499928320059553
80767	50	208	0	0	cigarette_holder	346	208	0	stimuli\cigarette_holder\cigarette_holder_04s.jpg	3	-1	0	0	cigarette_holder_04s.jpg	0	0	0	240.174823384616	240.224782570964	0.0499591863481328
80867	50	209	0	0	oatmeal	1069	209	0	stimuli\oatmeal\oatmeal_10s.jpg	9	-1	0	0	oatmeal_10s.jpg	0	0	0	240.274809292459	240.324793834938	0.0499845424783416
80967	50	210	0	0	thermos	1647	210	0	stimuli\thermos\thermos_06s.jpg	5	-1	0	0	thermos_06s.jpg	0	0	0	240.374824701168	240.424804367474	0.0499796663061716
81067	50	211	0	0	microscope	999	211	0	stimuli\microscope\microscope_05s.jpg	4	-1	0	0	microscope_05s.jpg	0	0	0	240.474810121406	240.524789056275	0.0499789348687045
81167	50	212	0	0	shaving_cream	1410	212	0	stimuli\shaving_cream\shaving_cream_06s.jpg	5	-1	0	0	shaving_cream_06s.jpg	0	0	0	240.574810657767	240.624810804089	0.050000146322418
81267	50	213	0	0	soldering_iron	1494	213	0	stimuli\soldering_iron\soldering_iron_05s.jpg	4	-1	0	0	soldering_iron_05s.jpg	0	0	0	240.6748304551	240.724812071887	0.0499816167866811
81367	50	214	0	0	fur_coat	650	214	0	stimuli\fur_coat\fur_coat_01b.jpg	0	-1	0	0	fur_coat_01b.jpg	0	0	0	240.774833429547	240.82479871111	0.0499652815633453
81467	50	215	0	0	mast	981	215	0	stimuli\mast\mast_01b.jpg	0	-1	0	0	mast_01b.jpg	0	0	0	240.874840548786	240.924819483655	0.0499789348687045
81567	50	216	0	0	exerciser	561	216	0	stimuli\exerciser\exerciser_03s.jpg	2	-1	0	0	exerciser_03s.jpg	0	0	0	240.974840597541	241.024805147666	0.0499645501258783
81667	50	217	0	0	firetruck	596	217	0	stimuli\firetruck\firetruck_04s.jpg	3	-1	0	0	firetruck_04s.jpg	0	0	0	241.074850886303	241.124821775476	0.0499708891729824
81767	50	218	0	0	mallet	962	218	0	stimuli\mallet\mallet_08s.jpg	7	-1	0	0	mallet_08s.jpg	0	0	0	241.1748699522	241.224826944235	0.0499569920357317
81867	50	219	0	0	incense	826	219	0	stimuli\incense\incense_08s.jpg	7	-1	0	0	incense_08s.jpg	0	0	0	241.274831235292	241.324828212033	0.0499969767406583
81967	50	220	0	0	chair	300	220	0	stimuli\chair\chair_12s.jpg	11	-1	0	0	chair_12s.jpg	0	0	0	241.37484566879	241.424834843667	0.0499891748768277
82067	50	221	0	0	button1	230	221	0	stimuli\button1\button1_11s.jpg	10	-1	0	0	button1_11s.jpg	0	0	0	241.474834258494	241.524820263847	0.0499860053532757
82167	50	222	0	0	heater	772	222	0	stimuli\heater\heater_01b.jpg	0	-1	0	0	heater_01b.jpg	0	0	0	241.57485527487	241.624834697344	0.04997942247428
82267	50	223	0	0	oven	1089	223	0	stimuli\oven\oven_06s.jpg	5	-1	0	0	oven_06s.jpg	0	0	0	241.674854836019	241.724837915623	0.0499830796034075
82367	50	224	0	0	coal	367	224	0	stimuli\coal\coal_03s.jpg	2	-1	0	0	coal_03s.jpg	0	0	0	241.774860248552	241.824839671084	0.0499794225324877
82467	50	225	0	0	raspberry	1284	225	0	stimuli\raspberry\raspberry_08s.jpg	7	-1	0	0	raspberry_08s.jpg	0	0	0	241.874848106876	241.924826554139	0.0499784472631291
82567	50	226	0	0	moss	1022	226	0	stimuli\moss\moss_07s.jpg	6	-1	0	0	moss_07s.jpg	0	0	0	241.974862052768	242.024844644766	0.0499825919978321
82667	50	227	0	0	goose	693	227	0	stimuli\goose\goose_06s.jpg	5	-1	0	0	goose_06s.jpg	0	0	0	242.07485527487	242.124845424958	0.0499901500879787
82767	50	228	0	0	coaster	368	228	0	stimuli\coaster\coaster_04s.jpg	3	-1	0	0	coaster_04s.jpg	0	0	0	242.174870439805	242.224838159455	0.0499677196494304
82867	50	229	0	0	boxer_shorts	182	229	0	stimuli\boxer_shorts\boxer_shorts_02s.jpg	1	-1	0	0	boxer_shorts_02s.jpg	0	0	0	242.274854397168	242.324855518644	0.0500011214753613
82967	50	230	0	0	mistletoe	1007	230	0	stimuli\mistletoe\mistletoe_07s.jpg	6	-1	0	0	mistletoe_07s.jpg	0	0	0	242.374872731627	242.424852641707	0.0499799100798555
83067	50	231	0	0	engine	557	231	0	stimuli\engine\engine_09s.jpg	8	-1	0	0	engine_09s.jpg	0	0	0	242.474874730862	242.524840012426	0.0499652815633453
83167	50	232	0	0	needle	1055	232	0	stimuli\needle\needle_07s.jpg	6	-1	0	0	needle_07s.jpg	0	0	0	242.574882581481	242.624862491619	0.0499799101380631
83267	50	233	0	0	swizzle_stick	1601	233	0	stimuli\swizzle_stick\swizzle_stick_10s.jpg	9	-1	0	0	swizzle_stick_10s.jpg	0	0	0	242.674880435981	242.724862052768	0.0499816167866811
83367	50	234	0	0	parsley	1122	234	0	stimuli\parsley\parsley_04s.jpg	3	-1	0	0	parsley_04s.jpg	0	0	0	242.774884873303	242.824867709132	0.0499828358297236
83467	50	235	0	0	mousetrap	1029	235	0	stimuli\mousetrap\mousetrap_11s.jpg	10	-1	0	0	mousetrap_11s.jpg	0	0	0	242.874872243963	242.924867757887	0.0499955139239319
83567	50	236	0	0	wheat	1805	236	0	stimuli\wheat\wheat_09n.jpg	8	-1	0	0	wheat_09n.jpg	0	0	0	242.974887165125	243.024869269517	0.0499821043922566
83667	50	237	0	0	birdbath	129	237	0	stimuli\birdbath\birdbath_07s.jpg	6	-1	0	0	birdbath_07s.jpg	0	0	0	243.07489111484	243.124858590658	0.0499674758175388
83767	50	238	0	0	tablecloth	1609	238	0	stimuli\tablecloth\tablecloth_10s.jpg	9	-1	0	0	tablecloth_10s.jpg	0	0	0	243.174896283541	243.224859858456	0.0499635749147274
83867	50	239	0	0	sunroof	1586	239	0	stimuli\sunroof\sunroof_04s.jpg	3	-1	0	0	sunroof_04s.jpg	0	0	0	243.27489389421	243.32488160627	0.0499877120601013
83967	50	240	0	0	gurney	728	240	0	stimuli\gurney\gurney_06s.jpg	5	-1	0	0	gurney_06s.jpg	0	0	0	243.374899794406	243.424880435981	0.0499806415755302
84067	50	241	0	0	shirt	1422	241	0	stimuli\shirt\shirt_03s.jpg	2	-1	0	0	shirt_03s.jpg	0	0	0	243.474887408898	243.524881459947	0.0499940510489978
84167	50	242	0	0	plum	1203	242	0	stimuli\plum\plum_09s.jpg	8	-1	0	0	plum_09s.jpg	0	0	0	243.574904036708	243.624888091581	0.0499840548727661
84267	50	243	0	0	sardine	1359	243	0	stimuli\sardine\sardine_10s.jpg	9	-1	0	0	sardine_10s.jpg	0	0	0	243.674889213115	243.724886921293	0.0499977081781253
84367	50	244	0	0	banner	70	244	0	stimuli\banner\banner_12s.jpg	11	-1	0	0	banner_12s.jpg	0	0	0	243.774908035179	243.824887701485	0.0499796663061716
84467	50	245	0	0	stilt	1555	245	0	stimuli\stilt\stilt_09s.jpg	8	-1	0	0	stilt_09s.jpg	0	0	0	243.874917836278	243.924889944552	0.0499721082742326
84567	50	246	0	0	violin	1764	246	0	stimuli\violin\violin_03n.jpg	2	-1	0	0	violin_03n.jpg	0	0	0	243.974918128864	244.024882191385	0.0499640625203028
84667	50	247	0	0	hand	744	247	0	stimuli\hand\hand_09s.jpg	8	-1	0	0	hand_09s.jpg	0	0	0	244.074921590975	244.124883215409	0.0499616244342178
84767	50	248	0	0	penguin	1145	248	0	stimuli\penguin\penguin_12s.jpg	11	-1	0	0	penguin_12s.jpg	0	0	0	244.174902622588	244.224897892738	0.049995270150248
84867	50	249	0	0	sidecar	1442	249	0	stimuli\sidecar\sidecar_07s.jpg	6	-1	0	0	sidecar_07s.jpg	0	0	0	244.274903646612	244.32490135479	0.0499977081781253
84967	50	250	0	0	saxophone	1368	250	0	stimuli\saxophone\saxophone_12s.jpg	11	-1	0	0	saxophone_12s.jpg	0	0	0	244.374924419157	244.424903110252	0.0499786910950206
85067	50	251	0	0	fence	575	251	0	stimuli\fence\fence_07s.jpg	6	-1	0	0	fence_07s.jpg	0	0	0	244.474923980306	244.524890968518	0.0499669882119633
85167	50	252	0	0	melon	994	252	0	stimuli\melon\melon_06s.jpg	5	-1	0	0	melon_06s.jpg	0	0	0	244.574912570009	244.624907840102	0.0499952700920403
85267	50	253	0	0	easel	542	253	0	stimuli\easel\easel_05s.jpg	4	-1	0	0	easel_05s.jpg	0	0	0	244.67491505685	244.724912033649	0.0499969767988659
85367	50	254	0	0	stump	1576	254	0	stimuli\stump\stump_07s.jpg	6	-1	0	0	stump_07s.jpg	0	0	0	244.774921200878	244.824897941493	0.0499767406145111
85467	50	255	0	0	water_filter	1789	255	0	stimuli\water_filter\water_filter_01b.jpg	0	-1	0	0	water_filter_01b.jpg	0	0	0	244.87493782863	244.924903597857	0.0499657692271285
85567	50	256	0	0	sling	1466	256	0	stimuli\sling\sling_03s.jpg	2	-1	0	0	sling_03s.jpg	0	0	0	244.974938121217	245.024917787523	0.0499796663061716
85667	50	257	0	0	fishbowl	601	257	0	stimuli\fishbowl\fishbowl_04s.jpg	3	-1	0	0	fishbowl_04s.jpg	0	0	0	245.074942070933	245.124928807723	0.0499867367907427
85768	50	258	0	0	tray	1705	258	0	stimuli\tray\tray_11s.jpg	10	-1	0	0	tray_11s.jpg	0	0	0	245.174945289211	245.224922761263	0.0499774720519781
85867	50	259	0	0	rooster	1330	259	0	stimuli\rooster\rooster_03s.jpg	2	-1	0	0	rooster_03s.jpg	0	0	0	245.274928027531	245.324919152888	0.0499911253573373
85968	50	260	0	0	clove	365	260	0	stimuli\clove\clove_05s.jpg	4	-1	0	0	clove_05s.jpg	0	0	0	245.374949043908	245.424922127335	0.0499730834271759
86068	50	261	0	0	pita	1189	261	0	stimuli\pita\pita_07s.jpg	6	-1	0	0	pita_07s.jpg	0	0	0	245.474945435475	245.524922419921	0.0499769844464026
86168	50	262	0	0	anklet	23	262	0	stimuli\anklet\anklet_11s.jpg	10	-1	0	0	anklet_11s.jpg	0	0	0	245.574945484288	245.624924175325	0.049978691036813
86268	50	263	0	0	maple_syrup	971	263	0	stimuli\maple_syrup\maple_syrup_10s.jpg	9	-1	0	0	maple_syrup_10s.jpg	0	0	0	245.674951628258	245.724928856478	0.0499772282200865
86368	50	264	0	0	parking_meter	1120	264	0	stimuli\parking_meter\parking_meter_06s.jpg	5	-1	0	0	parking_meter_06s.jpg	0	0	0	245.774960210314	245.824929149065	0.0499689387506805
86468	50	265	0	0	weed	1802	265	0	stimuli\weed\weed_01b.jpg	0	-1	0	0	weed_01b.jpg	0	0	0	245.874967329553	245.924932123511	0.0499647939577699
86568	50	266	0	0	tube_top	1724	266	0	stimuli\tube_top\tube_top_11s.jpg	10	-1	0	0	tube_top_11s.jpg	0	0	0	245.974956163089	246.024935341789	0.0499791787005961
86668	50	267	0	0	gear	667	267	0	stimuli\gear\gear_05s.jpg	4	-1	0	0	gear_05s.jpg	0	0	0	246.074956211844	246.124923687719	0.0499674758757465
86767	50	268	0	0	scanner	1375	268	0	stimuli\scanner\scanner_10s.jpg	9	-1	0	0	scanner_10s.jpg	0	0	0	246.174943826336	246.224925930786	0.0499821044504642
86868	50	269	0	0	espresso	560	269	0	stimuli\espresso\espresso_06s.jpg	5	-1	0	0	espresso_06s.jpg	0	0	0	246.274973376014	246.324952310941	0.0499789349269122
86968	50	270	0	0	luggage	948	270	0	stimuli\luggage\luggage_03s.jpg	2	-1	0	0	luggage_03s.jpg	0	0	0	246.374963428651	246.424945045379	0.0499816167284735
87068	50	271	0	0	fire_alarm	591	271	0	stimuli\fire_alarm\fire_alarm_02s.jpg	1	-1	0	0	fire_alarm_02s.jpg	0	0	0	246.474971766875	246.524947288446	0.0499755215714686
87168	50	272	0	0	motherboard	1024	272	0	stimuli\motherboard\motherboard_02s.jpg	1	-1	0	0	motherboard_02s.jpg	0	0	0	246.57497108425	246.624950262951	0.0499791787005961
87268	50	273	0	0	roller_coaster	1325	273	0	stimuli\roller_coaster\roller_coaster_10s.jpg	9	-1	0	0	roller_coaster_10s.jpg	0	0	0	246.674974302528	246.724952749792	0.0499784472631291
87368	50	274	0	0	scissors	1379	274	0	stimuli\scissors\scissors_08s.jpg	7	-1	0	0	scissors_08s.jpg	0	0	0	246.774982884584	246.82495791855	0.0499750339658931
87468	50	275	0	0	gyro	730	275	0	stimuli\gyro\gyro_10s.jpg	9	-1	0	0	gyro_10s.jpg	0	0	0	246.874981470522	246.92496211204	0.0499806415173225
87568	50	276	0	0	green_beans	712	276	0	stimuli\green_beans\green_beans_04s.jpg	3	-1	0	0	green_beans_04s.jpg	0	0	0	246.974982006883	247.024958503665	0.0499764967826195
87668	50	277	0	0	yo-yo	1847	277	0	stimuli\yo-yo\yo-yo_02s.jpg	1	-1	0	0	yo-yo_02s.jpg	0	0	0	247.0749813242	247.124963184819	0.0499818606185727
87768	50	278	0	0	rock	1319	278	0	stimuli\rock\rock_05s.jpg	4	-1	0	0	rock_05s.jpg	0	0	0	247.174984298705	247.224965915491	0.0499816167866811
87868	50	279	0	0	grate	707	279	0	stimuli\grate\grate_10s.jpg	9	-1	0	0	grate_10s.jpg	0	0	0	247.274988004589	247.324969865207	0.0499818606185727
87968	50	280	0	0	speedboat	1511	280	0	stimuli\speedboat\speedboat_04s.jpg	3	-1	0	0	speedboat_04s.jpg	0	0	0	247.374991710472	247.424974302528	0.0499825920560397
88068	50	281	0	0	jacket	836	281	0	stimuli\jacket\jacket_07s.jpg	6	-1	0	0	jacket_07s.jpg	0	0	0	247.474991759227	247.524976057932	0.0499842987046577
88168	50	282	0	0	grinder	716	282	0	stimuli\grinder\grinder_02s.jpg	1	-1	0	0	grinder_02s.jpg	0	0	0	247.574994246126	247.624980251479	0.0499860053532757
88268	50	283	0	0	cleat	353	283	0	stimuli\cleat\cleat_08s.jpg	7	-1	0	0	cleat_08s.jpg	0	0	0	247.674997464404	247.724980544008	0.0499830796034075
88368	50	284	0	0	shark	1409	284	0	stimuli\shark\shark_11s.jpg	10	-1	0	0	shark_11s.jpg	0	0	0	247.775000926456	247.824983030907	0.0499821044504642
88468	50	285	0	0	license_plate	921	285	0	stimuli\license_plate\license_plate_06s.jpg	5	-1	0	0	license_plate_06s.jpg	0	0	0	247.875004388567	247.924983079662	0.0499786910950206
88568	50	286	0	0	handcuff	746	286	0	stimuli\handcuff\handcuff_05s.jpg	4	-1	0	0	handcuff_05s.jpg	0	0	0	247.975005168759	248.024984835065	0.0499796663061716
88668	50	287	0	0	toast	1665	287	0	stimuli\toast\toast_10s.jpg	9	-1	0	0	toast_10s.jpg	0	0	0	248.075005217514	248.124986102863	0.0499808853492141
88768	50	288	0	0	noodle	1061	288	0	stimuli\noodle\noodle_01s.jpg	0	-1	0	0	noodle_01s.jpg	0	0	0	248.175010386272	248.224989321141	0.0499789348687045
88868	50	289	0	0	cd_player	290	289	0	stimuli\cd_player\cd_player_10s.jpg	9	-1	0	0	cd_player_10s.jpg	0	0	0	248.275011897902	248.324999122298	0.0499872243963182
88968	50	290	0	0	ostrich	1084	290	0	stimuli\ostrich\ostrich_06s.jpg	5	-1	0	0	ostrich_06s.jpg	0	0	0	248.375015359954	248.424993319612	0.0499779596575536
89068	50	291	0	0	weather_vane	1798	291	0	stimuli\weather_vane\weather_vane_01s.jpg	0	-1	0	0	weather_vane_01s.jpg	0	0	0	248.475015408767	248.525002145499	0.0499867367325351
89168	50	292	0	0	coral	406	292	0	stimuli\coral\coral_01b.jpg	0	-1	0	0	coral_01b.jpg	0	0	0	248.575019114651	248.624999512394	0.0499803977436386
89268	50	293	0	0	hammer	741	293	0	stimuli\hammer\hammer_06s.jpg	5	-1	0	0	hammer_06s.jpg	0	0	0	248.675021845323	248.725007363013	0.0499855176894926
89368	50	294	0	0	marshmallow	977	294	0	stimuli\marshmallow\marshmallow_06s.jpg	5	-1	0	0	marshmallow_06s.jpg	0	0	0	248.775027014082	248.825007167994	0.049980153911747
89468	50	295	0	0	ferris_wheel	579	295	0	stimuli\ferris_wheel\ferris_wheel_03s.jpg	2	-1	0	0	ferris_wheel_03s.jpg	0	0	0	248.875026087568	248.925007216749	0.0499811291811056
89568	50	296	0	0	shelf	1416	296	0	stimuli\shelf\shelf_01b.jpg	0	-1	0	0	shelf_01b.jpg	0	0	0	248.975031987764	249.025015067426	0.0499830796616152
89668	50	297	0	0	bone	161	297	0	stimuli\bone\bone_06s.jpg	5	-1	0	0	bone_06s.jpg	0	0	0	249.075032036519	249.125010971387	0.0499789348687045
89768	50	298	0	0	smoke_alarm	1473	298	0	stimuli\smoke_alarm\smoke_alarm_07s.jpg	6	-1	0	0	smoke_alarm_07s.jpg	0	0	0	249.175038180547	249.225016871584	0.049978691036813
89868	50	299	0	0	scallop	1373	299	0	stimuli\scallop\scallop_01b.jpg	0	-1	0	0	scallop_01b.jpg	0	0	0	249.275037254032	249.325019114651	0.0499818606185727
89968	50	300	0	0	sombrero	1495	300	0	stimuli\sombrero\sombrero_03s.jpg	2	-1	0	0	sombrero_03s.jpg	0	0	0	249.375038765662	249.425033060543	0.0499942948808894
90068	50	301	0	0	jug	853	301	0	stimuli\jug\jug_03s.jpg	2	-1	0	0	jug_03s.jpg	0	0	0	249.475046372507	249.525024332164	0.0499779596575536
90168	50	302	0	0	clasp	351	302	0	stimuli\clasp\clasp_02s.jpg	1	-1	0	0	clasp_02s.jpg	0	0	0	249.575047396531	249.625028038048	0.0499806415173225
90268	50	303	0	0	quill	1263	303	0	stimuli\quill\quill_05s.jpg	4	-1	0	0	quill_05s.jpg	0	0	0	249.675055247149	249.725030037283	0.0499747901340015
90368	50	304	0	0	sweater	1592	304	0	stimuli\sweater\sweater_09s.jpg	8	-1	0	0	sweater_09s.jpg	0	0	0	249.775057002611	249.825029842264	0.049972839653492
90468	50	305	0	0	net	1057	305	0	stimuli\net\net_11s.jpg	10	-1	0	0	net_11s.jpg	0	0	0	249.875055100885	249.925058416673	0.0500033157877624
90568	50	306	0	0	saucer	1363	306	0	stimuli\saucer\saucer_03s.jpg	2	-1	0	0	saucer_03s.jpg	0	0	0	249.975056856289	250.025033596903	0.0499767406145111
90668	50	307	0	0	thorn	1650	307	0	stimuli\thorn\thorn_06s.jpg	5	-1	0	0	thorn_06s.jpg	0	0	0	250.07505666127	250.125034864701	0.0499782034312375
90768	50	308	0	0	flower	619	308	0	stimuli\flower\flower_12s.jpg	11	-1	0	0	flower_12s.jpg	0	0	0	250.175062073802	250.225038570643	0.0499764968408272
113035	50	309	0	0	turntable	1735	0	1	stimuli\turntable\turntable_02s.jpg	1	-1	1	0	turntable_02s.jpg	0	0	0	272.442286218342	272.492265640874	0.0499794225324877
113135	50	310	0	0	peanut_butter	1132	1	1	stimuli\peanut_butter\peanut_butter_12s.jpg	11	-1	1	0	peanut_butter_12s.jpg	0	0	0	272.542285291885	272.59227227245	0.0499869805644266
113235	50	311	0	0	revolver	1304	2	1	stimuli\revolver\revolver_11s.jpg	10	-1	1	0	revolver_11s.jpg	0	0	0	272.642290460644	272.69227012695	0.0499796663061716
113335	50	312	0	0	elephant	554	3	1	stimuli\elephant\elephant_05n.jpg	4	-1	1	0	elephant_05n.jpg	0	0	0	272.74228953413	272.792275051877	0.0499855177477002
113435	50	313	0	0	snack	1475	4	1	stimuli\snack\snack_01b.jpg	0	-1	1	0	snack_01b.jpg	0	0	0	272.842294215283	272.892273881589	0.0499796663061716
113535	50	314	0	0	bagpipe	56	5	1	stimuli\bagpipe\bagpipe_06s.jpg	5	-1	1	0	bagpipe_06s.jpg	0	0	0	272.94229645835	272.992277099867	0.0499806415173225
113635	50	315	0	0	cookie	400	6	1	stimuli\cookie\cookie_04s.jpg	3	-1	1	0	cookie_04s.jpg	0	0	0	273.042299920402	273.092289826716	0.0499899063142948
113735	50	316	0	0	chili	327	7	1	stimuli\chili\chili_03s.jpg	2	-1	1	0	chili_03s.jpg	0	0	0	273.142304357723	273.192282561213	0.0499782034894451
113835	50	317	0	0	pliers	1201	8	1	stimuli\pliers\pliers_10s.jpg	9	-1	1	0	pliers_10s.jpg	0	0	0	273.242303431267	273.29228748614	0.0499840548727661
113935	50	318	0	0	lava	903	9	1	stimuli\lava\lava_12s.jpg	11	-1	1	0	lava_12s.jpg	0	0	0	273.342305430502	273.39229289873	0.0499874682282098
114035	50	319	0	0	rain_gauge	1278	10	1	stimuli\rain_gauge\rain_gauge_02s.jpg	1	-1	1	0	rain_gauge_02s.jpg	0	0	0	273.442310355429	273.49228953413	0.0499791787005961
114135	50	320	0	0	root	1331	11	1	stimuli\root\root_10s.jpg	9	-1	1	0	root_10s.jpg	0	0	0	273.542308941367	273.592293971451	0.0499850300839171
114235	50	321	0	0	turtle	1736	12	1	stimuli\turtle\turtle_01b.jpg	0	-1	1	0	turtle_01b.jpg	0	0	0	273.642315329169	273.692295726913	0.0499803977436386
114335	50	322	0	0	crown	448	13	1	stimuli\crown\crown_12s.jpg	11	-1	1	0	crown_12s.jpg	0	0	0	273.742316353135	273.792300164234	0.0499838110990822
114435	50	323	0	0	train_car	1699	14	1	stimuli\train_car\train_car_02s.jpg	1	-1	1	0	train_car_02s.jpg	0	0	0	273.842319815245	273.892303870118	0.0499840548727661
114535	50	324	0	0	coat	369	15	1	stimuli\coat\coat_10s.jpg	9	-1	1	0	coat_10s.jpg	0	0	0	273.942322545918	273.992308063665	0.0499855177477002
114635	50	325	0	0	ready_meal	1292	16	1	stimuli\ready_meal\ready_meal_11s.jpg	10	-1	1	0	ready_meal_11s.jpg	0	0	0	274.042326251802	274.092302504811	0.0499762530089356
114735	50	326	0	0	sloth	1471	17	1	stimuli\sloth\sloth_05s.jpg	4	-1	1	0	sloth_05s.jpg	0	0	0	274.142324106302	274.192307673569	0.0499835672671907
114835	50	327	0	0	bassinet	85	18	1	stimuli\bassinet\bassinet_01b.jpg	0	-1	1	0	bassinet_01b.jpg	0	0	0	274.242332444584	274.292312110891	0.0499796663061716
114935	50	328	0	0	mandolin	965	19	1	stimuli\mandolin\mandolin_08s.jpg	7	-1	1	0	mandolin_08s.jpg	0	0	0	274.342339319992	274.39231923013	0.0499799101380631
115035	50	329	0	0	curling_iron	463	20	1	stimuli\curling_iron\curling_iron_06s.jpg	5	-1	1	0	curling_iron_06s.jpg	0	0	0	274.442334492574	274.492315865529	0.0499813729547895
115135	50	330	0	0	washboard	1782	21	1	stimuli\washboard\washboard_03s.jpg	2	-1	1	0	washboard_03s.jpg	0	0	0	274.542338686064	274.592321034288	0.0499823482241482
115235	50	331	0	0	bedpost	110	22	1	stimuli\bedpost\bedpost_07s.jpg	6	-1	1	0	bedpost_07s.jpg	0	0	0	274.642341416737	274.692326934484	0.0499855177477002
115335	50	332	0	0	cardigan	273	23	1	stimuli\cardigan\cardigan_02s.jpg	1	-1	1	0	cardigan_02s.jpg	0	0	0	274.742344878847	274.792325032759	0.049980153911747
115435	50	333	0	0	bus	226	24	1	stimuli\bus\bus_02n.jpg	1	-1	1	0	bus_02n.jpg	0	0	0	274.842342245684	274.892327275826	0.0499850301421247
115535	50	334	0	0	funnel	649	25	1	stimuli\funnel\funnel_10s.jpg	9	-1	1	0	funnel_10s.jpg	0	0	0	274.942345220188	274.99233293219	0.0499877120018937
115635	50	335	0	0	cobra	371	26	1	stimuli\cobra\cobra_01b.jpg	0	-1	1	0	cobra_01b.jpg	0	0	0	275.042349413678	275.092331274296	0.0499818606185727
115735	50	336	0	0	meat_grinder	988	27	1	stimuli\meat_grinder\meat_grinder_05s.jpg	4	-1	1	0	meat_grinder_05s.jpg	0	0	0	275.142351656745	275.192335224012	0.0499835672671907
115835	50	337	0	0	confetti	396	28	1	stimuli\confetti\confetti_11s.jpg	10	-1	1	0	confetti_11s.jpg	0	0	0	275.242340246448	275.29233551654	0.0499952700920403
115935	50	338	0	0	tambourine	1619	29	1	stimuli\tambourine\tambourine_12s.jpg	11	-1	1	0	tambourine_12s.jpg	0	0	0	275.34235516761	275.392335565353	0.0499803977436386
116035	50	339	0	0	barcode	73	30	1	stimuli\barcode\barcode_06s.jpg	5	-1	1	0	barcode_06s.jpg	0	0	0	275.442358385888	275.492321229365	0.0499628434772603
116135	50	340	0	0	jewelry	850	31	1	stimuli\jewelry\jewelry_08s.jpg	7	-1	1	0	jewelry_08s.jpg	0	0	0	275.542360628897	275.592340295203	0.0499796663061716
116235	50	341	0	0	macaroni	952	32	1	stimuli\macaroni\macaroni_05s.jpg	4	-1	1	0	macaroni_05s.jpg	0	0	0	275.642368723406	275.692344244919	0.0499755215132609
116335	50	342	0	0	guacamole	719	33	1	stimuli\guacamole\guacamole_08s.jpg	7	-1	1	0	guacamole_08s.jpg	0	0	0	275.742318059842	275.792351851764	0.0500337919220328
116435	50	343	0	0	highlighter	778	34	1	stimuli\highlighter\highlighter_09s.jpg	8	-1	1	0	highlighter_09s.jpg	0	0	0	275.842375647568	275.892351169139	0.0499755215714686
116535	50	344	0	0	sandpaper	1356	35	1	stimuli\sandpaper\sandpaper_01b.jpg	0	-1	1	0	sandpaper_01b.jpg	0	0	0	275.942371795361	275.992352680711	0.0499808853492141
116635	50	345	0	0	pump	1252	36	1	stimuli\pump\pump_08s.jpg	7	-1	1	0	pump_08s.jpg	0	0	0	276.04237793939	276.092356142821	0.0499782034312375
116735	50	346	0	0	whiteboard	1813	37	1	stimuli\whiteboard\whiteboard_08s.jpg	7	-1	1	0	whiteboard_08s.jpg	0	0	0	276.142375550058	276.192360336368	0.0499847863102332
116835	50	347	0	0	pogo_stick	1208	38	1	stimuli\pogo_stick\pogo_stick_08s.jpg	7	-1	1	0	pogo_stick_08s.jpg	0	0	0	276.24238193786	276.292362335604	0.0499803977436386
116935	50	348	0	0	corset	418	39	1	stimuli\corset\corset_03s.jpg	2	-1	1	0	corset_03s.jpg	0	0	0	276.342383693263	276.392361165315	0.0499774720519781
117035	50	349	0	0	dip	487	40	1	stimuli\dip\dip_01b.jpg	0	-1	1	0	dip_01b.jpg	0	0	0	276.442386423936	276.49236950354	0.0499830796034075
117135	50	350	0	0	slot_machine	1470	41	1	stimuli\slot_machine\slot_machine_08s.jpg	7	-1	1	0	slot_machine_08s.jpg	0	0	0	276.542389398383	276.592367114208	0.049977715825662
117235	50	351	0	0	headlight	765	42	1	stimuli\headlight\headlight_10s.jpg	9	-1	1	0	headlight_10s.jpg	0	0	0	276.64239066618	276.692369113443	0.0499784472631291
117335	50	352	0	0	abacus	1	43	1	stimuli\abacus\abacus_12s.jpg	11	-1	1	0	abacus_12s.jpg	0	0	0	276.742393396853	276.792370625073	0.0499772282200865
117435	50	353	0	0	grits	717	44	1	stimuli\grits\grits_06s.jpg	5	-1	1	0	grits_06s.jpg	0	0	0	276.842398078006	276.892377256707	0.0499791787005961
117535	50	354	0	0	inkwell	830	45	1	stimuli\inkwell\inkwell_08s.jpg	7	-1	1	0	inkwell_08s.jpg	0	0	0	276.942401296285	276.992379499716	0.0499782034312375
117635	50	355	0	0	face_mask	570	46	1	stimuli\face_mask\face_mask_10s.jpg	9	-1	1	0	face_mask_10s.jpg	0	0	0	277.042401832645	277.092380279908	0.0499784472631291
117735	50	356	0	0	jam	839	47	1	stimuli\jam\jam_09s.jpg	8	-1	1	0	jam_09s.jpg	0	0	0	277.142400662357	277.19238203537	0.0499813730129972
117835	50	357	0	0	cactus	235	48	1	stimuli\cactus\cactus_03s.jpg	2	-1	1	0	cactus_03s.jpg	0	0	0	277.242406074947	277.292387691734	0.0499816167866811
117935	50	358	0	0	toaster_oven	1667	49	1	stimuli\toaster_oven\toaster_oven_08s.jpg	7	-1	1	0	toaster_oven_08s.jpg	0	0	0	277.34240880562	277.392390422407	0.0499816167866811
118035	50	359	0	0	wreck	1840	50	1	stimuli\wreck\wreck_11s.jpg	10	-1	1	0	wreck_11s.jpg	0	0	0	277.44240934198	277.492392909247	0.0499835672671907
118135	50	360	0	0	spacesuit	1502	51	1	stimuli\spacesuit\spacesuit_12s.jpg	11	-1	1	1	spacesuit_12s.jpg	0	0	0	277.54241085361	277.592393445608	0.0499825919978321
118235	50	361	0	0	spider_web	1514	52	1	stimuli\spider_web\spider_web_03s.jpg	2	-1	1	0	spider_web_03s.jpg	0	0	0	277.642416509974	277.6923942258	0.049977715825662
118335	50	362	0	0	patty	1126	53	1	stimuli\patty\patty_06s.jpg	5	-1	1	0	patty_06s.jpg	0	0	0	277.742418021604	277.792400613602	0.0499825919978321
118435	50	363	0	0	punching_bag	1256	54	1	stimuli\punching_bag\punching_bag_03s.jpg	2	-1	1	0	punching_bag_03s.jpg	1	0.292182648205198	1	277.842421727488	277.892402369063	0.0499806415755302
118535	50	364	0	0	wallpaper	1777	55	1	stimuli\wallpaper\wallpaper_06s.jpg	5	-1	1	0	wallpaper_06s.jpg	0	0	0	277.942424458161	277.992402417818	0.0499779596575536
118635	50	365	0	0	bread	194	56	1	stimuli\bread\bread_04s.jpg	3	-1	1	0	bread_04s.jpg	0	0	0	278.04243060213	278.092409293226	0.0499786910950206
118735	50	366	0	0	fishnet_stockings	604	57	1	stimuli\fishnet_stockings\fishnet_stockings_03s.jpg	2	-1	1	0	fishnet_stockings_03s.jpg	0	0	0	278.14242748142	278.192410073418	0.0499825919978321
118835	50	367	0	0	trap	1702	58	1	stimuli\trap\trap_06s.jpg	5	-1	1	0	trap_06s.jpg	0	0	0	278.242433137784	278.292409634567	0.0499764967826195
118935	50	368	0	0	tumbleweed	1727	59	1	stimuli\tumbleweed\tumbleweed_12s.jpg	11	-1	1	0	tumbleweed_12s.jpg	0	0	0	278.342430260847	278.392411146197	0.0499808853492141
119035	50	369	0	0	gorilla	695	60	1	stimuli\gorilla\gorilla_02s.jpg	1	-1	1	0	gorilla_02s.jpg	0	0	0	278.442432503856	278.492418021604	0.0499855177477002
119135	50	370	0	0	stereo	1549	61	1	stimuli\stereo\stereo_02s.jpg	1	-1	1	0	stereo_02s.jpg	0	0	0	278.542440110701	278.592422458925	0.0499823482241482
119235	50	371	0	0	fish	600	62	1	stimuli\fish\fish_06s.jpg	5	-1	1	0	fish_06s.jpg	0	0	0	278.642439428018	278.692421532469	0.0499821044504642
119335	50	372	0	0	guardrail	720	63	1	stimuli\guardrail\guardrail_07s.jpg	6	-1	1	0	guardrail_07s.jpg	0	0	0	278.742443621566	278.792420849786	0.0499772282200865
119435	50	373	0	0	canvas	264	64	1	stimuli\canvas\canvas_03s.jpg	2	-1	1	0	canvas_03s.jpg	0	0	0	278.84244269511	278.892427237588	0.0499845424783416
119535	50	374	0	0	jump_rope	858	65	1	stimuli\jump_rope\jump_rope_05s.jpg	4	-1	1	0	jump_rope_05s.jpg	0	0	0	278.942447376205	278.992430699698	0.0499833234935068
119635	50	375	0	0	jalapeno	838	66	1	stimuli\jalapeno\jalapeno_04s.jpg	3	-1	1	0	jalapeno_04s.jpg	0	0	0	279.042459371616	279.092429041746	0.0499696701299399
119735	50	376	0	0	perfume	1154	67	1	stimuli\perfume\perfume_04s.jpg	3	-1	1	0	perfume_04s.jpg	0	0	0	279.142453568988	279.192432260083	0.0499786910950206
119835	50	377	0	0	road_sign	1315	68	1	stimuli\road_sign\road_sign_09s.jpg	8	-1	1	0	road_sign_09s.jpg	0	0	0	279.242454105348	279.292434503091	0.0499803977436386
119935	50	378	0	0	palm_tree	1102	69	1	stimuli\palm_tree\palm_tree_07s.jpg	6	-1	1	0	palm_tree_07s.jpg	0	0	0	279.342456104583	279.392436258553	0.0499801539699547
120035	50	379	0	0	hash	756	70	1	stimuli\hash\hash_11s.jpg	10	-1	1	0	hash_11s.jpg	0	0	0	279.442461273342	279.492447034863	0.0499857615213841
120135	50	380	0	0	magnifier	957	71	1	stimuli\magnifier\magnifier_02s.jpg	1	-1	1	0	magnifier_02s.jpg	0	0	0	279.542465954495	279.592449765536	0.0499838110408746
120235	50	381	0	0	celery	291	72	1	stimuli\celery\celery_05s.jpg	4	-1	1	0	celery_05s.jpg	0	0	0	279.642470879422	279.692431040981	0.0499601615592837
120335	50	382	0	0	worm	1836	73	1	stimuli\worm\worm_03s.jpg	2	-1	1	0	worm_03s.jpg	0	0	0	279.742469709134	279.792453764006	0.0499840548727661
120435	50	383	0	0	wagon	1772	74	1	stimuli\wagon\wagon_12s.jpg	11	-1	1	0	wagon_12s.jpg	0	0	0	279.842473171244	279.892436989932	0.0499638186884113
120535	50	384	0	0	hockey_stick	783	75	1	stimuli\hockey_stick\hockey_stick_04s.jpg	3	-1	1	0	hockey_stick_04s.jpg	0	0	0	279.942476877128	279.992457762477	0.0499808853492141
120635	50	385	0	0	snake	1477	76	1	stimuli\snake\snake_11s.jpg	10	-1	1	0	snake_11s.jpg	0	0	0	280.042477901152	280.092458055064	0.049980153911747
120735	50	386	0	0	marmalade	976	77	1	stimuli\marmalade\marmalade_04s.jpg	3	-1	1	0	marmalade_04s.jpg	0	0	0	280.142508182209	280.192444938119	0.0499367559095845
120835	50	387	0	0	wax	1795	78	1	stimuli\wax\wax_03s.jpg	2	-1	1	0	wax_03s.jpg	0	0	0	280.242486044357	280.292447912623	0.0499618682661094
120935	50	388	0	0	cardboard	272	79	1	stimuli\cardboard\cardboard_04s.jpg	3	-1	1	0	cardboard_04s.jpg	0	0	0	280.342469514115	280.392449424195	0.0499799100798555
121035	50	389	0	0	pudding	1246	80	1	stimuli\pudding\pudding_12s.jpg	11	-1	1	0	pudding_12s.jpg	0	0	0	280.44248736091	280.492453617742	0.0499662568327039
121135	50	390	0	0	trident	1712	81	1	stimuli\trident\trident_06s.jpg	5	-1	1	0	trident_06s.jpg	0	0	0	280.542492042063	280.592470733158	0.0499786910950206
121235	50	391	0	0	string_cheese	1573	82	1	stimuli\string_cheese\string_cheese_01b.jpg	0	-1	1	0	string_cheese_01b.jpg	0	0	0	280.642488433688	280.692472000956	0.0499835672671907
121335	50	392	0	0	sandcastle	1355	83	1	stimuli\sandcastle\sandcastle_05s.jpg	4	-1	1	0	sandcastle_05s.jpg	0	0	0	280.742495796701	280.792474731628	0.0499789349269122
121435	50	393	0	0	space_shuttle	1501	84	1	stimuli\space_shuttle\space_shuttle_09s.jpg	8	-1	1	0	space_shuttle_09s.jpg	0	0	0	280.842492188327	280.892475267989	0.0499830796616152
121535	50	394	0	0	hobbyhorse	782	85	1	stimuli\hobbyhorse\hobbyhorse_11s.jpg	10	-1	1	0	hobbyhorse_11s.jpg	0	0	0	280.942496381875	280.99247970531	0.0499833234352991
121635	50	395	0	0	wrist	1842	86	1	stimuli\wrist\wrist_02s.jpg	1	-1	1	0	wrist_02s.jpg	0	0	0	281.042503013508	281.092488531198	0.0499855176894926
121735	50	396	0	0	tadpole	1614	87	1	stimuli\tadpole\tadpole_09s.jpg	8	-1	1	0	tadpole_09s.jpg	0	0	0	281.142504768912	281.192487117136	0.0499823482241482
121835	50	397	0	0	petal	1158	88	1	stimuli\petal\petal_03s.jpg	2	-1	1	0	petal_03s.jpg	0	0	0	281.242505305272	281.292492042063	0.0499867367907427
121935	50	398	0	0	purse	1259	89	1	stimuli\purse\purse_04s.jpg	3	-1	1	0	purse_04s.jpg	0	0	0	281.342510717863	281.392487702251	0.049976984388195
122035	50	399	0	0	waterwheel	1794	90	1	stimuli\waterwheel\waterwheel_01b.jpg	0	-1	1	0	waterwheel_01b.jpg	0	0	0	281.442508328531	281.492490920529	0.0499825919978321
122135	50	400	0	0	cauliflower	288	91	1	stimuli\cauliflower\cauliflower_06s.jpg	5	-1	1	0	cauliflower_06s.jpg	0	0	0	281.542515935376	281.592494138808	0.0499782034312375
122235	50	401	0	0	gazelle	666	92	1	stimuli\gazelle\gazelle_01b.jpg	0	-1	1	0	gazelle_01b.jpg	0	0	0	281.642517203174	281.692498332355	0.0499811291811056
122335	50	402	0	0	ravioli	1289	93	1	stimuli\ravioli\ravioli_07s.jpg	6	-1	1	0	ravioli_07s.jpg	0	0	0	281.742516032886	281.792496918235	0.0499808853492141
122435	50	403	0	0	timer	1661	94	1	stimuli\timer\timer_11s.jpg	10	-1	1	0	timer_11s.jpg	0	0	0	281.842521445476	281.892506231787	0.0499847863102332
122535	50	404	0	0	headset	769	95	1	stimuli\headset\headset_05s.jpg	4	-1	1	0	headset_05s.jpg	0	0	0	281.942520275188	281.992504330061	0.0499840548727661
122635	50	405	0	0	knife	879	96	1	stimuli\knife\knife_09s.jpg	8	-1	1	0	knife_09s.jpg	0	0	0	282.042525200115	282.092506085464	0.0499808853492141
122735	50	406	0	0	koala	884	97	1	stimuli\koala\koala_10s.jpg	9	-1	1	0	koala_10s.jpg	0	0	0	282.142525492702	282.1925080847	0.0499825919978321
122835	50	407	0	0	sprouts	1524	98	1	stimuli\sprouts\sprouts_05s.jpg	4	-1	1	0	sprouts_05s.jpg	0	0	0	282.242546021414	282.292513009685	0.049966988270171
122935	50	408	0	0	toaster	1666	99	1	stimuli\toaster\toaster_12s.jpg	11	-1	1	0	toaster_12s.jpg	0	0	0	282.342533392133	282.392511107959	0.049977715825662
123035	50	409	0	0	tee	1636	100	1	stimuli\tee\tee_06s.jpg	5	-1	1	0	tee_06s.jpg	0	0	0	282.442532465619	282.492518958577	0.0499864929588512
123135	50	410	0	0	mat	982	101	1	stimuli\mat\mat_04s.jpg	3	-1	1	0	mat_04s.jpg	0	0	0	282.542537390604	282.59251608164	0.049978691036813
123235	50	411	0	0	highchair	777	102	1	stimuli\highchair\highchair_08s.jpg	7	-1	1	0	highchair_08s.jpg	0	0	0	282.642539389839	282.692521250399	0.049981860560365
123335	50	412	0	0	holster	786	103	1	stimuli\holster\holster_12s.jpg	11	-1	1	0	holster_12s.jpg	0	0	0	282.742546996684	282.792525687721	0.049978691036813
123435	50	413	0	0	chickpea	325	104	1	stimuli\chickpea\chickpea_05s.jpg	4	-1	1	0	chickpea_05s.jpg	0	0	0	282.842545094958	282.89252817462	0.0499830796616152
123535	50	414	0	0	spaghetti	1503	105	1	stimuli\spaghetti\spaghetti_05s.jpg	4	-1	1	0	spaghetti_05s.jpg	0	0	0	282.942548313236	282.992526760499	0.0499784472631291
123635	50	415	0	0	toolbox	1677	106	1	stimuli\toolbox\toolbox_01b.jpg	0	-1	1	0	toolbox_01b.jpg	0	0	0	283.04255006864	283.09253022261	0.0499801539699547
123735	50	416	0	0	dumpling	532	107	1	stimuli\dumpling\dumpling_07s.jpg	6	-1	1	0	dumpling_07s.jpg	0	0	0	283.14255353075	283.192534659931	0.0499811291811056
123835	50	417	0	0	float	616	108	1	stimuli\float\float_12s.jpg	11	-1	1	0	float_12s.jpg	0	0	0	283.242557968071	283.292540560127	0.0499825920560397
123935	50	418	0	0	mongoose	1016	109	1	stimuli\mongoose\mongoose_01b.jpg	0	-1	1	0	mongoose_01b.jpg	0	0	0	283.342555334908	283.392541096488	0.0499857615795918
124035	50	419	0	0	dragonfly	514	110	1	stimuli\dragonfly\dragonfly_04s.jpg	3	-1	1	0	dragonfly_04s.jpg	0	0	0	283.44256172271	283.492541632848	0.0499799101380631
124135	50	420	0	0	spider	1513	111	1	stimuli\spider\spider_07s.jpg	6	-1	1	1	spider_07s.jpg	0	0	0	283.54256518482	283.592533148301	0.0499679634813219
124235	50	421	0	0	arugula	40	112	1	stimuli\arugula\arugula_06s.jpg	5	-1	1	0	arugula_06s.jpg	0	0	0	283.642564258364	283.692548069404	0.0499838110408746
124335	50	422	0	0	gallows	653	113	1	stimuli\gallows\gallows_07s.jpg	6	-1	1	0	gallows_07s.jpg	0	0	0	283.742571377603	283.792550312472	0.0499789348687045
124435	50	423	0	0	football	629	114	1	stimuli\football\football_04s.jpg	3	-1	1	0	football_04s.jpg	1	0.300184953666758	1	283.842571913963	283.892551336437	0.04997942247428
124535	50	424	0	0	tape_measure	1623	115	1	stimuli\tape_measure\tape_measure_10s.jpg	9	-1	1	0	tape_measure_10s.jpg	0	0	0	283.942573425593	283.99255699286	0.0499835672671907
124635	50	425	0	0	film	586	116	1	stimuli\film\film_05s.jpg	4	-1	1	0	film_05s.jpg	0	0	0	284.042575912434	284.092555091134	0.0499791787005961
124735	50	426	0	0	cellphone	293	117	1	stimuli\cellphone\cellphone_01b.jpg	0	-1	1	0	cellphone_01b.jpg	0	0	0	284.142575229751	284.192549044674	0.0499738149228506
124835	50	427	0	0	slingshot	1467	118	1	stimuli\slingshot\slingshot_05s.jpg	4	-1	1	0	slingshot_05s.jpg	0	0	0	284.242569427122	284.292546899116	0.0499774719937705
124935	50	428	0	0	backgammon	48	119	1	stimuli\backgammon\backgammon_07s.jpg	6	-1	1	0	backgammon_07s.jpg	0	0	0	284.34256874444	284.392550117394	0.0499813729547895
125035	50	429	0	0	camper	249	120	1	stimuli\camper\camper_08s.jpg	7	-1	1	0	camper_08s.jpg	0	0	0	284.442570012237	284.492557968071	0.0499879558337852
125135	50	430	0	0	sand	1351	121	1	stimuli\sand\sand_02s.jpg	1	-1	1	0	sand_02s.jpg	0	0	0	284.54257835052	284.592556310177	0.0499779596575536
125235	50	431	0	0	radio	1273	122	1	stimuli\radio\radio_08s.jpg	7	-1	1	0	radio_08s.jpg	0	0	0	284.642574985977	284.692575619847	0.0500006338697858
125335	50	432	0	0	lectern	908	123	1	stimuli\lectern\lectern_07s.jpg	6	-1	1	0	lectern_07s.jpg	0	0	0	284.742579667072	284.792561771523	0.0499821044504642
125435	50	433	0	0	dolphin	502	124	1	stimuli\dolphin\dolphin_01b.jpg	0	-1	1	0	dolphin_01b.jpg	0	0	0	284.842609704414	284.89256864693	0.0499589425162412
125535	50	434	0	0	snowman	1482	125	1	stimuli\snowman\snowman_09s.jpg	8	-1	1	0	snowman_09s.jpg	0	0	0	284.942604145559	284.992585762346	0.0499816167866811
125635	50	435	0	0	basil	81	126	1	stimuli\basil\basil_07s.jpg	6	-1	1	0	basil_07s.jpg	0	0	0	285.042611752404	285.092589955835	0.0499782034312375
125735	50	436	0	0	cash_machine	279	127	1	stimuli\cash_machine\cash_machine_09s.jpg	8	-1	1	0	cash_machine_09s.jpg	0	0	0	285.142613507807	285.192588541773	0.0499750339658931
125835	50	437	0	0	hot_chocolate	803	128	1	stimuli\hot_chocolate\hot_chocolate_07s.jpg	6	-1	1	0	hot_chocolate_07s.jpg	0	0	0	285.242624040344	285.292582007649	0.0499579673050903
125935	50	438	0	0	antenna	27	129	1	stimuli\antenna\antenna_03n.jpg	2	-1	1	0	antenna_03n.jpg	0	0	0	285.342616043403	285.392595709767	0.0499796663643792
126035	50	439	0	0	match	983	130	1	stimuli\match\match_10s.jpg	9	-1	1	0	match_10s.jpg	0	0	0	285.442617798864	285.492599903257	0.0499821043922566
126135	50	440	0	0	overalls	1090	131	1	stimuli\overalls\overalls_04s.jpg	3	-1	1	0	overalls_04s.jpg	0	0	0	285.542628087627	285.592585323495	0.0499572358676232
126235	50	441	0	0	penlight	1147	132	1	stimuli\penlight\penlight_07s.jpg	6	-1	1	0	penlight_07s.jpg	0	0	0	285.642609606846	285.692602682684	0.0499930758378468
126335	50	442	0	0	trough	1718	133	1	stimuli\trough\trough_11s.jpg	10	-1	1	0	trough_11s.jpg	0	0	0	285.742626722262	285.792609558091	0.0499828358297236
126435	50	443	0	0	doily	498	134	1	stimuli\doily\doily_11s.jpg	10	-1	1	0	doily_11s.jpg	0	0	0	285.842632378626	285.892607412592	0.0499750339658931
126535	50	444	0	0	swab	1590	135	1	stimuli\swab\swab_07s.jpg	6	-1	1	0	swab_07s.jpg	0	0	0	285.942621455994	285.992611849913	0.0499903939198703
126635	50	445	0	0	tripod	1714	136	1	stimuli\tripod\tripod_11s.jpg	10	-1	1	0	tripod_11s.jpg	0	0	0	286.042656857113	286.092614092981	0.0499572358676232
126735	50	446	0	0	turbine	1731	137	1	stimuli\turbine\turbine_09s.jpg	8	-1	1	0	turbine_09s.jpg	0	0	0	286.142620578292	286.192607802688	0.0499872243963182
126835	50	447	0	0	minivan	1003	138	1	stimuli\minivan\minivan_06s.jpg	5	-1	1	0	minivan_06s.jpg	0	0	0	286.24263891275	286.292619554268	0.0499806415173225
126935	50	448	0	0	eggbeater	548	139	1	stimuli\eggbeater\eggbeater_05s.jpg	4	-1	1	0	eggbeater_05s.jpg	0	0	0	286.342640911986	286.39262033446	0.04997942247428
127035	50	449	0	0	cherry	316	140	1	stimuli\cherry\cherry_11s.jpg	10	-1	1	0	cherry_11s.jpg	0	0	0	286.442642667389	286.49260868039	0.0499660130008124
127135	50	450	0	0	filing_cabinet	585	141	1	stimuli\filing_cabinet\filing_cabinet_06s.jpg	5	-1	1	0	filing_cabinet_06s.jpg	0	0	0	286.542631013319	286.592610192019	0.0499791787005961
127235	50	451	0	0	shell3	1419	142	1	stimuli\shell3\shell3_05s.jpg	4	-1	1	0	shell3_05s.jpg	0	0	0	286.642652761075	286.692618774076	0.0499660130008124
127335	50	452	0	0	mitten	1008	143	1	stimuli\mitten\mitten_11s.jpg	10	-1	1	0	mitten_11s.jpg	0	0	0	286.742651834618	286.792613946658	0.0499621120397933
127435	50	453	0	0	puck	1245	144	1	stimuli\puck\puck_02s.jpg	1	-1	1	0	puck_02s.jpg	0	0	0	286.842636035755	286.892618140206	0.0499821044504642
127535	50	454	0	0	marble	972	145	1	stimuli\marble\marble_01b.jpg	0	-1	1	0	marble_01b.jpg	0	0	0	286.942658271175	286.992636474664	0.0499782034894451
127635	50	455	0	0	straightjacket	1565	146	1	stimuli\straightjacket\straightjacket_05s.jpg	4	-1	1	0	straightjacket_05s.jpg	0	0	0	287.042658807535	287.092625064368	0.0499662568327039
127735	50	456	0	0	rocket	1320	147	1	stimuli\rocket\rocket_09s.jpg	8	-1	1	0	rocket_09s.jpg	0	0	0	287.142660075391	287.192649494042	0.0499894186505117
127835	50	457	0	0	powder	1236	148	1	stimuli\powder\powder_03s.jpg	2	-1	1	0	powder_03s.jpg	0	0	0	287.242666219361	287.292642716144	0.0499764967826195
127935	50	458	0	0	calf2	242	149	1	stimuli\calf2\calf2_05s.jpg	4	-1	1	0	calf2_05s.jpg	0	0	0	287.342648713849	287.392631062074	0.0499823482241482
128035	50	459	0	0	apron	33	150	1	stimuli\apron\apron_07s.jpg	6	-1	1	0	apron_07s.jpg	0	0	0	287.442688259704	287.492648177489	0.0499599177855998
128135	50	460	0	0	cane	258	151	1	stimuli\cane\cane_06n.jpg	5	-1	1	0	cane_06n.jpg	0	0	0	287.542672948504	287.592636035755	0.0499630872509442
128235	50	461	0	0	flipper	615	152	1	stimuli\flipper\flipper_04s.jpg	3	-1	1	0	flipper_04s.jpg	0	0	0	287.642672753427	287.692646812124	0.0499740586965345
128335	50	462	0	0	ferret	578	153	1	stimuli\ferret\ferret_11s.jpg	10	-1	1	0	ferret_11s.jpg	0	0	0	287.742679385061	287.792660514242	0.0499811291811056
128435	50	463	0	0	top_hat	1682	154	1	stimuli\top_hat\top_hat_12s.jpg	11	-1	1	0	top_hat_12s.jpg	0	0	0	287.842680165253	287.892648372508	0.0499682072550058
128535	50	464	0	0	goldfish	688	155	1	stimuli\goldfish\goldfish_01b.jpg	0	-1	1	0	goldfish_01b.jpg	0	0	0	287.942679970176	287.992658905103	0.0499789349269122
128635	50	465	0	0	soda	1490	156	1	stimuli\soda\soda_08s.jpg	7	-1	1	0	soda_08s.jpg	0	0	0	288.042661977059	288.092659929069	0.0499979520100169
128735	50	466	0	0	flamethrower	607	157	1	stimuli\flamethrower\flamethrower_07s.jpg	6	-1	1	0	flamethrower_07s.jpg	0	0	0	288.142679336306	288.192668754957	0.0499894186505117
128835	50	467	0	0	yacht	1844	158	1	stimuli\yacht\yacht_11s.jpg	10	-1	1	0	yacht_11s.jpg	0	0	0	288.242684992671	288.292666609457	0.0499816167866811
128935	50	468	0	0	bag	54	159	1	stimuli\bag\bag_12s.jpg	11	-1	1	0	bag_12s.jpg	0	0	0	288.342688698554	288.392666902044	0.0499782034894451
129035	50	469	0	0	lunchbox	950	160	1	stimuli\lunchbox\lunchbox_08s.jpg	7	-1	1	0	lunchbox_08s.jpg	0	0	0	288.442688503535	288.49267085176	0.0499823482241482
129135	50	470	0	0	streetlight	1571	161	1	stimuli\streetlight\streetlight_05s.jpg	4	-1	1	0	streetlight_05s.jpg	0	0	0	288.542692940857	288.592672607163	0.0499796663061716
129235	50	471	0	0	taillight	1617	162	1	stimuli\taillight\taillight_08s.jpg	7	-1	1	0	taillight_08s.jpg	0	0	0	288.642677141994	288.69265875878	0.0499816167866811
129335	50	472	0	0	poinsettia	1209	163	1	stimuli\poinsettia\poinsettia_04s.jpg	3	-1	1	0	poinsettia_04s.jpg	0	0	0	288.742695476452	288.792676118028	0.0499806415755302
129435	50	473	0	0	tile	1660	164	1	stimuli\tile\tile_08s.jpg	7	-1	1	0	tile_08s.jpg	0	0	0	288.842696500476	288.892664707731	0.0499682072550058
129535	50	474	0	0	bark	74	165	1	stimuli\bark\bark_09s.jpg	8	-1	1	0	bark_09s.jpg	0	0	0	288.942701913009	288.992665975529	0.0499640625203028
129635	50	475	0	0	air_mattress	5	166	1	stimuli\air_mattress\air_mattress_02s.jpg	1	-1	1	0	air_mattress_02s.jpg	0	0	0	289.04271195794	289.092684309988	0.0499723520479165
129735	50	476	0	0	drawer	516	167	1	stimuli\drawer\drawer_11s.jpg	10	-1	1	0	drawer_11s.jpg	0	0	0	289.142688357213	289.192690210184	0.050001852971036
129835	50	477	0	0	pear	1133	168	1	stimuli\pear\pear_10s.jpg	9	-1	1	0	pear_10s.jpg	0	0	0	289.242735948763	289.292696841818	0.0499608930549584
129935	50	478	0	0	windowsill	1819	169	1	stimuli\windowsill\windowsill_06s.jpg	5	-1	1	0	windowsill_06s.jpg	0	0	0	289.342700645211	289.392683237267	0.0499825920560397
130035	50	479	0	0	bun	220	170	1	stimuli\bun\bun_11s.jpg	10	-1	1	0	bun_11s.jpg	0	0	0	289.442727025365	289.492700352625	0.0499733272590674
130135	50	480	0	0	paperweight	1117	171	1	stimuli\paperweight\paperweight_05s.jpg	4	-1	1	0	paperweight_05s.jpg	0	0	0	289.542729024601	289.592701864254	0.049972839653492
130235	50	481	0	0	comic_book	391	172	1	stimuli\comic_book\comic_book_06s.jpg	5	-1	1	0	comic_book_06s.jpg	0	0	0	289.64272297814	289.692705082532	0.0499821043922566
130335	50	482	0	0	appetizer	29	173	1	stimuli\appetizer\appetizer_08s.jpg	7	-1	1	1	appetizer_08s.jpg	0	0	0	289.74272717163	289.792744872218	0.0500177005887963
130435	50	483	0	0	siren	1448	174	1	stimuli\siren\siren_06s.jpg	5	-1	1	0	siren_06s.jpg	0	0	0	289.842729658529	289.892710543878	0.0499808853492141
130535	50	484	0	0	kitten	875	175	1	stimuli\kitten\kitten_12s.jpg	11	-1	1	0	kitten_12s.jpg	0	0	0	289.942734583456	289.992710836465	0.0499762530089356
130635	50	485	0	0	pom-pom	1218	176	1	stimuli\pom-pom\pom-pom_06s.jpg	5	-1	1	0	pom-pom_06s.jpg	1	0.292167532083113	1	290.042755356	290.09271551756	0.0499601615592837
130735	50	486	0	0	pinball	1178	177	1	stimuli\pinball\pinball_09s.jpg	8	-1	1	0	pinball_09s.jpg	0	0	0	290.142736875277	290.19272093015	0.0499840548727661
130835	50	487	0	0	recliner	1294	178	1	stimuli\recliner\recliner_06s.jpg	5	-1	1	0	recliner_06s.jpg	0	0	0	290.242740581161	290.292723416991	0.0499828358297236
130935	50	488	0	0	rolling_pin	1328	179	1	stimuli\rolling_pin\rolling_pin_08s.jpg	7	-1	1	0	rolling_pin_08s.jpg	0	0	0	290.342742336565	290.392744920973	0.050002584408503
131035	50	489	0	0	measuring_cup	986	180	1	stimuli\measuring_cup\measuring_cup_03s.jpg	2	-1	1	0	measuring_cup_03s.jpg	0	0	0	290.442743848194	290.492722539289	0.0499786910950206
131135	50	490	0	0	honeycomb	789	181	1	stimuli\honeycomb\honeycomb_09s.jpg	8	-1	1	0	honeycomb_09s.jpg	0	0	0	290.542747554078	290.592718199478	0.0499706453992985
131235	50	491	0	0	marijuana	974	182	1	stimuli\marijuana\marijuana_04s.jpg	3	-1	1	0	marijuana_04s.jpg	0	0	0	290.64274930954	290.692742872983	0.0499935634434223
131335	50	492	0	0	hot-water_bottle	802	183	1	stimuli\hot-water_bottle\hot-water_bottle_02s.jpg	1	-1	1	0	hot-water_bottle_02s.jpg	0	0	0	290.742749114463	290.792736582691	0.0499874682282098
131435	50	493	0	0	turnstile	1734	184	1	stimuli\turnstile\turnstile_02s.jpg	1	-1	1	0	turnstile_02s.jpg	0	0	0	290.842738923267	290.89273419336	0.0499952700920403
131535	50	494	0	0	scraper	1387	185	1	stimuli\scraper\scraper_08s.jpg	7	-1	1	0	scraper_08s.jpg	0	0	0	290.942740922503	290.992780809698	0.050039887195453
131635	50	495	0	0	speedometer	1512	186	1	stimuli\speedometer\speedometer_07s.jpg	6	-1	1	0	speedometer_07s.jpg	0	0	0	291.042763401696	291.092738923267	0.0499755215714686
131735	50	496	0	0	vulture	1768	187	1	stimuli\vulture\vulture_04s.jpg	3	-1	1	0	vulture_04s.jpg	0	0	0	291.142760037153	291.192725806322	0.0499657691689208
131835	50	497	0	0	fly	621	188	1	stimuli\fly\fly_08s.jpg	7	-1	1	0	fly_08s.jpg	0	0	0	291.242765937292	291.292730487476	0.049964550184086
131935	50	498	0	0	walker1	1773	189	1	stimuli\walker1\walker1_02s.jpg	1	-1	1	0	walker1_02s.jpg	0	0	0	291.342750138487	291.392745896184	0.0499957576976158
132035	50	499	0	0	trigger	1713	190	1	stimuli\trigger\trigger_10s.jpg	9	-1	1	0	trigger_10s.jpg	0	0	0	291.442770911031	291.49275277165	0.0499818606185727
132135	50	500	0	0	pizza	1192	191	1	stimuli\pizza\pizza_05s.jpg	4	-1	1	0	pizza_05s.jpg	0	0	0	291.5427685217	291.59273819183	0.0499696701299399
132235	50	501	0	0	shopping_cart	1428	192	1	stimuli\shopping_cart\shopping_cart_12s.jpg	11	-1	1	0	shopping_cart_12s.jpg	0	0	0	291.642775884713	291.692753356765	0.0499774720519781
132335	50	502	0	0	rollerskate	1327	193	1	stimuli\rollerskate\rollerskate_01b.jpg	0	-1	1	0	rollerskate_01b.jpg	0	0	0	291.742777640175	291.792749016953	0.0499713767785579
132435	50	503	0	0	vent	1758	194	1	stimuli\vent\vent_01b.jpg	0	-1	1	0	vent_01b.jpg	0	0	0	291.842777201324	291.892742970493	0.0499657691689208
132535	50	504	0	0	fossil	636	195	1	stimuli\fossil\fossil_09s.jpg	8	-1	1	0	fossil_09s.jpg	0	0	0	291.942783101462	291.992767643998	0.0499845425365493
132635	50	505	0	0	cello	292	196	1	stimuli\cello\cello_03s.jpg	2	-1	1	0	cello_03s.jpg	0	0	0	292.042783881654	292.092772568925	0.0499886872712523
132735	50	506	0	0	chocolate	338	197	1	stimuli\chocolate\chocolate_03s.jpg	2	-1	1	0	chocolate_03s.jpg	0	0	0	292.142775640939	292.192770179594	0.0499945386545733
132835	50	507	0	0	mashed_potato	979	198	1	stimuli\mashed_potato\mashed_potato_11s.jpg	10	-1	1	0	mashed_potato_11s.jpg	0	0	0	292.242786661081	292.292770959786	0.0499842987046577
132935	50	508	0	0	uniform	1747	199	1	stimuli\uniform\uniform_10s.jpg	9	-1	1	0	uniform_10s.jpg	0	0	0	292.342775494617	292.392771739978	0.0499962453613989
133035	50	509	0	0	mop	1019	200	1	stimuli\mop\mop_09s.jpg	8	-1	1	0	mop_09s.jpg	0	0	0	292.442781882419	292.492765205912	0.0499833234935068
133135	50	510	0	0	glass	677	201	1	stimuli\glass\glass_01b.jpg	0	-1	1	0	glass_01b.jpg	0	0	0	292.542795096873	292.59277671366	0.0499816167866811
133235	50	511	0	0	pallet	1101	202	1	stimuli\pallet\pallet_11s.jpg	10	-1	1	0	pallet_11s.jpg	0	0	0	292.642797583772	292.692783589126	0.0499860053532757
133335	50	512	0	0	cheesecake	314	203	1	stimuli\cheesecake\cheesecake_12s.jpg	11	-1	1	0	cheesecake_12s.jpg	0	0	0	292.742804215348	292.792763157922	0.0499589425744489
133435	50	513	0	0	keyhole	871	204	1	stimuli\keyhole\keyhole_06s.jpg	5	-1	1	0	keyhole_06s.jpg	0	0	0	292.842787441274	292.892784174241	0.0499967329669744
133535	50	514	0	0	playing_card	1199	205	1	stimuli\playing_card\playing_card_02s.jpg	1	-1	1	0	playing_card_02s.jpg	0	0	0	292.942807726213	292.992791049648	0.0499833234352991
133635	50	515	0	0	pants	1108	206	1	stimuli\pants\pants_10s.jpg	9	-1	1	0	pants_10s.jpg	0	0	0	293.042808750237	293.09277208132	0.0499633310828358
133735	50	516	0	0	torso	1685	207	1	stimuli\torso\torso_02s.jpg	1	-1	1	0	torso_02s.jpg	0	0	0	293.142811480851	293.192791634821	0.0499801539699547
133835	50	517	0	0	blind	140	208	1	stimuli\blind\blind_06s.jpg	5	-1	1	0	blind_06s.jpg	0	0	0	293.242802264867	293.292772666435	0.049970401567407
133935	50	518	0	0	dalmatian	471	209	1	stimuli\dalmatian\dalmatian_11s.jpg	10	-1	1	0	dalmatian_11s.jpg	0	0	0	293.342794024153	293.392773934291	0.0499799101380631
134035	50	519	0	0	egg_roll	547	210	1	stimuli\egg_roll\egg_roll_09n.jpg	8	-1	1	0	egg_roll_09n.jpg	0	0	0	293.44279529195	293.492807872477	0.050012580526527
134135	50	520	0	0	bow1	174	211	1	stimuli\bow1\bow1_07s.jpg	6	-1	1	0	bow1_07s.jpg	0	0	0	293.542819234019	293.592786466063	0.0499672320438549
134235	50	521	0	0	bird	128	212	1	stimuli\bird\bird_09s.jpg	8	-1	1	0	bird_09s.jpg	0	0	0	293.642824890383	293.692789196735	0.0499643063521944
134335	50	522	0	0	badge	52	213	1	stimuli\badge\badge_06s.jpg	5	-1	1	0	badge_06s.jpg	0	0	0	293.742810310621	293.792786807404	0.0499764967826195
134435	50	523	0	0	go-kart	682	214	1	stimuli\go-kart\go-kart_01b.jpg	0	-1	1	0	go-kart_01b.jpg	0	0	0	293.842830351728	293.892793195206	0.0499628434772603
134535	50	524	0	0	scaffolding	1370	215	1	stimuli\scaffolding\scaffolding_02s.jpg	1	-1	1	0	scaffolding_02s.jpg	0	0	0	293.94283381378	293.992810554395	0.0499767406145111
134635	50	525	0	0	router	1336	216	1	stimuli\router\router_11s.jpg	10	-1	1	0	router_11s.jpg	0	0	0	294.042832887324	294.092798168887	0.0499652815633453
134735	50	526	0	0	ink	829	217	1	stimuli\ink\ink_10s.jpg	9	-1	1	0	ink_10s.jpg	0	0	0	294.142837324645	294.19280650717	0.0499691825243644
134835	50	527	0	0	metal_detector	996	218	1	stimuli\metal_detector\metal_detector_07s.jpg	6	-1	1	0	metal_detector_07s.jpg	0	0	0	294.242838104838	294.292820940667	0.0499828358297236
134935	50	528	0	0	bead	100	219	1	stimuli\bead\bead_05s.jpg	4	-1	1	0	bead_05s.jpg	0	0	0	294.342843761202	294.392824158946	0.0499803977436386
135035	50	529	0	0	candelabra	252	220	1	stimuli\candelabra\candelabra_07s.jpg	6	-1	1	0	candelabra_07s.jpg	0	0	0	294.442844785226	294.492823476263	0.049978691036813
135135	50	530	0	0	can	250	221	1	stimuli\can\can_04s.jpg	3	-1	1	0	can_04s.jpg	0	0	0	294.542828498757	294.592811090755	0.0499825919978321
135235	50	531	0	0	stained_glass	1531	222	1	stimuli\stained_glass\stained_glass_08s.jpg	7	-1	1	0	stained_glass_08s.jpg	0	0	0	294.642832448473	294.692836008093	0.050003559619654
135335	50	532	0	0	puppy	1258	223	1	stimuli\puppy\puppy_05s.jpg	4	-1	1	0	puppy_05s.jpg	0	0	0	294.742852733412	294.792814114015	0.0499613806023262
135435	50	533	0	0	bush	227	224	1	stimuli\bush\bush_04s.jpg	3	-1	1	0	bush_04s.jpg	0	0	0	294.842853025941	294.892817576125	0.049964550184086
135535	50	534	0	0	carousel	275	225	1	stimuli\carousel\carousel_03s.jpg	2	-1	1	0	carousel_03s.jpg	0	0	0	294.942849173793	294.99282981531	0.0499806415173225
135635	50	535	0	0	first-aid_kit	599	226	1	stimuli\first-aid_kit\first-aid_kit_04s.jpg	3	-1	1	0	first-aid_kit_04s.jpg	0	0	0	295.042851416802	295.092829132685	0.0499777158838697
135735	50	536	0	0	lanyard	896	227	1	stimuli\lanyard\lanyard_11s.jpg	10	-1	1	0	lanyard_11s.jpg	0	0	0	295.142852684658	295.192832594737	0.0499799100798555
135835	50	537	0	0	chaps	306	228	1	stimuli\chaps\chaps_10s.jpg	9	-1	1	0	chaps_10s.jpg	0	0	0	295.242857121979	295.292834593973	0.0499774719937705
135935	50	538	0	0	cocktail	374	229	1	stimuli\cocktail\cocktail_04s.jpg	3	-1	1	0	cocktail_04s.jpg	0	0	0	295.342855707859	295.392836105602	0.0499803977436386
136035	50	539	0	0	tree	1708	230	1	stimuli\tree\tree_12s.jpg	11	-1	1	0	tree_12s.jpg	0	0	0	295.442859657574	295.492841761967	0.0499821043922566
136135	50	540	0	0	coffee_filter	379	231	1	stimuli\coffee_filter\coffee_filter_03s.jpg	2	-1	1	0	coffee_filter_03s.jpg	0	0	0	295.542866289208	295.592846199288	0.0499799100798555
136235	50	541	0	0	ticktacktoe	1657	232	1	stimuli\ticktacktoe\ticktacktoe_04s.jpg	3	-1	1	0	ticktacktoe_04s.jpg	0	0	0	295.642862437002	295.692848442355	0.0499860053532757
136335	50	542	0	0	tortilla	1687	233	1	stimuli\tortilla\tortilla_10s.jpg	9	-1	1	0	tortilla_10s.jpg	0	0	0	295.742868093366	295.79285044159	0.0499823482241482
136435	50	543	0	0	blazer	137	234	1	stimuli\blazer\blazer_01b.jpg	0	-1	1	0	blazer_01b.jpg	0	0	0	295.842872530688	295.89284902747	0.0499764967826195
136535	50	544	0	0	radish	1274	235	1	stimuli\radish\radish_10s.jpg	9	-1	1	0	radish_10s.jpg	0	0	0	295.942875017528	295.992857121979	0.0499821044504642
136635	50	545	0	0	cream	436	236	1	stimuli\cream\cream_06s.jpg	5	-1	1	0	cream_06s.jpg	0	0	0	296.042874334904	296.092855464085	0.0499811291811056
136735	50	546	0	0	bathmat	89	237	1	stimuli\bathmat\bathmat_07s.jpg	6	-1	1	0	bathmat_07s.jpg	0	0	0	296.142880478874	296.192860876617	0.0499803977436386
136835	50	547	0	0	pedometer	1137	238	1	stimuli\pedometer\pedometer_09s.jpg	8	-1	1	0	pedometer_09s.jpg	0	0	0	296.242881259066	296.292861412978	0.049980153911747
136935	50	548	0	0	skull	1458	239	1	stimuli\skull\skull_06s.jpg	5	-1	1	0	skull_06s.jpg	0	0	0	296.34288228309	296.392861217959	0.0499789348687045
137035	50	549	0	0	helmet	776	240	1	stimuli\helmet\helmet_10s.jpg	9	-1	1	0	helmet_10s.jpg	0	0	0	296.442884282325	296.492868580972	0.04998429864645
137135	50	550	0	0	sparkler	1507	241	1	stimuli\sparkler\sparkler_08s.jpg	7	-1	1	0	sparkler_08s.jpg	0	0	0	296.542886525334	296.592866923078	0.0499803977436386
137235	50	551	0	0	faucet	573	242	1	stimuli\faucet\faucet_03s.jpg	2	-1	1	0	faucet_03s.jpg	0	0	0	296.642891937925	296.692871848063	0.0499799101380631
137335	50	552	0	0	bell_pepper	117	243	1	stimuli\bell_pepper\bell_pepper_05s.jpg	4	-1	1	0	bell_pepper_05s.jpg	0	0	0	296.742894668598	296.792873115861	0.0499784472631291
137435	50	553	0	0	piecrust	1169	244	1	stimuli\piecrust\piecrust_02s.jpg	1	-1	1	0	piecrust_02s.jpg	0	0	0	296.842894717352	296.892876334139	0.0499816167866811
137535	50	554	0	0	sawhorse	1367	245	1	stimuli\sawhorse\sawhorse_02s.jpg	1	-1	1	0	sawhorse_02s.jpg	0	0	0	296.942897204193	296.992883453378	0.0499862491851673
137635	50	555	0	0	seagull	1395	246	1	stimuli\seagull\seagull_12s.jpg	11	-1	1	0	seagull_12s.jpg	0	0	0	297.042904079601	297.092882526864	0.0499784472631291
137735	50	556	0	0	ice	816	247	1	stimuli\ice\ice_09s.jpg	8	-1	1	0	ice_09s.jpg	0	0	0	297.142903153144	297.192883794662	0.0499806415173225
137835	50	557	0	0	steak	1544	248	1	stimuli\steak\steak_06s.jpg	5	-1	1	0	steak_06s.jpg	0	0	0	297.24290710286	297.292887500604	0.0499803977436386
137935	50	558	0	0	stuffing	1575	249	1	stimuli\stuffing\stuffing_08s.jpg	7	-1	1	0	stuffing_08s.jpg	0	0	0	297.342906664009	297.392894619843	0.0499879558337852
138035	50	559	0	0	amplifier	20	250	1	stimuli\amplifier\amplifier_08s.jpg	7	-1	1	0	amplifier_08s.jpg	0	0	0	297.442913539417	297.492890280031	0.0499767406145111
138135	50	560	0	0	sink	1447	251	1	stimuli\sink\sink_01b.jpg	0	-1	1	0	sink_01b.jpg	0	0	0	297.542917976738	297.592892035434	0.0499740586965345
138235	50	561	0	0	bracelet1	187	252	1	stimuli\bracelet1\bracelet1_12s.jpg	11	-1	1	0	bracelet1_12s.jpg	0	0	0	297.642916318844	297.69289598515	0.0499796663061716
138335	50	562	0	0	frog	644	253	1	stimuli\frog\frog_02s.jpg	1	-1	1	0	frog_02s.jpg	0	0	0	297.742920512334	297.792887988209	0.0499674758757465
138435	50	563	0	0	poster	1229	254	1	stimuli\poster\poster_06s.jpg	5	-1	1	0	poster_06s.jpg	0	0	0	297.842919098272	297.892901446496	0.0499823482241482
138535	50	564	0	0	milkshake	1002	255	1	stimuli\milkshake\milkshake_01b.jpg	0	-1	1	0	milkshake_01b.jpg	0	0	0	297.942922804155	297.992901251419	0.0499784472631291
138635	50	565	0	0	skewer	1451	256	1	stimuli\skewer\skewer_03s.jpg	2	-1	1	0	skewer_03s.jpg	0	0	0	298.042911881523	298.092913734436	0.0500018529128283
138735	50	566	0	0	guitar	723	257	1	stimuli\guitar\guitar_11s.jpg	10	-1	1	0	guitar_11s.jpg	0	0	0	298.142928996938	298.192907931807	0.0499789348687045
138835	50	567	0	0	headphones	766	258	1	stimuli\headphones\headphones_09s.jpg	8	-1	1	0	headphones_09s.jpg	0	0	0	298.242928070424	298.292907980562	0.0499799101380631
138935	50	568	0	0	toilet	1670	259	1	stimuli\toilet\toilet_11n.jpg	10	-1	1	0	toilet_11n.jpg	0	0	0	298.342933239182	298.392912905489	0.0499796663061716
139035	50	569	0	0	cassette	283	260	1	stimuli\cassette\cassette_10s.jpg	9	-1	1	0	cassette_10s.jpg	0	0	0	298.44293548225	298.492913929513	0.0499784472631291
139135	50	570	0	0	thimble	1649	261	1	stimuli\thimble\thimble_03n.jpg	2	-1	1	0	thimble_03n.jpg	0	0	0	298.542939431965	298.592920073483	0.0499806415173225
139235	50	571	0	0	chariot	309	262	1	stimuli\chariot\chariot_05s.jpg	4	-1	1	0	chariot_05s.jpg	0	0	0	298.642941918806	298.692923047987	0.0499811291811056
139335	50	572	0	0	photograph	1164	263	1	stimuli\photograph\photograph_03s.jpg	2	-1	1	0	photograph_03s.jpg	0	0	0	298.742942698998	298.792927729082	0.0499850300839171
139435	50	573	0	0	muffin	1035	264	1	stimuli\muffin\muffin_04n.jpg	3	-1	1	0	muffin_04n.jpg	0	0	0	298.842947380152	298.892926071188	0.049978691036813
139535	50	574	0	0	firecracker	594	265	1	stimuli\firecracker\firecracker_05s.jpg	4	-1	1	0	firecracker_05s.jpg	0	0	0	298.942948647949	298.992927582818	0.0499789348687045
139635	50	575	0	0	pedal	1136	266	1	stimuli\pedal\pedal_02s.jpg	1	-1	1	0	pedal_02s.jpg	0	0	0	299.042956498568	299.092929582053	0.0499730834853835
139735	50	576	0	0	soda_fountain	1491	267	1	stimuli\soda_fountain\soda_fountain_02s.jpg	1	-1	1	0	soda_fountain_02s.jpg	0	0	0	299.142952158756	299.192934263207	0.0499821044504642
139835	50	577	0	0	radar	1271	268	1	stimuli\radar\radar_02s.jpg	1	-1	1	1	radar_02s.jpg	0	0	0	299.242952451343	299.292942113825	0.0499896624824032
139935	50	578	0	0	crumb	451	269	1	stimuli\crumb\crumb_04s.jpg	3	-1	1	0	crumb_04s.jpg	0	0	0	299.342958595371	299.392942894017	0.04998429864645
140035	50	579	0	0	earplug	539	270	1	stimuli\earplug\earplug_08s.jpg	7	-1	1	0	earplug_08s.jpg	0	0	0	299.442960106942	299.492939041869	0.0499789349269122
140135	50	580	0	0	tag	1616	271	1	stimuli\tag\tag_12s.jpg	11	-1	1	0	tag_12s.jpg	1	0.350162181886844	1	299.542962837615	299.592943722964	0.0499808853492141
140235	50	581	0	0	peach	1129	272	1	stimuli\peach\peach_04s.jpg	3	-1	1	0	peach_04s.jpg	0	0	0	299.642942894017	299.692932800332	0.0499899063142948
140335	50	582	0	0	detonator	482	273	1	stimuli\detonator\detonator_10s.jpg	9	-1	1	0	detonator_10s.jpg	0	0	0	299.742955133261	299.792932849086	0.049977715825662
140435	50	583	0	0	drill	520	274	1	stimuli\drill\drill_05s.jpg	4	-1	1	0	drill_05s.jpg	0	0	0	299.842982001021	299.89296020451	0.0499782034894451
140535	50	584	0	0	ferry	580	275	1	stimuli\ferry\ferry_11s.jpg	10	-1	1	0	ferry_11s.jpg	0	0	0	299.942964739341	299.992945868522	0.0499811291811056
140635	50	585	0	0	nightshirt	1058	276	1	stimuli\nightshirt\nightshirt_01b.jpg	0	-1	1	0	nightshirt_01b.jpg	0	0	0	300.042993313749	300.092963715317	0.049970401567407
140735	50	586	0	0	spring_roll	1521	277	1	stimuli\spring_roll\spring_roll_02s.jpg	1	-1	1	0	spring_roll_02s.jpg	0	0	0	300.142987267289	300.192954986996	0.049967719707638
140835	50	587	0	0	desk	480	278	1	stimuli\desk\desk_12s.jpg	11	-1	1	0	desk_12s.jpg	0	0	0	300.242977076094	300.292972590018	0.0499955139239319
140935	50	588	0	0	hawk	760	279	1	stimuli\hawk\hawk_08s.jpg	7	-1	1	0	hawk_08s.jpg	0	0	0	300.342995410552	300.392974101589	0.049978691036813
141035	50	589	0	0	tent	1643	280	1	stimuli\tent\tent_02s.jpg	1	-1	1	0	tent_02s.jpg	0	0	0	300.442996434518	300.492974394176	0.0499779596575536
141135	50	590	0	0	hopscotch	796	281	1	stimuli\hopscotch\hopscotch_09s.jpg	8	-1	1	0	hopscotch_09s.jpg	0	0	0	300.542999652796	300.592983707669	0.0499840548727661
141235	50	591	0	0	tattoo	1629	282	1	stimuli\tattoo\tattoo_03s.jpg	2	-1	1	0	tattoo_03s.jpg	0	0	0	300.64299872634	300.692981806002	0.0499830796616152
141335	50	592	0	0	car_door	268	283	1	stimuli\car_door\car_door_06s.jpg	5	-1	1	0	car_door_06s.jpg	0	0	0	300.743002676056	300.792984049011	0.0499813729547895
141435	50	593	0	0	arrow	38	284	1	stimuli\arrow\arrow_12s.jpg	11	-1	1	0	arrow_12s.jpg	0	0	0	300.843003943854	300.892987511121	0.0499835672671907
141535	50	594	0	0	gramophone	699	285	1	stimuli\gramophone\gramophone_05s.jpg	4	-1	1	0	gramophone_05s.jpg	0	0	0	300.943006186921	300.992986828438	0.0499806415173225
141635	50	595	0	0	tomato_sauce	1673	286	1	stimuli\tomato_sauce\tomato_sauce_11s.jpg	10	-1	1	0	tomato_sauce_11s.jpg	0	0	0	301.042992826144	301.092973467719	0.0499806415755302
141735	50	596	0	0	piglet	1173	287	1	stimuli\piglet\piglet_12s.jpg	11	-1	1	0	piglet_12s.jpg	0	0	0	301.143009210122	301.192991802178	0.0499825920560397
141835	50	597	0	0	sofa_bed	1492	288	1	stimuli\sofa_bed\sofa_bed_05s.jpg	4	-1	1	0	sofa_bed_05s.jpg	0	0	0	301.24301535415	301.292991607101	0.0499762529507279
141935	50	598	0	0	slicer	1463	289	1	stimuli\slicer\slicer_03s.jpg	2	-1	1	0	slicer_03s.jpg	0	0	0	301.34301589051	301.392997019691	0.0499811291811056
142035	50	599	0	0	candy	255	290	1	stimuli\candy\candy_09s.jpg	8	-1	1	0	candy_09s.jpg	0	0	0	301.443018133577	301.492999994138	0.049981860560365
142135	50	600	0	0	mulberry	1037	291	1	stimuli\mulberry\mulberry_08s.jpg	7	-1	1	0	mulberry_08s.jpg	0	0	0	301.543024033715	301.593002480979	0.0499784472631291
142235	50	601	0	0	trapdoor	1703	292	1	stimuli\trapdoor\trapdoor_04s.jpg	3	-1	1	0	trapdoor_04s.jpg	0	0	0	301.643007503473	301.692989364092	0.0499818606185727
142335	50	602	0	0	whipped_cream	1810	293	1	stimuli\whipped_cream\whipped_cream_08s.jpg	7	-1	1	0	whipped_cream_08s.jpg	0	0	0	301.743026081705	301.79300842993	0.0499823482241482
142435	50	603	0	0	dirt_bike	488	294	1	stimuli\dirt_bike\dirt_bike_07s.jpg	6	-1	1	0	dirt_bike_07s.jpg	0	0	0	301.843031981902	301.893008722516	0.0499767406145111
142535	50	604	0	0	horse	798	295	1	stimuli\horse\horse_03s.jpg	2	-1	1	0	horse_03s.jpg	0	0	0	301.943031786883	301.993013159838	0.0499813729547895
142635	50	605	0	0	typewriter	1741	296	1	stimuli\typewriter\typewriter_02s.jpg	1	-1	1	0	typewriter_02s.jpg	0	0	0	302.043035736599	302.093002724811	0.0499669882119633
142735	50	606	0	0	swing	1598	297	1	stimuli\swing\swing_05s.jpg	4	-1	1	0	swing_05s.jpg	0	0	0	302.143038711045	302.193018864957	0.049980153911747
142835	50	607	0	0	gate	662	298	1	stimuli\gate\gate_09s.jpg	8	-1	1	0	gate_09s.jpg	0	0	0	302.243037784589	302.293024521379	0.0499867367907427
142935	50	608	0	0	scalpel	1374	299	1	stimuli\scalpel\scalpel_06s.jpg	5	-1	1	0	scalpel_06s.jpg	0	0	0	302.343048073351	302.393021156779	0.0499730834271759
143035	50	609	0	0	ottoman	1086	300	1	stimuli\ottoman\ottoman_08s.jpg	7	-1	1	0	ottoman_08s.jpg	0	0	0	302.443044708751	302.493023643619	0.0499789348687045
143135	50	610	0	0	balloon	60	301	1	stimuli\balloon\balloon_11s.jpg	10	-1	1	0	balloon_11s.jpg	0	0	0	302.543049633678	302.593027349561	0.0499777158838697
143235	50	611	0	0	pantyhose	1110	302	1	stimuli\pantyhose\pantyhose_09s.jpg	8	-1	1	0	pantyhose_09s.jpg	0	0	0	302.643047975784	302.69303520018	0.0499872243963182
143335	50	612	0	0	home_plate	787	303	1	stimuli\home_plate\home_plate_08s.jpg	7	-1	1	0	home_plate_08s.jpg	0	0	0	302.743051194062	302.793039149896	0.0499879558337852
143435	50	613	0	0	bedpan	109	304	1	stimuli\bedpan\bedpan_02s.jpg	1	-1	1	0	bedpan_02s.jpg	0	0	0	302.843058313301	302.893037979607	0.0499796663061716
143535	50	614	0	0	charger	308	305	1	stimuli\charger\charger_01b.jpg	0	-1	1	0	charger_01b.jpg	0	0	0	302.943041295453	302.993037784589	0.0499964891350828
143635	50	615	0	0	wrapping_paper	1838	306	1	stimuli\wrapping_paper\wrapping_paper_01b.jpg	0	-1	1	0	wrapping_paper_01b.jpg	0	0	0	303.043061580334	303.093043440953	0.0499818606185727
143735	50	616	0	0	cuckoo_clock	456	307	1	stimuli\cuckoo_clock\cuckoo_clock_05s.jpg	4	-1	1	0	cuckoo_clock_05s.jpg	0	0	0	303.143061872921	303.193042514496	0.0499806415755302
143835	50	617	0	0	cake	237	308	1	stimuli\cake\cake_05s.jpg	4	-1	1	0	cake_05s.jpg	0	0	0	303.243047780765	303.293044757505	0.0499969767406583
173536	50	618	0	0	bottle_opener	171	0	2	stimuli\bottle_opener\bottle_opener_12s.jpg	11	-1	2	0	bottle_opener_12s.jpg	0	0	0	332.943798810593	332.993791154993	0.0499923444003798
173636	50	619	0	0	missile	1006	1	2	stimuli\missile\missile_01b.jpg	0	-1	2	0	missile_01b.jpg	0	0	0	333.04381129361	333.093792910397	0.0499816167866811
173736	50	620	0	0	crate	433	2	2	stimuli\crate\crate_05s.jpg	4	-1	2	0	crate_05s.jpg	0	0	0	333.143815243326	333.193780281115	0.0499650377896614
173836	50	621	0	0	caterpillar	286	3	2	stimuli\caterpillar\caterpillar_07s.jpg	6	-1	2	0	caterpillar_07s.jpg	0	0	0	333.243800419732	333.293800566054	0.050000146322418
173936	50	622	0	0	turtleneck	1737	4	2	stimuli\turtleneck\turtleneck_11s.jpg	10	-1	2	0	turtleneck_11s.jpg	0	0	0	333.34381972946	333.393800370977	0.0499806415173225
174036	50	623	0	0	gumball	725	5	2	stimuli\gumball\gumball_09s.jpg	8	-1	2	0	gumball_09s.jpg	0	0	0	333.443820509594	333.493801882607	0.0499813730129972
174136	50	624	0	0	dessert	481	6	2	stimuli\dessert\dessert_10s.jpg	9	-1	2	0	dessert_10s.jpg	0	0	0	333.543826166017	333.59380363801	0.0499774719937705
174236	50	625	0	0	fire_pit	593	7	2	stimuli\fire_pit\fire_pit_02s.jpg	1	-1	2	0	fire_pit_02s.jpg	0	0	0	333.643830115674	333.693807343952	0.0499772282782942
174336	50	626	0	0	sweeper	1594	8	2	stimuli\sweeper\sweeper_08s.jpg	7	-1	2	0	sweeper_08s.jpg	0	0	0	333.743831627304	333.793815438403	0.0499838110990822
174436	50	627	0	0	grill	714	9	2	stimuli\grill\grill_08s.jpg	7	-1	2	0	grill_08s.jpg	0	0	0	333.843835089414	333.893795982411	0.0499608929967508
174536	50	628	0	0	honeypot	790	10	2	stimuli\honeypot\honeypot_10s.jpg	9	-1	2	0	honeypot_10s.jpg	0	0	0	333.943835625774	333.993804320693	0.049968694918789
174636	50	629	0	0	hedgehog	774	11	2	stimuli\hedgehog\hedgehog_12s.jpg	11	-1	2	0	hedgehog_12s.jpg	0	0	0	334.043838356447	334.093819973234	0.0499816167866811
174736	50	630	0	0	shell1	1417	12	2	stimuli\shell1\shell1_04s.jpg	3	-1	2	0	shell1_04s.jpg	0	0	0	334.143824264291	334.193807343952	0.0499830796616152
174836	50	631	0	0	hair	733	13	2	stimuli\hair\hair_05s.jpg	4	-1	2	0	hair_05s.jpg	0	0	0	334.243839916831	334.293823484099	0.0499835672671907
174936	50	632	0	0	flagpole	606	14	2	stimuli\flagpole\flagpole_03s.jpg	2	-1	2	0	flagpole_03s.jpg	0	0	0	334.343845573196	334.393830115674	0.0499845424783416
175036	50	633	0	0	ladle	887	15	2	stimuli\ladle\ladle_08s.jpg	7	-1	2	0	ladle_08s.jpg	0	0	0	334.443847328657	334.493810172135	0.0499628434772603
175136	50	634	0	0	wick	1815	16	2	stimuli\wick\wick_05s.jpg	4	-1	2	0	wick_05s.jpg	0	0	0	334.543852009752	334.593816559936	0.049964550184086
175236	50	635	0	0	nightstand	1059	17	2	stimuli\nightstand\nightstand_11s.jpg	10	-1	2	0	nightstand_11s.jpg	0	0	0	334.643852302339	334.693836113438	0.0499838110990822
175336	50	636	0	0	sugar_cube	1579	18	2	stimuli\sugar_cube\sugar_cube_01b.jpg	0	-1	2	0	sugar_cube_01b.jpg	0	0	0	334.74385673966	334.793839331716	0.0499825920560397
175436	50	637	0	0	pole	1213	19	2	stimuli\pole\pole_12s.jpg	11	-1	2	0	pole_12s.jpg	0	0	0	334.843855569372	334.893819875724	0.0499643063521944
175536	50	638	0	0	pill	1174	20	2	stimuli\pill\pill_12s.jpg	11	-1	2	0	pill_12s.jpg	0	0	0	334.943846353388	334.993839185394	0.0499928320059553
175636	50	639	0	0	crepe	440	21	2	stimuli\crepe\crepe_08s.jpg	7	-1	2	0	crepe_08s.jpg	0	0	0	335.043865419284	335.093826556113	0.0499611368286423
175736	50	640	0	0	squirrel	1529	22	2	stimuli\squirrel\squirrel_07s.jpg	6	-1	2	0	squirrel_07s.jpg	0	0	0	335.143864492828	335.193846109614	0.0499816167866811
175836	50	641	0	0	hula_hoop	810	23	2	stimuli\hula_hoop\hula_hoop_03s.jpg	2	-1	2	0	hula_hoop_03s.jpg	0	0	0	335.243866248231	335.293852009752	0.0499857615213841
175936	50	642	0	0	tackle	1612	24	2	stimuli\tackle\tackle_03s.jpg	2	-1	2	0	tackle_03s.jpg	0	0	0	335.343853618891	335.393850108085	0.0499964891932905
176036	50	643	0	0	breathalyzer	198	25	2	stimuli\breathalyzer\breathalyzer_04s.jpg	3	-1	2	0	breathalyzer_04s.jpg	0	0	0	335.443870734307	335.493851375883	0.0499806415755302
176136	50	644	0	0	shaker	1408	26	2	stimuli\shaker\shaker_11s.jpg	10	-1	2	0	shaker_11s.jpg	0	0	0	335.54387346498	335.593838990375	0.0499655253952369
176236	50	645	0	0	toe	1668	27	2	stimuli\toe\toe_07s.jpg	6	-1	2	0	toe_07s.jpg	0	0	0	335.643877170864	335.693860738131	0.0499835672671907
176336	50	646	0	0	coffee_table	381	28	2	stimuli\coffee_table\coffee_table_04s.jpg	3	-1	2	0	coffee_table_04s.jpg	0	0	0	335.743863810145	335.793858836405	0.0499950262601487
176436	50	647	0	0	cornhusk	414	29	2	stimuli\cornhusk\cornhusk_12s.jpg	11	-1	2	0	cornhusk_12s.jpg	0	0	0	335.843881900772	335.893862298515	0.0499803977436386
176536	50	648	0	0	staple_gun	1538	30	2	stimuli\staple_gun\staple_gun_08s.jpg	7	-1	2	0	staple_gun_08s.jpg	0	0	0	335.943883900007	335.993865516793	0.0499816167866811
176636	50	649	0	0	baseball_glove	80	31	2	stimuli\baseball_glove\baseball_glove_04s.jpg	3	-1	2	0	baseball_glove_04s.jpg	0	0	0	336.043888337328	336.09385264368	0.0499643063521944
176736	50	650	0	0	sewing_kit	1406	32	2	stimuli\sewing_kit\sewing_kit_04s.jpg	3	-1	2	0	sewing_kit_04s.jpg	0	0	0	336.143875708047	336.193872928619	0.0499972205725498
176836	50	651	0	0	vest	1759	33	2	stimuli\vest\vest_02s.jpg	1	-1	2	0	vest_02s.jpg	0	0	0	336.24387551297	336.293876634503	0.0500011215335689
176936	50	652	0	0	grenade	713	34	2	stimuli\grenade\grenade_02s.jpg	1	-1	2	0	grenade_02s.jpg	0	0	0	336.343897748389	336.393860104261	0.0499623558716848
177036	50	653	0	0	aardvark	0	35	2	stimuli\aardvark\aardvark_02s.jpg	1	-1	2	0	aardvark_02s.jpg	0	0	0	336.443896821875	336.493876975845	0.0499801539699547
177136	50	654	0	0	kite	874	36	2	stimuli\kite\kite_01b.jpg	0	-1	2	0	kite_01b.jpg	0	0	0	336.54390174686	336.593879462685	0.049977715825662
