onset	duration	eventnumber	blocksequencenumber	isteststim	object	objectnumber	presentationnumber	sequencenumber	stim	stimnumber	teststimnumber	withinsequencenumber	istarget	stimname	response	rt	correct	time_stimon	time_stimoff	stimdur
163141	50	0	0	0	snowball	1480	0	0	stimuli\snowball\snowball_03s.jpg	2	-1	0	0	snowball_03s.jpg	0	0	0	148.61806715682	148.668051504255	0.0499843474353838
163241	50	1	0	0	sewage	1405	1	0	stimuli\sewage\sewage_11s.jpg	10	-1	0	0	sewage_11s.jpg	0	0	0	148.718072666914	148.768048968637	0.0499763017232908
163341	50	2	0	0	tack	1611	2	0	stimuli\tack\tack_04s.jpg	3	-1	0	0	tack_04s.jpg	0	0	0	148.818067937011	148.868053259683	0.0499853226720006
163441	50	3	0	0	straw2	1569	3	0	stimuli\straw2\straw2_12s.jpg	11	-1	0	0	straw2_12s.jpg	0	0	0	148.918074909961	148.968044872638	0.0499699626761867
163541	50	4	0	0	weed	1802	4	0	stimuli\weed\weed_10s.jpg	9	-1	0	0	weed_10s.jpg	0	0	0	149.018070911487	149.0680469694	0.0499760579132271
163641	50	5	0	0	chariot	309	5	0	stimuli\chariot\chariot_07s.jpg	6	-1	0	0	chariot_07s.jpg	0	0	0	149.118064718727	149.168754406855	0.0506896881288412
163741	50	6	0	0	dumpling	532	6	0	stimuli\dumpling\dumpling_06s.jpg	5	-1	0	0	dumpling_06s.jpg	0	0	0	149.218086320243	149.268059940061	0.0499736198180472
163841	50	7	0	0	scone	1380	7	0	stimuli\scone\scone_05s.jpg	4	-1	0	0	scone_05s.jpg	0	0	0	149.31808110272	149.36806301206	0.0499819093402039
163941	50	8	0	0	reindeer	1301	8	0	stimuli\reindeer\reindeer_05s.jpg	4	-1	0	0	reindeer_05s.jpg	0	0	0	149.418078323293	149.468047066923	0.0499687436295062
164041	50	9	0	0	tweezers	1739	9	0	stimuli\tweezers\tweezers_01b.jpg	0	-1	0	0	tweezers_01b.jpg	0	0	0	149.51810797052	149.56808987986	0.0499819093402039
164141	50	10	0	0	bubble	207	10	0	stimuli\bubble\bubble_06n.jpg	5	-1	0	1	bubble_06n.jpg	0	0	0	149.618112992994	149.668077835673	0.049964842679401
164241	50	11	0	0	watch	1786	11	0	stimuli\watch\watch_07s.jpg	6	-1	0	0	watch_07s.jpg	0	0	0	149.718114358328	149.768081395292	0.0499670369645173
164341	50	12	0	0	gem	670	12	0	stimuli\gem\gem_02s.jpg	1	-1	0	0	gem_02s.jpg	0	0	0	149.81811621128	149.868101290142	0.0499850788619369
164441	50	13	0	0	piglet	1173	13	0	stimuli\piglet\piglet_03s.jpg	2	-1	0	0	piglet_03s.jpg	0	0	0	149.91811830804	149.96810021738	0.0499819093402039
164541	50	14	0	0	cigarette_holder	346	14	0	stimuli\cigarette_holder\cigarette_holder_08s.jpg	7	-1	0	0	cigarette_holder_08s.jpg	0	0	0	150.018106020045	150.068102070332	0.0499960502875183
164641	50	15	0	0	bagel	55	15	0	stimuli\bagel\bagel_07s.jpg	6	-1	0	0	bagel_07s.jpg	0	0	0	150.118102996807	150.168083199482	0.049980202675215
164741	50	16	0	0	jeans	842	16	0	stimuli\jeans\jeans_02s.jpg	1	-1	0	0	jeans_02s.jpg	0	0	0	150.218107287854	150.268087246717	0.0499799588633323
164841	50	17	0	0	ironing_board	833	17	0	stimuli\ironing_board\ironing_board_09s.jpg	8	-1	0	0	ironing_board_09s.jpg	1	0.741905526771006	1	150.318106702711	150.368095438715	0.0499887360037974
164941	50	18	0	0	board_game	153	18	0	stimuli\board_game\board_game_07s.jpg	6	-1	0	0	board_game_07s.jpg	0	0	0	150.41811416328	150.468094853572	0.0499806902917044
165041	50	19	0	0	buffet	211	19	0	stimuli\buffet\buffet_10s.jpg	9	-1	0	0	buffet_10s.jpg	0	0	0	150.518115040994	150.568099876047	0.0499848350536922
165141	50	20	0	0	candy_bar	256	20	0	stimuli\candy_bar\candy_bar_01b.jpg	0	-1	0	0	candy_bar_01b.jpg	0	0	0	150.618116162517	150.668095146144	0.0499789836267155
165241	50	21	0	0	gallows	653	21	0	stimuli\gallows\gallows_03s.jpg	2	-1	0	0	gallows_03s.jpg	0	0	0	150.718115821184	150.768100900046	0.0499850788619369
165341	50	22	0	0	maple_syrup	971	22	0	stimuli\maple_syrup\maple_syrup_03s.jpg	2	-1	0	0	maple_syrup_03s.jpg	0	0	0	150.818122306515	150.86810226538	0.0499799588651513
165441	50	23	0	0	pita	1189	23	0	stimuli\pita\pita_09s.jpg	8	-1	0	0	pita_09s.jpg	0	0	0	150.918130498512	150.968107287854	0.0499767893415992
165541	50	24	0	0	lettuce	920	24	0	stimuli\lettuce\lettuce_06n.jpg	5	-1	0	0	lettuce_06n.jpg	0	0	0	151.018129669559	151.068110603661	0.0499809341017681
165641	50	25	0	0	jeep	843	25	0	stimuli\jeep\jeep_09s.jpg	8	-1	0	0	jeep_09s.jpg	0	0	0	151.1181363987	151.168108555663	0.049972156963122
165741	50	26	0	0	coyote	427	26	0	stimuli\coyote\coyote_05s.jpg	4	-1	0	0	coyote_05s.jpg	0	0	0	151.218132887843	151.268110896233	0.0499780083900987
165841	50	27	0	0	cork	409	27	0	stimuli\cork\cork_12s.jpg	11	-1	0	0	cork_12s.jpg	0	0	0	151.318140104604	151.368115918707	0.0499758141031634
165941	50	28	0	0	funnel	649	28	0	stimuli\funnel\funnel_08s.jpg	7	-1	0	0	funnel_08s.jpg	0	0	0	151.418139519461	151.468120697373	0.0499811779118318
166041	50	29	0	0	raisin	1280	29	0	stimuli\raisin\raisin_04s.jpg	3	-1	0	0	raisin_04s.jpg	0	0	0	151.518141372413	151.568123281753	0.0499819093402039
166141	50	30	0	0	seagull	1395	30	0	stimuli\seagull\seagull_06s.jpg	5	-1	0	0	seagull_06s.jpg	0	0	0	151.618146151077	151.668124647085	0.0499784960084071
166241	50	31	0	0	gold	687	31	0	stimuli\gold\gold_01b.jpg	0	-1	0	0	gold_01b.jpg	0	0	0	151.718142396412	151.768124305752	0.0499819093402039
166341	50	32	0	0	ginger	673	32	0	stimuli\ginger\ginger_05s.jpg	4	-1	0	0	ginger_05s.jpg	0	0	0	151.818145956029	151.868129572036	0.0499836160070117
166441	50	33	0	0	kitten	875	33	0	stimuli\kitten\kitten_05s.jpg	4	-1	0	0	kitten_05s.jpg	0	0	0	151.918150247076	151.968133619272	0.049983372195129
166541	50	34	0	0	bracket	189	34	0	stimuli\bracket\bracket_09s.jpg	8	-1	0	0	bracket_09s.jpg	0	0	0	152.018156488597	152.068162291262	0.0500058026646002
166641	50	35	0	0	rat	1285	35	0	stimuli\rat\rat_11s.jpg	10	-1	0	0	rat_11s.jpg	0	0	0	152.118160048216	152.168140250889	0.049980202673396
166741	50	36	0	0	noisemaker	1060	36	0	stimuli\noisemaker\noisemaker_11s.jpg	10	-1	0	0	noisemaker_11s.jpg	1	0	0	152.218156049741	152.268137959079	0.0499819093383849
166841	50	37	0	0	thimble	1649	37	0	stimuli\thimble\thimble_03n.jpg	2	-1	0	0	thimble_03n.jpg	0	0	0	152.318164729357	152.368142493935	0.049977764578216
166941	50	38	0	0	tuba	1723	38	0	stimuli\tuba\tuba_08s.jpg	7	-1	0	0	tuba_08s.jpg	0	0	0	152.418163656595	152.468142152602	0.0499784960065881
167041	50	39	0	0	mistletoe	1007	39	0	stimuli\mistletoe\mistletoe_07s.jpg	6	-1	0	0	mistletoe_07s.jpg	0	0	0	152.518165021927	152.568145956029	0.0499809341017681
167141	50	40	0	0	ink	829	40	0	stimuli\ink\ink_06s.jpg	5	-1	0	0	ink_06s.jpg	0	0	0	152.618171507258	152.668151709933	0.049980202675215
167241	50	41	0	0	bookmark	166	41	0	stimuli\bookmark\bookmark_07s.jpg	6	-1	0	0	bookmark_07s.jpg	0	0	0	152.718167752593	152.768152831455	0.0499850788619369
167341	50	42	0	0	couch	422	42	0	stimuli\couch\couch_01b.jpg	0	-1	0	0	couch_01b.jpg	0	0	0	152.818173994116	152.868152733932	0.0499787398166518
167441	50	43	0	0	wreck	1840	43	0	stimuli\wreck\wreck_10s.jpg	9	-1	0	0	wreck_10s.jpg	0	0	0	152.918180723254	152.968157268788	0.0499765455333545
167541	50	44	0	0	dogfood	496	44	0	stimuli\dogfood\dogfood_08s.jpg	7	-1	0	0	dogfood_08s.jpg	0	0	0	153.018178431446	153.068158390312	0.0499799588651513
167641	50	45	0	0	barbed_wire	71	45	0	stimuli\barbed_wire\barbed_wire_11s.jpg	10	-1	0	0	barbed_wire_11s.jpg	0	0	0	153.11817930916	153.168160243262	0.0499809341017681
167741	50	46	0	0	cornbread	413	46	0	stimuli\cornbread\cornbread_07s.jpg	6	-1	0	0	cornbread_07s.jpg	0	0	0	153.218183844016	153.268167216213	0.049983372196948
167841	50	47	0	0	brass_knuckles	193	47	0	stimuli\brass_knuckles\brass_knuckles_03s.jpg	2	-1	0	0	brass_knuckles_03s.jpg	0	0	0	153.318192523631	153.368167362498	0.0499748388665466
167941	50	48	0	0	bottle_opener	171	48	0	stimuli\bottle_opener\bottle_opener_12s.jpg	11	-1	0	0	bottle_opener_12s.jpg	0	0	0	153.418193401345	153.468169946878	0.0499765455333545
168041	50	49	0	0	comb	389	49	0	stimuli\comb\comb_03s.jpg	2	-1	0	0	comb_03s.jpg	0	0	0	153.518192328584	153.568170580782	0.0499782521983434
168141	50	50	0	0	dresser	519	50	0	stimuli\dresser\dresser_11s.jpg	10	-1	0	0	dresser_11s.jpg	0	0	0	153.618217831052	153.668204372771	0.0499865417186811
168241	50	51	0	0	shield	1420	51	0	stimuli\shield\shield_09s.jpg	8	-1	0	0	shield_09s.jpg	0	0	0	153.718217733527	153.768197204772	0.0499794712450239
168341	50	52	0	0	straightjacket	1565	52	0	stimuli\straightjacket\straightjacket_07s.jpg	6	-1	0	0	straightjacket_07s.jpg	0	0	0	153.818212759816	153.868180040588	0.049967280772762
168441	50	53	0	0	ferry	580	53	0	stimuli\ferry\ferry_04s.jpg	3	-1	0	0	ferry_04s.jpg	0	0	0	153.918207542292	153.968190670681	0.0499831283887033
168541	50	54	0	0	foam	624	54	0	stimuli\foam\foam_11s.jpg	10	-1	0	0	foam_11s.jpg	0	0	0	154.018206957151	154.068170093164	0.0499631360125932
168641	50	55	0	0	sheath	1413	55	0	stimuli\sheath\sheath_01b.jpg	0	-1	0	0	sheath_01b.jpg	0	0	0	154.118212223435	154.168186087063	0.0499738636281108
168741	50	56	0	0	duck	525	56	0	stimuli\duck\duck_03s.jpg	2	-1	0	0	duck_03s.jpg	0	0	0	154.218206762103	154.268195741917	0.0499889798138611
168841	50	57	0	0	chipmunk	334	57	0	stimuli\chipmunk\chipmunk_10s.jpg	9	-1	0	0	chipmunk_10s.jpg	0	0	0	154.318233727427	154.368215149147	0.0499814217200765
168941	50	58	0	0	railing	1277	58	0	stimuli\railing\railing_06s.jpg	5	-1	0	0	railing_06s.jpg	0	0	0	154.418239725139	154.468217489717	0.049977764578216
169041	50	59	0	0	calf1	241	59	0	stimuli\calf1\calf1_02s.jpg	1	-1	0	0	calf1_02s.jpg	0	0	0	154.518237189521	154.568203982675	0.0499667931544536
169141	50	60	0	0	backdrop	47	60	0	stimuli\backdrop\backdrop_01b.jpg	0	-1	0	0	backdrop_01b.jpg	0	0	0	154.618223438669	154.668202422296	0.0499789836267155
169241	50	61	0	0	egg_roll	547	61	0	stimuli\egg_roll\egg_roll_04s.jpg	3	-1	0	0	egg_roll_04s.jpg	0	0	0	154.718218952574	154.768201837152	0.0499828845786396
169341	50	62	0	0	silverware	1445	62	0	stimuli\silverware\silverware_07s.jpg	6	-1	0	0	silverware_07s.jpg	0	0	0	154.818227388381	154.868205152961	0.049977764580035
169441	50	63	0	0	deodorant	479	63	0	stimuli\deodorant\deodorant_08s.jpg	7	-1	0	0	deodorant_08s.jpg	0	0	0	154.91823046038	154.968208956388	0.0499784960084071
169541	50	64	0	0	vest	1759	64	0	stimuli\vest\vest_10s.jpg	9	-1	0	0	vest_10s.jpg	0	0	0	155.018232069522	155.068211540767	0.0499794712450239
169641	50	65	0	0	trunk	1722	65	0	stimuli\trunk\trunk_08s.jpg	7	-1	0	0	trunk_08s.jpg	0	0	0	155.118236604378	155.168216075623	0.0499794712450239
169741	50	66	0	0	crucifix	449	66	0	stimuli\crucifix\crucifix_07s.jpg	6	-1	0	1	crucifix_07s.jpg	0	0	0	155.218240651615	155.268202080963	0.0499614293476043
169841	50	67	0	0	pillbox	1175	67	0	stimuli\pillbox\pillbox_08s.jpg	7	-1	0	0	pillbox_08s.jpg	0	0	0	155.318225925525	155.368207347245	0.0499814217200765
169941	50	68	0	0	dice	486	68	0	stimuli\dice\dice_12s.jpg	11	-1	0	0	dice_12s.jpg	0	0	0	155.418231923237	155.468209444007	0.0499775207699713
170041	50	69	0	0	beet	114	69	0	stimuli\beet\beet_01b.jpg	0	-1	0	0	beet_01b.jpg	0	0	0	155.518234995236	155.568212272196	0.0499772769599076
170141	50	70	0	0	antelope	26	70	0	stimuli\antelope\antelope_05n.jpg	4	-1	0	0	antelope_05n.jpg	1	0.392202584183906	1	155.618237335806	155.668215100386	0.049977764580035
170241	50	71	0	0	tee	1636	71	0	stimuli\tee\tee_08s.jpg	7	-1	0	0	tee_08s.jpg	0	0	0	155.718237238281	155.768217928575	0.0499806902935234
170341	50	72	0	0	rocket	1320	72	0	stimuli\rocket\rocket_01b.jpg	0	-1	0	0	rocket_01b.jpg	0	0	0	155.818243479804	155.868223194859	0.0499797150550876
170441	50	73	0	0	quilt	1264	73	0	stimuli\quilt\quilt_11s.jpg	10	-1	0	0	quilt_11s.jpg	0	0	0	155.918244113709	155.968225779239	0.0499816655301402
170541	50	74	0	0	flipper	615	74	0	stimuli\flipper\flipper_06s.jpg	5	-1	0	0	flipper_06s.jpg	0	0	0	156.018247429516	156.068232752188	0.0499853226720006
170641	50	75	0	0	fast_food	572	75	0	stimuli\fast_food\fast_food_03s.jpg	2	-1	0	0	fast_food_03s.jpg	0	0	0	156.118245381518	156.168227047048	0.0499816655301402
170741	50	76	0	0	cash_register	280	76	0	stimuli\cash_register\cash_register_02s.jpg	1	-1	0	0	cash_register_02s.jpg	0	0	0	156.21824699066	156.268229875237	0.0499828845768207
170841	50	77	0	0	shirt	1422	77	0	stimuli\shirt\shirt_09s.jpg	8	-1	0	0	shirt_09s.jpg	0	0	0	156.318252988372	156.368234653903	0.0499816655301402
170941	50	78	0	0	roller	1324	78	0	stimuli\roller\roller_08s.jpg	7	-1	0	0	roller_08s.jpg	0	0	0	156.418253866086	156.46823406876	0.049980202673396
171041	50	79	0	0	windsock	1822	79	0	stimuli\windsock\windsock_08s.jpg	7	-1	0	0	windsock_08s.jpg	0	0	0	156.518256206657	156.56823616552	0.0499799588633323
171141	50	80	0	0	possum	1228	80	0	stimuli\possum\possum_09s.jpg	8	-1	0	0	possum_09s.jpg	0	0	0	156.618260497702	156.668246307992	0.049985810290309
171241	50	81	0	0	snake	1477	81	0	stimuli\snake\snake_08s.jpg	7	-1	0	0	snake_08s.jpg	0	0	0	156.718265520176	156.768244747613	0.0499792274367792
171341	50	82	0	0	lens	916	82	0	stimuli\lens\lens_06s.jpg	5	-1	0	0	lens_06s.jpg	0	0	0	156.818268104556	156.868249282468	0.0499811779118318
171441	50	83	0	0	cheeseburger	313	83	0	stimuli\cheeseburger\cheeseburger_07s.jpg	6	-1	0	0	cheeseburger_07s.jpg	0	0	0	156.918267763223	156.96824699066	0.0499792274367792
171541	50	84	0	0	rhubarb	1307	84	0	stimuli\rhubarb\rhubarb_01b.jpg	0	-1	0	0	rhubarb_01b.jpg	0	0	0	157.018274979982	157.068257133133	0.0499821531502675
171641	50	85	0	0	espresso	560	85	0	stimuli\espresso\espresso_07s.jpg	6	-1	0	0	espresso_07s.jpg	0	0	0	157.118276345316	157.168257767036	0.0499814217200765
171741	50	86	0	0	peeler	1138	86	0	stimuli\peeler\peeler_01b.jpg	0	-1	0	0	peeler_01b.jpg	0	0	0	157.218274784935	157.268277905696	0.0500031207611755
171841	50	87	0	0	tray	1705	87	0	stimuli\tray\tray_06s.jpg	5	-1	0	0	tray_06s.jpg	0	0	0	157.318278344554	157.368260010084	0.0499816655301402
171941	50	88	0	0	ladder	886	88	0	stimuli\ladder\ladder_06s.jpg	5	-1	0	0	ladder_06s.jpg	0	0	0	157.418280928932	157.468259912559	0.0499789836267155
172041	50	89	0	0	chest2	320	89	0	stimuli\chest2\chest2_11s.jpg	10	-1	0	0	chest2_11s.jpg	0	0	0	157.518282050456	157.568263715986	0.0499816655301402
172141	50	90	0	0	chive	337	90	0	stimuli\chive\chive_09s.jpg	8	-1	0	0	chive_09s.jpg	0	0	0	157.618289754835	157.66826922608	0.0499794712450239
172241	50	91	0	0	insole	831	91	0	stimuli\insole\insole_04s.jpg	3	-1	0	0	insole_04s.jpg	0	0	0	157.718290632549	157.768269128555	0.0499784960065881
172341	50	92	0	0	sink	1447	92	0	stimuli\sink\sink_06s.jpg	5	-1	0	0	sink_06s.jpg	0	0	0	157.818289559787	157.868270006271	0.0499804464834597
172441	50	93	0	0	camera2	247	93	0	stimuli\camera2\camera2_02s.jpg	1	-1	0	0	camera2_02s.jpg	0	0	0	157.918294338451	157.968277466838	0.0499831283868843
172541	50	94	0	0	shears	1412	94	0	stimuli\shears\shears_03s.jpg	2	-1	0	0	shears_03s.jpg	0	0	0	158.018299604735	158.068284195979	0.0499845912436285
172641	50	95	0	0	wood	1833	95	0	stimuli\wood\wood_06s.jpg	5	-1	0	0	wood_06s.jpg	0	0	0	158.118301945306	158.168281660361	0.0499797150550876
172741	50	96	0	0	swimming_pool	1596	96	0	stimuli\swimming_pool\swimming_pool_02s.jpg	1	-1	0	0	swimming_pool_02s.jpg	0	0	0	158.218303066829	158.268284732359	0.0499816655301402
172841	50	97	0	0	pistachio	1188	97	0	stimuli\pistachio\pistachio_05s.jpg	4	-1	0	0	pistachio_05s.jpg	0	0	0	158.31830126264	158.368285610073	0.0499843474335648
172941	50	98	0	0	knee	877	98	0	stimuli\knee\knee_10s.jpg	9	-1	0	0	knee_10s.jpg	0	0	0	158.418306528923	158.468288438264	0.0499819093402039
173041	50	99	0	0	grasshopper	706	99	0	stimuli\grasshopper\grasshopper_07s.jpg	6	-1	0	1	grasshopper_07s.jpg	0	0	0	158.518308869494	158.568294679784	0.049985810290309
173141	50	100	0	0	cufflink	458	100	0	stimuli\cufflink\cufflink_12s.jpg	11	-1	0	0	cufflink_12s.jpg	0	0	0	158.618312672921	158.668293363215	0.0499806902935234
173241	50	101	0	0	cake_mix	238	101	0	stimuli\cake_mix\cake_mix_11s.jpg	10	-1	0	0	cake_mix_11s.jpg	0	0	0	158.718313794445	158.768294484737	0.0499806902917044
173341	50	102	0	0	prune	1244	102	0	stimuli\prune\prune_04s.jpg	3	-1	0	0	prune_04s.jpg	1	0.292142704587604	1	158.818317354062	158.868298288164	0.0499809341017681
173441	50	103	0	0	beard	106	103	0	stimuli\beard\beard_05s.jpg	4	-1	0	0	beard_05s.jpg	0	0	0	158.918322620346	158.968300384926	0.049977764580035
173541	50	104	0	0	nose	1063	104	0	stimuli\nose\nose_10s.jpg	9	-1	0	0	nose_10s.jpg	0	0	0	159.018320572346	159.068304919781	0.0499843474353838
173641	50	105	0	0	confetti	396	105	0	stimuli\confetti\confetti_07s.jpg	6	-1	0	0	confetti_07s.jpg	0	0	0	159.118328276725	159.168301896545	0.0499736198198661
173741	50	106	0	0	lampshade	893	106	0	stimuli\lampshade\lampshade_04s.jpg	3	-1	0	0	lampshade_04s.jpg	0	0	0	159.218325984917	159.268305456162	0.0499794712450239
173841	50	107	0	0	clay	352	107	0	stimuli\clay\clay_01b.jpg	0	-1	0	0	clay_01b.jpg	0	0	0	159.318330275963	159.368309015779	0.0499787398166518
173941	50	108	0	0	unicycle	1746	108	0	stimuli\unicycle\unicycle_02s.jpg	1	-1	0	0	unicycle_02s.jpg	0	0	0	159.418331397486	159.468313063016	0.0499816655301402
174041	50	109	0	0	trowel	1719	109	0	stimuli\trowel\trowel_11s.jpg	10	-1	0	0	trowel_11s.jpg	0	0	0	159.518335444722	159.56831808549	0.0499826407685759
174141	50	110	0	0	book	165	110	0	stimuli\book\book_10s.jpg	9	-1	0	0	book_10s.jpg	0	0	0	159.618338029102	159.668316768919	0.0499787398166518
174241	50	111	0	0	cactus	235	111	0	stimuli\cactus\cactus_09n.jpg	8	-1	0	0	cactus_09n.jpg	0	0	0	159.718340125864	159.768321059966	0.0499809341017681
174341	50	112	0	0	syrup	1605	112	0	stimuli\syrup\syrup_09s.jpg	8	-1	0	0	syrup_09s.jpg	0	0	0	159.81834831786	159.868323400537	0.0499750826766103
174441	50	113	0	0	fishbowl	601	113	0	stimuli\fishbowl\fishbowl_05s.jpg	4	-1	0	0	fishbowl_05s.jpg	0	0	0	159.918343831767	159.968323546822	0.0499797150550876
174541	50	114	0	0	air_conditioner	4	114	0	stimuli\air_conditioner\air_conditioner_11s.jpg	10	-1	0	0	air_conditioner_11s.jpg	0	0	0	160.018351048526	160.068330275963	0.0499792274367792
174641	50	115	0	0	tie	1658	115	0	stimuli\tie\tie_10s.jpg	9	-1	0	0	tie_10s.jpg	0	0	0	160.118351682431	160.168328959391	0.0499772769599076
174741	50	116	0	0	rose	1334	116	0	stimuli\rose\rose_04s.jpg	3	-1	0	0	rose_04s.jpg	0	0	0	160.218351584906	160.268337395199	0.049985810292128
174841	50	117	0	0	teddy_bear	1635	117	0	stimuli\teddy_bear\teddy_bear_01b.jpg	0	-1	0	0	teddy_bear_01b.jpg	0	0	0	160.318356607382	160.368343149101	0.0499865417186811
174941	50	118	0	0	fruit	645	118	0	stimuli\fruit\fruit_02s.jpg	1	-1	0	0	fruit_02s.jpg	0	0	0	160.418357972714	160.468337931579	0.0499799588651513
175041	50	119	0	0	scarecrow	1376	119	0	stimuli\scarecrow\scarecrow_11s.jpg	10	-1	0	0	scarecrow_11s.jpg	0	0	0	160.518363726616	160.568342222625	0.0499784960084071
175141	50	120	0	0	soldering_iron	1494	120	0	stimuli\soldering_iron\soldering_iron_10s.jpg	9	-1	0	0	soldering_iron_10s.jpg	0	0	0	160.618373625281	160.668351146051	0.0499775207699713
175241	50	121	0	0	iceskate	823	121	0	stimuli\iceskate\iceskate_01b.jpg	0	-1	0	0	iceskate_01b.jpg	0	0	0	160.718371089662	160.768349341861	0.0499782521983434
175341	50	122	0	0	lipstick	936	122	0	stimuli\lipstick\lipstick_04s.jpg	3	-1	0	0	lipstick_04s.jpg	0	0	0	160.818370992138	160.86835241386	0.0499814217218955
175441	50	123	0	0	ottoman	1086	123	0	stimuli\ottoman\ottoman_03s.jpg	2	-1	0	0	ottoman_03s.jpg	0	0	0	160.918370163186	160.968352072527	0.0499819093402039
175541	50	124	0	0	stereo	1549	124	0	stimuli\stereo\stereo_07s.jpg	6	-1	0	0	stereo_07s.jpg	0	0	0	161.018377623755	161.068358801665	0.0499811779100128
175641	50	125	0	0	stopwatch	1562	125	0	stimuli\stopwatch\stopwatch_06s.jpg	5	-1	0	0	stopwatch_06s.jpg	0	0	0	161.118376307184	161.168356753667	0.0499804464834597
175741	50	126	0	0	snowshoe	1485	126	0	stimuli\snowshoe\snowshoe_12s.jpg	11	-1	0	0	snowshoe_12s.jpg	0	0	0	161.218381573468	161.268361288523	0.0499797150550876
175841	50	127	0	0	bee	111	127	0	stimuli\bee\bee_10s.jpg	9	-1	0	0	bee_10s.jpg	0	0	0	161.318384889275	161.368359971952	0.0499750826766103
175941	50	128	0	0	tricycle	1711	128	0	stimuli\tricycle\tricycle_09s.jpg	8	-1	0	0	tricycle_09s.jpg	0	0	0	161.418384060324	161.468362556332	0.0499784960084071
176041	50	129	0	0	saw	1366	129	0	stimuli\saw\saw_10s.jpg	9	-1	0	0	saw_10s.jpg	0	0	0	161.518390058036	161.568373430233	0.049983372196948
176141	50	130	0	0	chisel	336	130	0	stimuli\chisel\chisel_10s.jpg	9	-1	0	0	chisel_10s.jpg	0	0	0	161.618391910988	161.668367968901	0.0499760579132271
176241	50	131	0	0	calculator	240	131	0	stimuli\calculator\calculator_06s.jpg	5	-1	0	0	calculator_06s.jpg	0	0	0	161.718390838227	161.768371528518	0.0499806902917044
176341	50	132	0	0	lingerie	932	132	0	stimuli\lingerie\lingerie_04s.jpg	3	-1	0	0	lingerie_04s.jpg	0	0	0	161.81839561689	161.868380695754	0.0499850788637559
176441	50	133	0	0	pen	1141	133	0	stimuli\pen\pen_08s.jpg	7	-1	0	0	pen_08s.jpg	0	0	0	161.918400395556	161.968378160136	0.049977764580035
176541	50	134	0	0	goalpost	683	134	0	stimuli\goalpost\goalpost_11s.jpg	10	-1	0	0	goalpost_11s.jpg	0	0	0	162.018406393268	162.068390740702	0.0499843474335648
176641	50	135	0	0	anteater	25	135	0	stimuli\anteater\anteater_04s.jpg	3	-1	0	0	anteater_04s.jpg	0	0	0	162.118411171932	162.168386986037	0.0499758141049824
176741	50	136	0	0	blueberry	149	136	0	stimuli\blueberry\blueberry_05s.jpg	4	-1	0	0	blueberry_05s.jpg	0	0	0	162.218408880124	162.268392739939	0.0499838598152564
176841	50	137	0	0	wrist	1842	137	0	stimuli\wrist\wrist_06s.jpg	5	-1	0	0	wrist_06s.jpg	0	0	0	162.318418047358	162.368392886225	0.0499748388665466
176941	50	138	0	0	squirt_gun	1530	138	0	stimuli\squirt_gun\squirt_gun_07s.jpg	6	-1	0	0	squirt_gun_07s.jpg	0	0	0	162.418414048883	162.468392301083	0.0499782522001624
177041	50	139	0	0	bunkbed	222	139	0	stimuli\bunkbed\bunkbed_04s.jpg	3	-1	0	0	bunkbed_04s.jpg	0	0	0	162.518410538029	162.568393178797	0.0499826407685759
177141	50	140	0	0	brake	191	140	0	stimuli\brake\brake_01b.jpg	0	-1	0	0	brake_01b.jpg	0	0	0	162.618414097646	162.668395275557	0.0499811779118318
177241	50	141	0	0	glue	681	141	0	stimuli\glue\glue_04s.jpg	3	-1	0	0	glue_04s.jpg	0	0	0	162.718415950598	162.768397859938	0.0499819093402039
177341	50	142	0	0	duckling	526	142	0	stimuli\duckling\duckling_09s.jpg	8	-1	0	0	duckling_09s.jpg	0	0	0	162.818426580689	162.868407027172	0.0499804464834597
177441	50	143	0	0	roadsweeper	1316	143	0	stimuli\roadsweeper\roadsweeper_01b.jpg	0	-1	0	0	roadsweeper_01b.jpg	0	0	0	162.918423069834	162.96840180965	0.0499787398166518
177541	50	144	0	0	bow2	175	144	0	stimuli\bow2\bow2_09s.jpg	8	-1	0	0	bow2_09s.jpg	0	0	0	163.018427117069	163.068404881649	0.049977764580035
177641	50	145	0	0	sandpaper	1356	145	0	stimuli\sandpaper\sandpaper_09s.jpg	8	-1	0	0	sandpaper_09s.jpg	0	0	0	163.118426044308	163.168408928886	0.0499828845786396
177741	50	146	0	0	swing_set	1599	146	0	stimuli\swing_set\swing_set_01b.jpg	0	-1	0	0	swing_set_01b.jpg	0	0	0	163.218428628688	163.268412244694	0.0499836160051927
177841	50	147	0	0	float	616	147	0	stimuli\float\float_08s.jpg	7	-1	0	0	float_08s.jpg	0	0	0	163.318432675926	163.368412878599	0.049980202673396
177941	50	148	0	0	sardine	1359	148	0	stimuli\sardine\sardine_07s.jpg	6	-1	0	0	sardine_07s.jpg	0	0	0	163.418436235543	163.468414731551	0.0499784960084071
178041	50	149	0	0	bathrobe	90	149	0	stimuli\bathrobe\bathrobe_03s.jpg	2	-1	0	1	bathrobe_03s.jpg	0	0	0	163.518436625638	163.568419022597	0.0499823969585123
178141	50	150	0	0	taco	1613	150	0	stimuli\taco\taco_06n.jpg	5	-1	0	0	taco_06n.jpg	0	0	0	163.618438966208	163.66842428888	0.0499853226720006
178241	50	151	0	0	wrapping_paper	1838	151	0	stimuli\wrapping_paper\wrapping_paper_03s.jpg	2	-1	0	0	wrapping_paper_03s.jpg	0	0	0	163.718442282017	163.768422972309	0.0499806902917044
178341	50	152	0	0	container	398	152	0	stimuli\container\container_03s.jpg	2	-1	0	0	container_03s.jpg	1	0.292145630301093	1	163.818445841634	163.868430676688	0.0499848350536922
178441	50	153	0	0	water_bottle	1787	153	0	stimuli\water_bottle\water_bottle_06s.jpg	5	-1	0	0	water_bottle_06s.jpg	0	0	0	163.918449157443	163.968435455352	0.0499862979086174
178541	50	154	0	0	napkin	1050	154	0	stimuli\napkin\napkin_12s.jpg	11	-1	0	0	napkin_12s.jpg	0	0	0	164.018457349439	164.068438039732	0.0499806902935234
178641	50	155	0	0	mulberry	1037	155	0	stimuli\mulberry\mulberry_04s.jpg	3	-1	0	0	mulberry_04s.jpg	0	0	0	164.118458227154	164.168432822211	0.0499745950564829
178741	50	156	0	0	shower_curtain	1435	156	0	stimuli\shower_curtain\shower_curtain_04s.jpg	3	-1	0	0	shower_curtain_04s.jpg	0	0	0	164.218457154393	164.268436381828	0.0499792274349602
178841	50	157	0	0	ant	24	157	0	stimuli\ant\ant_10s.jpg	9	-1	0	0	ant_10s.jpg	0	0	0	164.3184604702	164.368446036682	0.0499855664820643
178941	50	158	0	0	violin	1764	158	0	stimuli\violin\violin_02s.jpg	1	-1	0	0	violin_02s.jpg	0	0	0	164.418464517437	164.468444963921	0.0499804464834597
179041	50	159	0	0	backgammon	48	159	0	stimuli\backgammon\backgammon_11s.jpg	10	-1	0	0	backgammon_11s.jpg	0	0	0	164.518470027529	164.568449254966	0.0499792274367792
179141	50	160	0	0	sausage	1365	160	0	stimuli\sausage\sausage_02s.jpg	1	-1	0	0	sausage_02s.jpg	0	0	0	164.618466516675	164.668448182205	0.0499816655301402
179241	50	161	0	0	spur	1525	161	0	stimuli\spur\spur_04s.jpg	3	-1	0	0	spur_04s.jpg	0	0	0	164.718467882007	164.768447840872	0.0499799588651513
179341	50	162	0	0	orange_rind	1079	162	0	stimuli\orange_rind\orange_rind_11s.jpg	10	-1	0	0	orange_rind_11s.jpg	0	0	0	164.818473148291	164.868455057631	0.0499819093402039
179441	50	163	0	0	carriage	276	163	0	stimuli\carriage\carriage_02s.jpg	1	-1	0	0	carriage_02s.jpg	0	0	0	164.918473538386	164.968455203916	0.0499816655301402
179541	50	164	0	0	frame	639	164	0	stimuli\frame\frame_03s.jpg	2	-1	0	0	frame_03s.jpg	0	0	0	165.018493677046	165.068459251153	0.0499655741077731
179641	50	165	0	0	cane	258	165	0	stimuli\cane\cane_07s.jpg	6	-1	0	0	cane_07s.jpg	0	0	0	165.118482364287	165.168461347914	0.0499789836267155
179741	50	166	0	0	jump_rope	858	166	0	stimuli\jump_rope\jump_rope_07s.jpg	6	-1	0	0	jump_rope_07s.jpg	0	0	0	165.218479828669	165.268475391338	0.0499955626692099
179841	50	167	0	0	extinguisher	563	167	0	stimuli\extinguisher\extinguisher_03s.jpg	2	-1	0	0	extinguisher_03s.jpg	0	0	0	165.318484119716	165.36846407858	0.0499799588633323
179941	50	168	0	0	buoy	223	168	0	stimuli\buoy\buoy_10s.jpg	9	-1	0	0	buoy_10s.jpg	0	0	0	165.41848914219	165.468465687722	0.0499765455315355
180041	50	169	0	0	hook2	794	169	0	stimuli\hook2\hook2_10s.jpg	9	-1	0	0	hook2_10s.jpg	0	0	0	165.518495383712	165.568470954006	0.0499755702930997
180141	50	170	0	0	brooch	202	170	0	stimuli\brooch\brooch_04s.jpg	3	-1	0	0	brooch_04s.jpg	0	0	0	165.618492848094	165.668470612673	0.049977764578216
180241	50	171	0	0	crow	446	171	0	stimuli\crow\crow_06s.jpg	5	-1	0	0	crow_06s.jpg	0	0	0	165.718493725808	165.768488313239	0.0499945874307741
180341	50	172	0	0	dishwasher	491	172	0	stimuli\dishwasher\dishwasher_09s.jpg	8	-1	0	0	dishwasher_09s.jpg	0	0	0	165.818501673995	165.868493091903	0.0499914179072221
180441	50	173	0	0	coop	404	173	0	stimuli\coop\coop_05s.jpg	4	-1	0	0	coop_05s.jpg	0	0	0	165.918514498371	165.968493238188	0.0499787398166518
180541	50	174	0	0	curling_iron	463	174	0	stimuli\curling_iron\curling_iron_09s.jpg	8	-1	0	1	curling_iron_09s.jpg	0	0	0	166.018512450371	166.068498504472	0.0499860541003727
180641	50	175	0	0	brick	199	175	0	stimuli\brick\brick_04s.jpg	3	-1	0	0	brick_04s.jpg	0	0	0	166.118518204275	166.168501088852	0.0499828845768207
180741	50	176	0	0	floss	617	176	0	stimuli\floss\floss_07s.jpg	6	-1	0	0	floss_07s.jpg	0	0	0	166.218522251511	166.268520739894	0.0499984883826983
180841	50	177	0	0	vent	1758	177	0	stimuli\vent\vent_10s.jpg	9	-1	0	0	vent_10s.jpg	0	0	0	166.318523129225	166.368504307136	0.0499811779118318
180941	50	178	0	0	pedal	1136	178	0	stimuli\pedal\pedal_12s.jpg	11	-1	0	0	pedal_12s.jpg	0	0	0	166.418527420272	166.468502746757	0.049975326484855
181041	50	179	0	0	horse	798	179	0	stimuli\horse\horse_10s.jpg	9	-1	0	0	horse_10s.jpg	1	0.50021650277813	1	166.518553897977	166.568509475897	0.0499555779206275
181141	50	180	0	0	catapult	285	180	0	stimuli\catapult\catapult_08s.jpg	7	-1	0	0	catapult_08s.jpg	0	0	0	166.618521373797	166.668500113614	0.0499787398166518
181241	50	181	0	0	rollerskate	1327	181	0	stimuli\rollerskate\rollerskate_08s.jpg	7	-1	0	0	rollerskate_08s.jpg	0	0	0	166.718522007703	166.768502454184	0.0499804464816407
181341	50	182	0	0	boot	169	182	0	stimuli\boot\boot_01b.jpg	0	-1	0	0	boot_01b.jpg	0	0	0	166.818525079701	166.86850284428	0.049977764578216
181441	50	183	0	0	leotard	918	183	0	stimuli\leotard\leotard_09s.jpg	8	-1	0	0	leotard_09s.jpg	0	0	0	166.918525225987	166.968506647707	0.0499814217200765
181541	50	184	0	0	microphone	998	184	0	stimuli\microphone\microphone_03s.jpg	2	-1	0	0	microphone_03s.jpg	0	0	0	167.018537318934	167.068526298748	0.0499889798138611
181641	50	185	0	0	air_pump	6	185	0	stimuli\air_pump\air_pump_07s.jpg	6	-1	0	0	air_pump_07s.jpg	0	0	0	167.118549899502	167.168526688843	0.0499767893415992
181741	50	186	0	0	clover	366	186	0	stimuli\clover\clover_01b.jpg	0	-1	0	0	clover_01b.jpg	0	0	0	167.21854395055	167.2685261037	0.0499821531502675
181841	50	187	0	0	coleslaw	386	187	0	stimuli\coleslaw\coleslaw_01b.jpg	0	-1	0	0	coleslaw_01b.jpg	0	0	0	167.318553849214	167.368529175699	0.049975326484855
181941	50	188	0	0	red_carpet	1298	188	0	stimuli\red_carpet\red_carpet_10s.jpg	9	-1	0	0	red_carpet_10s.jpg	0	0	0	167.41855423931	167.468533222936	0.0499789836267155
182041	50	189	0	0	fountain_pen	637	189	0	stimuli\fountain_pen\fountain_pen_06s.jpg	5	-1	0	0	fountain_pen_06s.jpg	0	0	0	167.51855657988	167.568535563507	0.0499789836267155
182141	50	190	0	0	whiteboard	1813	190	0	stimuli\whiteboard\whiteboard_05s.jpg	4	-1	0	0	whiteboard_05s.jpg	0	0	0	167.618563796639	167.668543511694	0.0499797150550876
182241	50	191	0	0	bread	194	191	0	stimuli\bread\bread_04s.jpg	3	-1	0	0	bread_04s.jpg	0	0	0	167.718558822926	167.768542682741	0.0499838598152564
182341	50	192	0	0	flamethrower	607	192	0	stimuli\flamethrower\flamethrower_07s.jpg	6	-1	0	0	flamethrower_07s.jpg	0	0	0	167.818565308258	167.868536489983	0.0499711817246862
182441	50	193	0	0	cougar	423	193	0	stimuli\cougar\cougar_08s.jpg	7	-1	0	0	cougar_08s.jpg	0	0	0	167.918551801215	167.968531028651	0.0499792274367792
182541	50	194	0	0	handcuff	746	194	0	stimuli\handcuff\handcuff_12s.jpg	11	-1	0	0	handcuff_12s.jpg	0	0	0	168.018555360832	168.068535807315	0.0499804464834597
182641	50	195	0	0	raft	1275	195	0	stimuli\raft\raft_02s.jpg	1	-1	0	0	raft_02s.jpg	0	0	0	168.118559408069	168.168538391696	0.0499789836267155
182741	50	196	0	0	flashbulb	610	196	0	stimuli\flashbulb\flashbulb_05s.jpg	4	-1	0	0	flashbulb_05s.jpg	0	0	0	168.218558822926	168.26855609226	0.0499972693341988
182841	50	197	0	0	cement_mixer	294	197	0	stimuli\cement_mixer\cement_mixer_06s.jpg	5	-1	0	0	cement_mixer_06s.jpg	0	0	0	168.318575304444	168.368558920451	0.0499836160070117
182941	50	198	0	0	scrabble	1385	198	0	stimuli\scrabble\scrabble_10s.jpg	9	-1	0	0	scrabble_10s.jpg	0	0	0	168.418577888824	168.468560529593	0.0499826407685759
183041	50	199	0	0	tumbleweed	1727	199	0	stimuli\tumbleweed\tumbleweed_03s.jpg	2	-1	0	0	tumbleweed_03s.jpg	0	0	0	168.518582911298	168.568562138735	0.0499792274367792
183141	50	200	0	0	torch	1683	200	0	stimuli\torch\torch_10s.jpg	9	-1	0	0	torch_10s.jpg	0	0	0	168.618583301393	168.668559846927	0.0499765455333545
183241	50	201	0	0	aircraft_carrier	9	201	0	stimuli\aircraft_carrier\aircraft_carrier_08s.jpg	7	-1	0	0	aircraft_carrier_08s.jpg	0	0	0	168.71858271625	168.768571208446	0.0499884921955527
183341	50	202	0	0	eye_patch	565	202	0	stimuli\eye_patch\eye_patch_10s.jpg	9	-1	0	0	eye_patch_10s.jpg	0	0	0	168.818590176819	168.86857232997	0.0499821531502675
183441	50	203	0	0	binder	126	203	0	stimuli\binder\binder_03s.jpg	2	-1	0	0	binder_03s.jpg	0	0	0	168.918587397393	168.968573451493	0.0499860541003727
183541	50	204	0	0	hook1	793	204	0	stimuli\hook1\hook1_05s.jpg	4	-1	0	0	hook1_05s.jpg	0	0	0	169.018589250343	169.068577498729	0.049988248385489
183641	50	205	0	0	headlamp	764	205	0	stimuli\headlamp\headlamp_02s.jpg	1	-1	0	0	headlamp_02s.jpg	0	0	0	169.118597686151	169.168577645014	0.0499799588633323
183741	50	206	0	0	spark_plug	1506	206	0	stimuli\spark_plug\spark_plug_10s.jpg	9	-1	0	0	spark_plug_10s.jpg	0	0	0	169.218601733386	169.268584374155	0.0499826407685759
183841	50	207	0	0	ferret	578	207	0	stimuli\ferret\ferret_08s.jpg	7	-1	0	0	ferret_08s.jpg	0	0	0	169.318605049195	169.36858476425	0.0499797150550876
183941	50	208	0	0	hula_hoop	810	208	0	stimuli\hula_hoop\hula_hoop_12s.jpg	11	-1	0	0	hula_hoop_12s.jpg	0	0	0	169.418604220244	169.468586617202	0.0499823969585123
184041	50	209	0	0	loveseat	947	209	0	stimuli\loveseat\loveseat_11s.jpg	10	-1	0	0	loveseat_11s.jpg	0	0	0	169.518608511289	169.568592371104	0.0499838598152564
184141	50	210	0	0	broom	203	210	0	stimuli\broom\broom_03s.jpg	2	-1	0	0	broom_03s.jpg	0	0	0	169.618612558526	169.668594467867	0.0499819093402039
184241	50	211	0	0	blanket	136	211	0	stimuli\blanket\blanket_01b.jpg	0	-1	0	0	blanket_01b.jpg	0	0	0	169.718610022908	169.768592663677	0.0499826407685759
184341	50	212	0	0	pinecone	1183	212	0	stimuli\pinecone\pinecone_01b.jpg	0	-1	0	0	pinecone_01b.jpg	0	0	0	169.818613094907	169.868582813775	0.049969718867942
184441	50	213	0	0	makeup	961	213	0	stimuli\makeup\makeup_07s.jpg	6	-1	0	0	makeup_07s.jpg	0	0	0	169.918603001195	169.968586129584	0.0499831283887033
184541	50	214	0	0	crank	432	214	0	stimuli\crank\crank_02s.jpg	1	-1	0	0	crank_02s.jpg	0	0	0	170.018603635101	170.068588226344	0.0499845912436285
184641	50	215	0	0	amplifier	20	215	0	stimuli\amplifier\amplifier_05s.jpg	4	-1	0	0	amplifier_05s.jpg	0	0	0	170.11864571661	170.168624212616	0.0499784960065881
184741	50	216	0	0	trailer	1697	216	0	stimuli\trailer\trailer_09s.jpg	8	-1	0	0	trailer_09s.jpg	0	0	0	170.218645619085	170.268626553187	0.0499809341017681
184841	50	217	0	0	souffle	1498	217	0	stimuli\souffle\souffle_11s.jpg	10	-1	0	0	souffle_11s.jpg	0	0	0	170.318628942519	170.368605975671	0.0499770331516629
184941	50	218	0	0	origami	1083	218	0	stimuli\origami\origami_02s.jpg	1	-1	0	0	origami_02s.jpg	0	0	0	170.418628844996	170.46860880386	0.0499799588633323
185041	50	219	0	0	block	143	219	0	stimuli\block\block_10s.jpg	9	-1	0	0	block_10s.jpg	0	0	0	170.518635817945	170.568615289192	0.0499794712468429
185141	50	220	0	0	staple_gun	1538	220	0	stimuli\staple_gun\staple_gun_10s.jpg	9	-1	0	0	staple_gun_10s.jpg	0	0	0	170.618633526137	170.668617629763	0.0499841036253201
185241	50	221	0	0	parking_meter	1120	221	0	stimuli\parking_meter\parking_meter_11s.jpg	10	-1	0	0	parking_meter_11s.jpg	0	0	0	170.718638548611	170.768622164618	0.0499836160070117
185341	50	222	0	0	radish	1274	222	0	stimuli\radish\radish_05s.jpg	4	-1	0	0	radish_05s.jpg	0	0	0	170.818639426325	170.868621091857	0.0499816655319592
185441	50	223	0	0	graffiti	697	223	0	stimuli\graffiti\graffiti_03s.jpg	2	-1	0	0	graffiti_03s.jpg	0	0	0	170.918642985944	170.968628552424	0.0499855664802453
185541	50	224	0	0	slicer	1463	224	0	stimuli\slicer\slicer_05s.jpg	4	-1	0	0	slicer_05s.jpg	0	0	0	171.018648252228	171.068627479663	0.0499792274349602
185641	50	225	0	0	apple_tree	31	225	0	stimuli\apple_tree\apple_tree_10s.jpg	9	-1	0	0	apple_tree_10s.jpg	0	0	0	171.118644009943	171.16862738214	0.049983372196948
185741	50	226	0	0	toaster_oven	1667	226	0	stimuli\toaster_oven\toaster_oven_04s.jpg	3	-1	0	0	toaster_oven_04s.jpg	0	0	0	171.21864805718	171.268636793184	0.0499887360037974
185841	50	227	0	0	eyepiece	568	227	0	stimuli\eyepiece\eyepiece_08s.jpg	7	-1	0	0	eyepiece_08s.jpg	0	0	0	171.318656005367	171.368634013756	0.0499780083882797
185941	50	228	0	0	fishhook	602	228	0	stimuli\fishhook\fishhook_11s.jpg	10	-1	0	0	fishhook_11s.jpg	0	0	0	171.418654201178	171.468635379089	0.0499811779118318
186041	50	229	0	0	puddle	1247	229	0	stimuli\puddle\puddle_05s.jpg	4	-1	0	0	puddle_05s.jpg	0	0	0	171.518667756982	171.568640157753	0.0499724007713667
186141	50	230	0	0	brownie	204	230	0	stimuli\brownie\brownie_11s.jpg	10	-1	0	0	brownie_11s.jpg	0	0	0	171.618661076604	171.668645667847	0.0499845912436285
186241	50	231	0	0	yacht	1844	231	0	stimuli\yacht\yacht_10s.jpg	9	-1	0	0	yacht_10s.jpg	0	0	0	171.718663660984	171.768645570322	0.0499819093383849
186341	50	232	0	0	basketball_hoop	84	232	0	stimuli\basketball_hoop\basketball_hoop_01b.jpg	0	-1	0	0	basketball_hoop_01b.jpg	0	0	0	171.818666245363	171.868642547086	0.0499763017232908
186441	50	233	0	0	telephone_pole	1639	233	0	stimuli\telephone_pole\telephone_pole_04s.jpg	3	-1	0	0	telephone_pole_04s.jpg	0	0	0	171.918668829743	171.968650007655	0.0499811779118318
186541	50	234	0	0	stamp1	1535	234	0	stimuli\stamp1\stamp1_09s.jpg	8	-1	0	0	stamp1_09s.jpg	0	0	0	172.018674096027	172.068654054892	0.0499799588651513
186641	50	235	0	0	tile	1660	235	0	stimuli\tile\tile_08s.jpg	7	-1	0	0	tile_08s.jpg	0	0	0	172.118673023266	172.168652006892	0.0499789836267155
186741	50	236	0	0	raccoon	1266	236	0	stimuli\raccoon\raccoon_09s.jpg	8	-1	0	0	raccoon_09s.jpg	0	0	0	172.218674876218	172.268661905555	0.0499870293369895
186841	50	237	0	0	videogame	1762	237	0	stimuli\videogame\videogame_05s.jpg	4	-1	0	0	videogame_05s.jpg	0	0	0	172.318681605359	172.368661076604	0.0499794712450239
186941	50	238	0	0	shaving_cream	1410	238	0	stimuli\shaving_cream\shaving_cream_02s.jpg	1	-1	0	0	shaving_cream_02s.jpg	0	0	0	172.418683214501	172.468667318124	0.0499841036235011
187041	50	239	0	0	potato	1231	239	0	stimuli\potato\potato_02n.jpg	1	-1	0	0	potato_02n.jpg	0	0	0	172.518686774118	172.568669658696	0.0499828845786396
187141	50	240	0	0	bomb	160	240	0	stimuli\bomb\bomb_08s.jpg	7	-1	0	0	bomb_08s.jpg	0	0	0	172.618687895641	172.668669561172	0.0499816655301402
187241	50	241	0	0	pizza	1192	241	0	stimuli\pizza\pizza_02s.jpg	1	-1	0	0	pizza_02s.jpg	0	0	0	172.718689992402	172.768673852217	0.0499838598152564
187341	50	242	0	0	hairnet	736	242	0	stimuli\hairnet\hairnet_07s.jpg	6	-1	0	0	hairnet_07s.jpg	0	0	0	172.818695746306	172.868674729933	0.0499789836267155
187441	50	243	0	0	ferris_wheel	579	243	0	stimuli\ferris_wheel\ferris_wheel_11s.jpg	10	-1	0	0	ferris_wheel_11s.jpg	0	0	0	172.91869662402	172.968677070503	0.0499804464834597
187541	50	244	0	0	leaf	906	244	0	stimuli\leaf\leaf_01b.jpg	0	-1	0	0	leaf_01b.jpg	0	0	0	173.01869847697	173.068681605359	0.0499831283887033
187641	50	245	0	0	bean	102	245	0	stimuli\bean\bean_08s.jpg	7	-1	0	0	bean_08s.jpg	0	0	0	173.118701792779	173.168676875455	0.0499750826766103
187741	50	246	0	0	ruler	1341	246	0	stimuli\ruler\ruler_10s.jpg	9	-1	0	0	ruler_10s.jpg	0	0	0	173.218697062875	173.268686042689	0.0499889798138611
187841	50	247	0	0	casserole	282	247	0	stimuli\casserole\casserole_02s.jpg	1	-1	0	0	casserole_02s.jpg	0	0	0	173.318705011063	173.36868838326	0.049983372196948
187941	50	248	0	0	tuxedo	1738	248	0	stimuli\tuxedo\tuxedo_03s.jpg	2	-1	0	0	tuxedo_03s.jpg	0	0	0	173.4187090583	173.468687798117	0.0499787398166518
188041	50	249	0	0	headset	769	249	0	stimuli\headset\headset_12s.jpg	11	-1	0	0	headset_12s.jpg	0	0	0	173.518706766492	173.568687700594	0.0499809341017681
188141	50	250	0	0	pepper_mill	1151	250	0	stimuli\pepper_mill\pepper_mill_06s.jpg	5	-1	0	0	pepper_mill_06s.jpg	0	0	0	173.618710813727	173.668689797354	0.0499789836267155
188241	50	251	0	0	humvee	813	251	0	stimuli\humvee\humvee_04s.jpg	3	-1	0	0	humvee_04s.jpg	0	0	0	173.718711935251	173.76869433221	0.0499823969585123
188341	50	252	0	0	hourglass	807	252	0	stimuli\hourglass\hourglass_11s.jpg	10	-1	0	0	hourglass_11s.jpg	0	0	0	173.818718420582	173.868697891829	0.0499794712468429
188441	50	253	0	0	drill	520	253	0	stimuli\drill\drill_12s.jpg	11	-1	0	0	drill_12s.jpg	0	0	0	173.918719298297	173.968698769542	0.0499794712450239
188541	50	254	0	0	airbag	7	254	0	stimuli\airbag\airbag_09s.jpg	8	-1	0	0	airbag_09s.jpg	0	0	0	174.018721395058	174.068703060588	0.0499816655301402
188641	50	255	0	0	sweet_potato	1595	255	0	stimuli\sweet_potato\sweet_potato_03s.jpg	2	-1	0	0	sweet_potato_03s.jpg	0	0	0	174.118729343245	174.168706620205	0.0499772769599076
188741	50	256	0	0	lobster	939	256	0	stimuli\lobster\lobster_09s.jpg	8	-1	0	0	lobster_09s.jpg	0	0	0	174.218726807627	174.268713349345	0.0499865417186811
188841	50	257	0	0	bracelet1	187	257	0	stimuli\bracelet1\bracelet1_07s.jpg	6	-1	0	0	bracelet1_07s.jpg	0	0	0	174.318730367244	174.368707888014	0.0499775207699713
188941	50	258	0	0	pitchfork	1191	258	0	stimuli\pitchfork\pitchfork_01b.jpg	0	-1	0	0	pitchfork_01b.jpg	0	0	0	174.418730025911	174.468713154298	0.0499831283868843
189041	50	259	0	0	whoopee_cushion	1814	259	0	stimuli\whoopee_cushion\whoopee_cushion_06s.jpg	5	-1	0	0	whoopee_cushion_06s.jpg	0	0	0	174.518743337907	174.568718176773	0.0499748388665466
189141	50	260	0	0	woman	1832	260	0	stimuli\woman\woman_12s.jpg	11	-1	0	0	woman_12s.jpg	0	0	0	174.618742021335	174.668720761152	0.0499787398166518
189241	50	261	0	0	dalmatian	471	261	0	stimuli\dalmatian\dalmatian_01b.jpg	0	-1	0	1	dalmatian_01b.jpg	0	0	0	174.718742167621	174.768721638868	0.0499794712468429
189341	50	262	0	0	sunroof	1586	262	0	stimuli\sunroof\sunroof_06s.jpg	5	-1	0	0	sunroof_06s.jpg	0	0	0	174.818741582478	174.868720809915	0.0499792274367792
189441	50	263	0	0	corkscrew	411	263	0	stimuli\corkscrew\corkscrew_06s.jpg	5	-1	0	0	corkscrew_06s.jpg	0	0	0	174.918745142097	174.968727051437	0.0499819093402039
189541	50	264	0	0	first-aid_kit	599	264	0	stimuli\first-aid_kit\first-aid_kit_09s.jpg	8	-1	0	0	first-aid_kit_09s.jpg	1	0.341931029237458	1	175.018751871237	175.068730123436	0.0499782521983434
189641	50	265	0	0	licorice	922	265	0	stimuli\licorice\licorice_09s.jpg	8	-1	0	0	licorice_09s.jpg	0	0	0	175.118749823238	175.168730269721	0.0499804464834597
189741	50	266	0	0	golf_cart	689	266	0	stimuli\golf_cart\golf_cart_05s.jpg	4	-1	0	0	golf_cart_05s.jpg	0	0	0	175.218752407618	175.268719444583	0.0499670369645173
189841	50	267	0	0	highlighter	778	267	0	stimuli\highlighter\highlighter_04s.jpg	3	-1	0	0	highlighter_04s.jpg	0	0	0	175.318776934846	175.368758112758	0.0499811779118318
189941	50	268	0	0	tamale	1618	268	0	stimuli\tamale\tamale_04n.jpg	3	-1	0	0	tamale_04n.jpg	0	0	0	175.418762696376	175.46876020952	0.0499975131442625
190041	50	269	0	0	rag	1276	269	0	stimuli\rag\rag_09s.jpg	8	-1	0	0	rag_09s.jpg	0	0	0	175.51878088456	175.568744508191	0.0499636236309016
190141	50	270	0	0	beaver	107	270	0	stimuli\beaver\beaver_07s.jpg	6	-1	0	0	beaver_07s.jpg	0	0	0	175.618767865135	175.668747824	0.0499799588651513
190241	50	271	0	0	grenade	713	271	0	stimuli\grenade\grenade_05s.jpg	4	-1	0	0	grenade_05s.jpg	0	0	0	175.718767036184	175.768749189334	0.0499821531502675
190341	50	272	0	0	toucan	1690	272	0	stimuli\toucan\toucan_02s.jpg	1	-1	0	0	toucan_02s.jpg	0	0	0	175.818768645326	175.868749823238	0.0499811779118318
190441	50	273	0	0	brace	186	273	0	stimuli\brace\brace_11s.jpg	10	-1	0	0	brace_11s.jpg	0	0	0	175.918769035421	175.968770205707	0.0500011702861229
190541	50	274	0	0	stake	1533	274	0	stimuli\stake\stake_09s.jpg	8	-1	0	0	stake_09s.jpg	0	0	0	176.018800633125	176.068774496753	0.0499738636281108
190641	50	275	0	0	hard_disk	752	275	0	stimuli\hard_disk\hard_disk_05s.jpg	4	-1	0	0	hard_disk_05s.jpg	0	0	0	176.118781762274	176.168777812562	0.0499960502875183
190741	50	276	0	0	ashtray	41	276	0	stimuli\ashtray\ashtray_09s.jpg	8	-1	0	0	ashtray_09s.jpg	0	0	0	176.218784102844	176.268758941711	0.0499748388665466
190841	50	277	0	0	stir_fry	1557	277	0	stimuli\stir_fry\stir_fry_09s.jpg	8	-1	0	0	stir_fry_09s.jpg	0	0	0	176.31878815008	176.3687617699	0.0499736198198661
190941	50	278	0	0	waterwheel	1794	278	0	stimuli\waterwheel\waterwheel_04s.jpg	3	-1	0	0	waterwheel_04s.jpg	0	0	0	176.418785370653	176.468766304755	0.0499809341017681
191041	50	279	0	0	marmalade	976	279	0	stimuli\marmalade\marmalade_07s.jpg	6	-1	0	0	marmalade_07s.jpg	0	0	0	176.518788686461	176.568764256755	0.0499755702949187
191141	50	280	0	0	dishrag	490	280	0	stimuli\dishrag\dishrag_09s.jpg	8	-1	0	0	dishrag_09s.jpg	0	0	0	176.618790295604	176.668772204943	0.0499819093383849
191241	50	281	0	0	pantsuit	1109	281	0	stimuli\pantsuit\pantsuit_10s.jpg	9	-1	0	0	pantsuit_10s.jpg	0	0	0	176.718792636175	176.768778202655	0.0499855664802453
191341	50	282	0	0	cd_player	290	282	0	stimuli\cd_player\cd_player_04s.jpg	3	-1	0	0	cd_player_04s.jpg	0	0	0	176.818797658649	176.868777129894	0.0499794712450239
191441	50	283	0	0	flagpole	606	283	0	stimuli\flagpole\flagpole_11s.jpg	10	-1	0	0	flagpole_11s.jpg	0	0	0	176.918799023981	176.968782639988	0.0499836160070117
191541	50	284	0	0	soda_fountain	1491	284	0	stimuli\soda_fountain\soda_fountain_10s.jpg	9	-1	0	0	soda_fountain_10s.jpg	0	0	0	177.01880233979	177.068781323416	0.0499789836267155
191641	50	285	0	0	almond	13	285	0	stimuli\almond\almond_10s.jpg	9	-1	0	0	almond_10s.jpg	0	0	0	177.118801023218	177.168781469702	0.0499804464834597
191741	50	286	0	0	caterpillar	286	286	0	stimuli\caterpillar\caterpillar_01b.jpg	0	-1	0	0	caterpillar_01b.jpg	0	0	0	177.218821893306	177.268789661699	0.0499677683928894
191841	50	287	0	0	wine	1823	287	0	stimuli\wine\wine_10s.jpg	9	-1	0	0	wine_10s.jpg	0	0	0	177.318807167216	177.368788101319	0.0499809341035871
191941	50	288	0	0	hand	744	288	0	stimuli\hand\hand_12s.jpg	11	-1	0	0	hand_12s.jpg	0	0	0	177.418807557311	177.468785809509	0.0499782521983434
192041	50	289	0	0	grinder	716	289	0	stimuli\grinder\grinder_09s.jpg	8	-1	0	0	grinder_09s.jpg	0	0	0	177.518817699784	177.568795464364	0.049977764580035
192141	50	290	0	0	turban	1730	290	0	stimuli\turban\turban_09s.jpg	8	-1	0	0	turban_09s.jpg	0	0	0	177.618818821307	177.668798536362	0.0499797150550876
192241	50	291	0	0	chair	300	291	0	stimuli\chair\chair_10s.jpg	9	-1	0	0	chair_10s.jpg	0	0	0	177.718835790443	177.768796244554	0.0499604541109875
192341	50	292	0	0	arrow	38	292	0	stimuli\arrow\arrow_03s.jpg	2	-1	0	0	arrow_03s.jpg	0	0	0	177.818826184352	177.868802242267	0.0499760579150461
192441	50	293	0	0	daisy	470	293	0	stimuli\daisy\daisy_10s.jpg	9	-1	0	0	daisy_10s.jpg	0	0	0	177.91882974397	177.968808971407	0.0499792274367792
192541	50	294	0	0	vise	1765	294	0	stimuli\vise\vise_08s.jpg	7	-1	0	0	vise_08s.jpg	0	0	0	178.018828183589	178.068813018643	0.0499848350536922
192641	50	295	0	0	orange	1078	295	0	stimuli\orange\orange_02s.jpg	1	-1	0	0	orange_02s.jpg	0	0	0	178.118830767969	178.168814871595	0.0499841036253201
192741	50	296	0	0	letter_opener	919	296	0	stimuli\letter_opener\letter_opener_05s.jpg	4	-1	0	0	letter_opener_05s.jpg	0	0	0	178.218836521872	178.268816724547	0.049980202675215
192841	50	297	0	0	door	506	297	0	stimuli\door\door_09s.jpg	8	-1	0	0	door_09s.jpg	0	0	0	178.318842763394	178.368815164165	0.0499724007713667
192941	50	298	0	0	hot-air_balloon	801	298	0	stimuli\hot-air_balloon\hot-air_balloon_10s.jpg	9	-1	0	0	hot-air_balloon_10s.jpg	0	0	0	178.418838764919	178.468819211403	0.0499804464834597
193041	50	299	0	0	torpedo	1684	299	0	stimuli\torpedo\torpedo_07s.jpg	6	-1	0	0	torpedo_07s.jpg	0	0	0	178.518843787393	178.568821795783	0.0499780083900987
193141	50	300	0	0	sheep	1414	300	0	stimuli\sheep\sheep_10s.jpg	9	-1	0	0	sheep_10s.jpg	0	0	0	178.618842470823	178.668825843019	0.049983372195129
193241	50	301	0	0	paintbrush	1097	301	0	stimuli\paintbrush\paintbrush_05s.jpg	4	-1	0	0	paintbrush_05s.jpg	0	0	0	178.718853100914	178.768824526449	0.0499714255347499
193341	50	302	0	0	shrimp	1438	302	0	stimuli\shrimp\shrimp_10s.jpg	9	-1	0	0	shrimp_10s.jpg	0	0	0	178.818853734818	178.868828086066	0.0499743512482382
193441	50	303	0	0	fireplace	595	303	0	stimuli\fireplace\fireplace_07s.jpg	6	-1	0	0	fireplace_07s.jpg	0	0	0	178.91885168682	178.968835790443	0.0499841036235011
193541	50	304	0	0	mug	1036	304	0	stimuli\mug\mug_10s.jpg	9	-1	0	0	mug_10s.jpg	0	0	0	179.018854271199	179.068835205302	0.0499809341035871
193641	50	305	0	0	tape_recorder	1624	305	0	stimuli\tape_recorder\tape_recorder_03s.jpg	2	-1	0	0	tape_recorder_03s.jpg	0	0	0	179.118863926053	179.168837789681	0.0499738636281108
193741	50	306	0	0	roof_rack	1329	306	0	stimuli\roof_rack\roof_rack_08s.jpg	7	-1	0	0	roof_rack_08s.jpg	0	0	0	179.21885968377	179.26883720454	0.0499775207699713
193841	50	307	0	0	slide	1464	307	0	stimuli\slide\slide_06s.jpg	5	-1	0	0	slide_06s.jpg	0	0	0	179.318860317673	179.36884368987	0.049983372196948
193941	50	308	0	0	timer	1661	308	0	stimuli\timer\timer_03s.jpg	2	-1	0	0	timer_03s.jpg	0	0	0	179.418862170625	179.468840179014	0.0499780083882797
209192	50	309	0	0	radar	1271	0	1	stimuli\radar\radar_07s.jpg	6	-1	1	0	radar_07s.jpg	0	0	0	194.669275427617	194.719252460767	0.0499770331498439
209292	50	310	0	0	bottle	170	1	1	stimuli\bottle\bottle_08s.jpg	7	-1	1	0	bottle_08s.jpg	0	0	0	194.769274111046	194.819252607054	0.0499784960084071
209392	50	311	0	0	rudder	1339	2	1	stimuli\rudder\rudder_01b.jpg	0	-1	1	0	rudder_01b.jpg	0	0	0	194.869273769713	194.919255922861	0.0499821531484486
209492	50	312	0	0	moccasin	1010	3	1	stimuli\moccasin\moccasin_10s.jpg	9	-1	1	0	moccasin_10s.jpg	0	0	0	194.969279035997	195.019258507242	0.0499794712450239
209592	50	313	0	0	eggplant	550	4	1	stimuli\eggplant\eggplant_02s.jpg	1	-1	1	0	eggplant_02s.jpg	0	0	0	195.069281620377	195.119263529716	0.0499819093383849
209692	50	314	0	0	guillotine	721	5	1	stimuli\guillotine\guillotine_04s.jpg	3	-1	1	0	guillotine_04s.jpg	0	0	0	195.169285179994	195.219267333143	0.0499821531484486
209792	50	315	0	0	spider	1513	6	1	stimuli\spider\spider_02s.jpg	1	-1	1	0	spider_02s.jpg	0	0	0	195.26928532628	195.319266016573	0.0499806902935234
209892	50	316	0	0	candy_cane	257	7	1	stimuli\candy_cane\candy_cane_04s.jpg	3	-1	1	0	candy_cane_04s.jpg	0	0	0	195.36928766685	195.419272989522	0.0499853226720006
209992	50	317	0	0	macaroni	952	8	1	stimuli\macaroni\macaroni_11s.jpg	10	-1	1	0	macaroni_11s.jpg	0	0	0	195.469292201706	195.519273867236	0.0499816655301402
210092	50	318	0	0	saltshaker	1350	9	1	stimuli\saltshaker\saltshaker_03s.jpg	2	-1	1	0	saltshaker_03s.jpg	0	0	0	195.569293567039	195.619268893524	0.049975326484855
210192	50	319	0	0	thermos	1647	10	1	stimuli\thermos\thermos_12s.jpg	11	-1	1	0	thermos_12s.jpg	0	0	0	195.669290787611	195.719268552191	0.049977764580035
210292	50	320	0	0	detonator	482	11	1	stimuli\detonator\detonator_11s.jpg	10	-1	1	0	detonator_11s.jpg	0	0	0	195.769289958658	195.819263578478	0.0499736198198661
210392	50	321	0	0	meerkat	992	12	1	stimuli\meerkat\meerkat_02s.jpg	1	-1	1	0	meerkat_02s.jpg	0	0	0	195.869288154468	195.919270551429	0.0499823969603312
210492	50	322	0	0	cap	265	13	1	stimuli\cap\cap_03s.jpg	2	-1	1	0	cap_03s.jpg	0	0	0	195.969286350279	196.019268991047	0.0499826407685759
210592	50	323	0	0	gum	724	14	1	stimuli\gum\gum_09s.jpg	8	-1	1	0	gum_09s.jpg	0	0	0	196.069292104183	196.11927523257	0.0499831283868843
210692	50	324	0	0	generator	671	15	1	stimuli\generator\generator_06s.jpg	5	-1	1	0	generator_06s.jpg	0	0	0	196.169294444753	196.219276110283	0.0499816655301402
210792	50	325	0	0	rattle	1287	16	1	stimuli\rattle\rattle_06s.jpg	5	-1	1	0	rattle_06s.jpg	0	0	0	196.269298491989	196.319276012759	0.0499775207699713
210892	50	326	0	0	pepper1	1149	17	1	stimuli\pepper1\pepper1_04s.jpg	3	-1	1	0	pepper1_04s.jpg	0	0	0	196.369298394466	196.419289080945	0.04999068647885
210992	50	327	0	0	caviar	289	18	1	stimuli\caviar\caviar_05s.jpg	4	-1	1	0	caviar_05s.jpg	0	0	0	196.469309024556	196.519286789136	0.049977764580035
211092	50	328	0	0	ribbon	1308	19	1	stimuli\ribbon\ribbon_01b.jpg	0	-1	1	0	ribbon_01b.jpg	0	0	0	196.569305026082	196.619290104945	0.0499850788637559
211192	50	329	0	0	shuffleboard	1439	20	1	stimuli\shuffleboard\shuffleboard_10s.jpg	9	-1	1	0	shuffleboard_10s.jpg	0	0	0	196.669314680936	196.719291470277	0.0499767893415992
211292	50	330	0	0	snack	1475	21	1	stimuli\snack\snack_12s.jpg	11	-1	1	0	snack_12s.jpg	0	0	0	196.769311170079	196.819295761323	0.0499845912436285
211392	50	331	0	0	seal	1397	22	1	stimuli\seal\seal_04s.jpg	3	-1	1	0	seal_04s.jpg	0	0	0	196.869317411602	196.919297614275	0.049980202673396
211492	50	332	0	0	sewing_kit	1406	23	1	stimuli\sewing_kit\sewing_kit_04s.jpg	3	-1	1	0	sewing_kit_04s.jpg	0	0	0	196.969318289315	197.019299954845	0.0499816655301402
211592	50	333	0	0	pan	1103	24	1	stimuli\pan\pan_12s.jpg	11	-1	1	0	pan_12s.jpg	0	0	0	197.069323799409	197.119302051608	0.0499782521983434
211692	50	334	0	0	candelabra	252	25	1	stimuli\candelabra\candelabra_11s.jpg	10	-1	1	0	candelabra_11s.jpg	0	0	0	197.169321263791	197.219306342653	0.0499850788619369
211792	50	335	0	0	eggnog	549	26	1	stimuli\eggnog\eggnog_06s.jpg	5	-1	1	0	eggnog_06s.jpg	0	0	0	197.26932384817	197.319304050845	0.049980202675215
211892	50	336	0	0	rocking_chair	1321	27	1	stimuli\rocking_chair\rocking_chair_12s.jpg	11	-1	1	0	rocking_chair_12s.jpg	0	0	0	197.36932228779	197.419316143792	0.049993856002402
211992	50	337	0	0	baseball_bat	79	28	1	stimuli\baseball_bat\baseball_bat_03s.jpg	2	-1	1	0	baseball_bat_03s.jpg	0	0	0	197.469332674073	197.519311657699	0.0499789836267155
212092	50	338	0	0	turtle	1736	29	1	stimuli\turtle\turtle_08s.jpg	7	-1	1	0	turtle_08s.jpg	0	0	0	197.569326968931	197.61931375446	0.0499867855287448
212192	50	339	0	0	column	388	30	1	stimuli\column\column_08s.jpg	7	-1	1	0	column_08s.jpg	0	0	0	197.669333210453	197.719313413127	0.049980202673396
212292	50	340	0	0	hatbox	758	31	1	stimuli\hatbox\hatbox_05s.jpg	4	-1	1	0	hatbox_05s.jpg	0	0	0	197.769333356739	197.819314778459	0.0499814217200765
212392	50	341	0	0	hose	800	32	1	stimuli\hose\hose_02s.jpg	1	-1	1	0	hose_02s.jpg	0	0	0	197.869341061116	197.919327359026	0.0499862979104364
212492	50	342	0	0	credit_card	438	33	1	stimuli\credit_card\credit_card_01b.jpg	0	-1	1	0	credit_card_01b.jpg	0	0	0	197.969351447398	198.019325798647	0.0499743512482382
212592	50	343	0	0	parfait	1119	34	1	stimuli\parfait\parfait_05s.jpg	4	-1	1	0	parfait_05s.jpg	0	0	0	198.06934866797	198.119328870645	0.049980202675215
212692	50	344	0	0	mullet	1039	35	1	stimuli\mullet\mullet_07s.jpg	6	-1	1	0	mullet_07s.jpg	0	0	0	198.169350277114	198.219330479787	0.049980202673396
212792	50	345	0	0	sifter	1443	36	1	stimuli\sifter\sifter_10s.jpg	9	-1	1	0	sifter_10s.jpg	0	0	0	198.269351154828	198.319329894644	0.0499787398166518
212892	50	346	0	0	foot	628	37	1	stimuli\foot\foot_12s.jpg	11	-1	1	0	foot_12s.jpg	0	0	0	198.369351788731	198.419337599023	0.049985810292128
212992	50	347	0	0	manatee	964	38	1	stimuli\manatee\manatee_02s.jpg	1	-1	1	0	manatee_02s.jpg	0	0	0	198.469358761682	198.519338232927	0.0499794712450239
213092	50	348	0	0	razor	1290	39	1	stimuli\razor\razor_11n.jpg	10	-1	1	0	razor_11n.jpg	0	0	0	198.569354519397	198.619338623022	0.0499841036253201
213192	50	349	0	0	coal	367	40	1	stimuli\coal\coal_02s.jpg	1	-1	1	1	coal_02s.jpg	0	0	0	198.669342475212	198.719363150251	0.0500206750384677
213292	50	350	0	0	cash_machine	279	41	1	stimuli\cash_machine\cash_machine_01b.jpg	0	-1	1	0	cash_machine_01b.jpg	0	0	0	198.769384800529	198.819364515584	0.0499797150550876
213392	50	351	0	0	cantaloupe	263	42	1	stimuli\cantaloupe\cantaloupe_12s.jpg	11	-1	1	0	cantaloupe_12s.jpg	0	0	0	198.86938738491	198.919360517109	0.0499731321997388
213492	50	352	0	0	exhaust_pipe	562	43	1	stimuli\exhaust_pipe\exhaust_pipe_10s.jpg	9	-1	1	0	exhaust_pipe_10s.jpg	1	0.341971745410774	1	198.969390944527	199.01935456816	0.0499636236327206
213592	50	353	0	0	bacon	51	44	1	stimuli\bacon\bacon_09s.jpg	8	-1	1	0	bacon_09s.jpg	0	0	0	199.069394504144	199.119372512534	0.0499780083900987
213692	50	354	0	0	pheasant	1160	45	1	stimuli\pheasant\pheasant_12s.jpg	11	-1	1	0	pheasant_12s.jpg	0	0	0	199.169379046627	199.219358274062	0.0499792274349602
213792	50	355	0	0	saxophone	1368	46	1	stimuli\saxophone\saxophone_03s.jpg	2	-1	1	0	saxophone_03s.jpg	0	0	0	199.269377242437	199.319357932729	0.0499806902917044
213892	50	356	0	0	bolo_tie	157	47	1	stimuli\bolo_tie\bolo_tie_04s.jpg	3	-1	1	0	bolo_tie_04s.jpg	0	0	0	199.369374219199	199.419358322824	0.0499841036253201
213992	50	357	0	0	clam	349	48	1	stimuli\clam\clam_03s.jpg	2	-1	1	0	clam_03s.jpg	0	0	0	199.469381923578	199.519364564347	0.0499826407685759
214092	50	358	0	0	gorilla	695	49	1	stimuli\gorilla\gorilla_09s.jpg	8	-1	1	0	gorilla_09s.jpg	0	0	0	199.569381094625	199.619365929679	0.0499848350536922
214192	50	359	0	0	space_shuttle	1501	50	1	stimuli\space_shuttle\space_shuttle_04s.jpg	3	-1	1	0	space_shuttle_04s.jpg	0	0	0	199.669391724718	199.719371195963	0.0499794712450239
214292	50	360	0	0	dolphin	502	51	1	stimuli\dolphin\dolphin_11n.jpg	10	-1	1	0	dolphin_11n.jpg	0	0	0	199.769387482433	199.819376706057	0.0499892236239248
214392	50	361	0	0	sandbox	1354	52	1	stimuli\sandbox\sandbox_02s.jpg	1	-1	1	0	sandbox_02s.jpg	0	0	0	199.869419811565	199.919378559007	0.0499587474423606
214492	50	362	0	0	fur_coat	650	53	1	stimuli\fur_coat\fur_coat_09s.jpg	8	-1	1	0	fur_coat_09s.jpg	0	0	0	199.969399965476	200.019379924341	0.0499799588651513
214592	50	363	0	0	bow1	174	54	1	stimuli\bow1\bow1_03s.jpg	2	-1	1	0	bow1_03s.jpg	0	0	0	200.069401818428	200.119380314436	0.0499784960084071
214692	50	364	0	0	chainsaw	299	55	1	stimuli\chainsaw\chainsaw_08s.jpg	7	-1	1	0	chainsaw_08s.jpg	0	0	0	200.169395381859	200.21938143596	0.0499860541003727
214792	50	365	0	0	earring	540	56	1	stimuli\earring\earring_02s.jpg	1	-1	1	0	earring_02s.jpg	0	0	0	200.269400891952	200.319382801292	0.0499819093402039
214892	50	366	0	0	dumbbell	530	57	1	stimuli\dumbbell\dumbbell_10s.jpg	9	-1	1	0	dumbbell_10s.jpg	0	0	0	200.369413228709	200.419384410434	0.0499711817246862
214992	50	367	0	0	breadstick	196	58	1	stimuli\breadstick\breadstick_10s.jpg	9	-1	1	0	breadstick_10s.jpg	0	0	0	200.469405329284	200.519386751004	0.0499814217200765
215092	50	368	0	0	card	271	59	1	stimuli\card\card_07s.jpg	6	-1	1	0	card_07s.jpg	0	0	0	200.569404256523	200.619394699192	0.0499904426687863
215192	50	369	0	0	flyswatter	623	60	1	stimuli\flyswatter\flyswatter_02s.jpg	1	-1	1	0	flyswatter_02s.jpg	0	0	0	200.669412448518	200.719391432145	0.0499789836267155
215292	50	370	0	0	bobsled	155	61	1	stimuli\bobsled\bobsled_01s.jpg	0	-1	1	0	bobsled_01s.jpg	0	0	0	200.769410888139	200.819395479382	0.0499845912436285
215392	50	371	0	0	mole	1014	62	1	stimuli\mole\mole_03s.jpg	2	-1	1	0	mole_03s.jpg	0	0	0	200.869419567754	200.919393187574	0.0499736198198661
215492	50	372	0	0	baseball_glove	80	63	1	stimuli\baseball_glove\baseball_glove_05s.jpg	4	-1	1	0	baseball_glove_05s.jpg	0	0	0	200.969409717853	201.019394796716	0.0499850788637559
215592	50	373	0	0	mouthpiece	1032	64	1	stimuli\mouthpiece\mouthpiece_03s.jpg	2	-1	1	0	mouthpiece_03s.jpg	0	0	0	201.069421323182	201.119414691566	0.0499933683840936
215692	50	374	0	0	trashcan	1704	65	1	stimuli\trashcan\trashcan_11s.jpg	10	-1	1	0	trashcan_11s.jpg	0	0	0	201.169420494231	201.219405816903	0.0499853226720006
215792	50	375	0	0	marijuana	974	66	1	stimuli\marijuana\marijuana_08s.jpg	7	-1	1	0	marijuana_08s.jpg	0	0	0	201.269428930036	201.319406450806	0.0499775207699713
215892	50	376	0	0	manhole	967	67	1	stimuli\manhole\manhole_03s.jpg	2	-1	1	0	manhole_03s.jpg	0	0	0	201.369419080136	201.419416837089	0.0499977569525072
215992	50	377	0	0	stilt	1555	68	1	stimuli\stilt\stilt_06s.jpg	5	-1	1	0	stilt_06s.jpg	0	0	0	201.469434830226	201.519412350995	0.0499775207699713
216092	50	378	0	0	skunk	1459	69	1	stimuli\skunk\skunk_05s.jpg	4	-1	1	0	skunk_05s.jpg	0	0	0	201.569433513654	201.619427857275	0.0499943436207104
216192	50	379	0	0	music_box	1041	70	1	stimuli\music_box\music_box_04s.jpg	3	-1	1	0	music_box_04s.jpg	0	0	0	201.669444631365	201.719412399758	0.0499677683928894
216292	50	380	0	0	scallop	1373	71	1	stimuli\scallop\scallop_04s.jpg	3	-1	1	0	scallop_04s.jpg	0	0	0	201.769430392893	201.819407669855	0.0499772769617266
216392	50	381	0	0	breadbox	195	72	1	stimuli\breadbox\breadbox_01b.jpg	0	-1	1	0	breadbox_01b.jpg	0	0	0	201.869443704889	201.91941634947	0.0499726445814304
216492	50	382	0	0	station_wagon	1542	73	1	stimuli\station_wagon\station_wagon_08s.jpg	7	-1	1	0	station_wagon_08s.jpg	0	0	0	201.969433367369	202.019421371944	0.0499880045754253
216592	50	383	0	0	carousel	275	74	1	stimuli\carousel\carousel_08s.jpg	7	-1	1	0	carousel_08s.jpg	0	0	0	202.069437170796	202.119423468706	0.0499862979104364
216692	50	384	0	0	spatula	1508	75	1	stimuli\spatula\spatula_05s.jpg	4	-1	1	0	spatula_05s.jpg	0	0	0	202.169440974223	202.219426540705	0.0499855664820643
216792	50	385	0	0	fossil	636	76	1	stimuli\fossil\fossil_11s.jpg	10	-1	1	0	fossil_11s.jpg	0	0	0	202.269442827175	202.319423517467	0.0499806902917044
216892	50	386	0	0	mousepad	1028	77	1	stimuli\mousepad\mousepad_10s.jpg	9	-1	1	0	mousepad_10s.jpg	0	0	0	202.369442242032	202.419429027561	0.0499867855287448
216992	50	387	0	0	patty	1126	78	1	stimuli\patty\patty_12s.jpg	11	-1	1	0	patty_12s.jpg	0	0	0	202.469448483553	202.519425760514	0.0499772769617266
217092	50	388	0	0	jukebox	857	79	1	stimuli\jukebox\jukebox_11s.jpg	10	-1	1	0	jukebox_11s.jpg	0	0	0	202.569450580315	202.619432489655	0.0499819093402039
217192	50	389	0	0	clarinet	350	80	1	stimuli\clarinet\clarinet_02n.jpg	1	-1	1	0	clarinet_02n.jpg	0	0	0	202.669458772312	202.719438731176	0.0499799588633323
217292	50	390	0	0	lion	933	81	1	stimuli\lion\lion_06s.jpg	5	-1	1	0	lion_06s.jpg	0	0	0	202.769451116696	202.819434976511	0.0499838598152564
217392	50	391	0	0	leash	907	82	1	stimuli\leash\leash_12s.jpg	11	-1	1	0	leash_12s.jpg	0	0	0	202.869455163933	202.919440242795	0.0499850788619369
217492	50	392	0	0	seismograph	1403	83	1	stimuli\seismograph\seismograph_05s.jpg	4	-1	1	1	seismograph_05s.jpg	0	0	0	202.969463355928	203.019447703364	0.0499843474353838
217592	50	393	0	0	noodle	1061	84	1	stimuli\noodle\noodle_09s.jpg	8	-1	1	0	noodle_09s.jpg	0	0	0	203.069465940309	203.119450531553	0.0499845912436285
217692	50	394	0	0	meatloaf	990	85	1	stimuli\meatloaf\meatloaf_08s.jpg	7	-1	1	0	meatloaf_08s.jpg	0	0	0	203.169471206593	203.219449702601	0.0499784960084071
217792	50	395	0	0	waffle	1770	86	1	stimuli\waffle\waffle_09s.jpg	8	-1	1	0	waffle_09s.jpg	1	0.300189878787933	1	203.269475497638	203.319454237457	0.0499787398184708
217892	50	396	0	0	clove	365	87	1	stimuli\clove\clove_12s.jpg	11	-1	1	0	clove_12s.jpg	0	0	0	203.369475643924	203.419457309456	0.0499816655319592
217992	50	397	0	0	spider_web	1514	88	1	stimuli\spider_web\spider_web_05s.jpg	4	-1	1	0	spider_web_05s.jpg	0	0	0	203.46948895592	203.519463307168	0.0499743512482382
218092	50	398	0	0	corn	412	89	1	stimuli\corn\corn_09s.jpg	8	-1	1	0	corn_09s.jpg	0	0	0	203.569482519351	203.619467110595	0.0499845912436285
218192	50	399	0	0	fire_pit	593	90	1	stimuli\fire_pit\fire_pit_05s.jpg	4	-1	1	0	fire_pit_05s.jpg	0	0	0	203.669483397065	203.719464087357	0.0499806902917044
218292	50	400	0	0	stuffing	1575	91	1	stimuli\stuffing\stuffing_03s.jpg	2	-1	1	0	stuffing_03s.jpg	0	0	0	203.769500610011	203.819490565062	0.0499899550504779
218392	50	401	0	0	whale	1804	92	1	stimuli\whale\whale_12s.jpg	11	-1	1	0	whale_12s.jpg	0	0	0	203.869490516299	203.919475595163	0.0499850788637559
218492	50	402	0	0	lego	913	93	1	stimuli\lego\lego_06s.jpg	5	-1	1	0	lego_06s.jpg	0	0	0	203.969492369251	204.019473059545	0.0499806902935234
218592	50	403	0	0	icemaker	821	94	1	stimuli\icemaker\icemaker_11s.jpg	10	-1	1	0	icemaker_11s.jpg	0	0	0	204.069496172679	204.119480520114	0.0499843474353838
218692	50	404	0	0	magnifying_glass	958	95	1	stimuli\magnifying_glass\magnifying_glass_06s.jpg	5	-1	1	0	magnifying_glass_06s.jpg	0	0	0	204.169497538012	204.219478228304	0.0499806902917044
218792	50	405	0	0	blimp	139	96	1	stimuli\blimp\blimp_07s.jpg	6	-1	1	0	blimp_07s.jpg	0	0	0	204.269503048105	204.319479593638	0.0499765455333545
218892	50	406	0	0	food_processor	627	97	1	stimuli\food_processor\food_processor_06s.jpg	5	-1	1	0	food_processor_06s.jpg	0	0	0	204.369509289627	204.419490223729	0.0499809341017681
218992	50	407	0	0	retainer	1303	98	1	stimuli\retainer\retainer_01b.jpg	0	-1	1	0	retainer_01b.jpg	0	0	0	204.469508216866	204.519490857634	0.0499826407685759
219092	50	408	0	0	padlock	1095	99	1	stimuli\padlock\padlock_03s.jpg	2	-1	1	0	padlock_03s.jpg	0	0	0	204.569510801244	204.619492222966	0.0499814217218955
219192	50	409	0	0	cable	234	100	1	stimuli\cable\cable_11s.jpg	10	-1	1	0	cable_11s.jpg	0	0	0	204.669514117053	204.719494563537	0.0499804464834597
219292	50	410	0	0	crouton	445	101	1	stimuli\crouton\crouton_11n.jpg	10	-1	1	0	crouton_11n.jpg	0	0	0	204.769513044292	204.819497391725	0.0499843474335648
219392	50	411	0	0	whisk	1811	102	1	stimuli\whisk\whisk_03s.jpg	2	-1	1	0	whisk_03s.jpg	0	0	0	204.869518798194	204.919499488487	0.0499806902935234
219492	50	412	0	0	folder	625	103	1	stimuli\folder\folder_12s.jpg	11	-1	1	0	folder_12s.jpg	0	0	0	204.969517237814	205.019503535725	0.0499862979104364
219592	50	413	0	0	counter	424	104	1	stimuli\counter\counter_09s.jpg	8	-1	1	0	counter_09s.jpg	0	0	0	205.069524698383	205.119501243915	0.0499765455315355
219692	50	414	0	0	train	1698	105	1	stimuli\train\train_12n.jpg	11	-1	1	0	train_12n.jpg	0	0	0	205.169520212288	205.219504072105	0.0499838598170754
219792	50	415	0	0	fire_alarm	591	106	1	stimuli\fire_alarm\fire_alarm_07s.jpg	6	-1	1	0	fire_alarm_07s.jpg	0	0	0	205.269524990954	205.319505681247	0.0499806902935234
219892	50	416	0	0	lamppost	892	107	1	stimuli\lamppost\lamppost_08s.jpg	7	-1	1	0	lamppost_08s.jpg	0	0	0	205.369524405811	205.419513141816	0.0499887360056164
219992	50	417	0	0	mantle	969	108	1	stimuli\mantle\mantle_04s.jpg	3	-1	1	0	mantle_04s.jpg	0	0	0	205.469530159715	205.51951401953	0.0499838598152564
220092	50	418	0	0	tinsel	1662	109	1	stimuli\tinsel\tinsel_04s.jpg	3	-1	1	0	tinsel_04s.jpg	0	0	0	205.569532987904	205.619518554386	0.0499855664820643
220192	50	419	0	0	handbrake	745	110	1	stimuli\handbrake\handbrake_07s.jpg	6	-1	1	0	handbrake_07s.jpg	0	0	0	205.669545080851	205.719519188289	0.0499741074381745
220292	50	420	0	0	noose	1062	111	1	stimuli\noose\noose_11s.jpg	10	-1	1	0	noose_11s.jpg	0	0	0	205.769533768094	205.819519090766	0.0499853226720006
220392	50	421	0	0	dolly	501	112	1	stimuli\dolly\dolly_09s.jpg	8	-1	1	0	dolly_09s.jpg	0	0	0	205.869551468659	205.919526063715	0.0499745950564829
220492	50	422	0	0	cocoon	376	113	1	stimuli\cocoon\cocoon_05s.jpg	4	-1	1	0	cocoon_05s.jpg	0	0	0	205.96954478828	206.019527429049	0.0499826407685759
220592	50	423	0	0	penlight	1147	114	1	stimuli\penlight\penlight_06s.jpg	5	-1	1	0	penlight_06s.jpg	0	0	0	206.069547128851	206.119528306763	0.0499811779118318
220692	50	424	0	0	pigeon	1171	115	1	stimuli\pigeon\pigeon_12s.jpg	11	-1	1	0	pigeon_12s.jpg	0	0	0	206.169557271323	206.219533573047	0.0499763017232908
220792	50	425	0	0	headband	762	116	1	stimuli\headband\headband_12s.jpg	11	-1	1	0	headband_12s.jpg	0	0	0	206.269555710944	206.319535182189	0.0499794712450239
220892	50	426	0	0	fireworks	598	117	1	stimuli\fireworks\fireworks_08s.jpg	7	-1	1	0	fireworks_08s.jpg	0	0	0	206.369562440083	206.419540936091	0.0499784960084071
220992	50	427	0	0	charger	308	118	1	stimuli\charger\charger_10s.jpg	9	-1	1	0	charger_10s.jpg	0	0	0	206.469561123513	206.519538400473	0.0499772769599076
221092	50	428	0	0	ankle	22	119	1	stimuli\ankle\ankle_03s.jpg	2	-1	1	0	ankle_03s.jpg	0	0	0	206.569554930753	206.619540253425	0.0499853226720006
221192	50	429	0	0	goggles	686	120	1	stimuli\goggles\goggles_12s.jpg	11	-1	1	0	goggles_12s.jpg	0	0	0	206.669564097987	206.719544300662	0.049980202675215
221292	50	430	0	0	hedge	773	121	1	stimuli\hedge\hedge_05s.jpg	4	-1	1	0	hedge_05s.jpg	0	0	0	206.769558149037	206.819544690756	0.0499865417186811
221392	50	431	0	0	chalice	301	122	1	stimuli\chalice\chalice_02s.jpg	1	-1	1	0	chalice_02s.jpg	0	0	0	206.869566341034	206.919553126563	0.0499867855287448
221492	50	432	0	0	file1	583	123	1	stimuli\file1\file1_02s.jpg	1	-1	1	0	file1_02s.jpg	0	0	0	206.969570388272	207.019553029038	0.049982640766757
221592	50	433	0	0	nail_file	1048	124	1	stimuli\nail_file\nail_file_10s.jpg	9	-1	1	0	nail_file_10s.jpg	0	0	0	207.069570290747	207.119553662944	0.049983372196948
221692	50	434	0	0	spacesuit	1502	125	1	stimuli\spacesuit\spacesuit_08s.jpg	7	-1	1	0	spacesuit_08s.jpg	0	0	0	207.169579457981	207.219560148274	0.0499806902935234
221792	50	435	0	0	nacho	1045	126	1	stimuli\nacho\nacho_06n.jpg	5	-1	1	0	nacho_06n.jpg	0	0	0	207.269575703316	207.319557856466	0.0499821531502675
221892	50	436	0	0	blackberry	135	127	1	stimuli\blackberry\blackberry_08s.jpg	7	-1	1	0	blackberry_08s.jpg	0	0	0	207.369584382932	207.419568242747	0.0499838598152564
221992	50	437	0	0	skirt	1457	128	1	stimuli\skirt\skirt_07s.jpg	6	-1	1	0	skirt_07s.jpg	0	0	0	207.469587211122	207.519566682367	0.0499794712450239
222092	50	438	0	0	pom-pom	1218	129	1	stimuli\pom-pom\pom-pom_03s.jpg	2	-1	1	0	pom-pom_03s.jpg	0	0	0	207.569587845026	207.619566584845	0.0499787398184708
222192	50	439	0	0	zucchini	1853	130	1	stimuli\zucchini\zucchini_12s.jpg	11	-1	1	0	zucchini_12s.jpg	0	0	0	207.669588478931	207.719568193987	0.0499797150550876
222292	50	440	0	0	oar	1068	131	1	stimuli\oar\oar_11s.jpg	10	-1	1	0	oar_11s.jpg	0	0	0	207.769588625217	207.819571022175	0.0499823969585123
222392	50	441	0	0	barnacle	75	132	1	stimuli\barnacle\barnacle_12n.jpg	11	-1	1	0	barnacle_12n.jpg	0	0	0	207.869593403881	207.919573606556	0.049980202675215
222492	50	442	0	0	van	1752	133	1	stimuli\van\van_06s.jpg	5	-1	1	0	van_06s.jpg	0	0	0	207.969595013024	208.019573509031	0.0499784960065881
222592	50	443	0	0	faucet	573	134	1	stimuli\faucet\faucet_06s.jpg	5	-1	1	0	faucet_06s.jpg	0	0	0	208.069601010735	208.119580238172	0.0499792274367792
222692	50	444	0	0	juicer1	855	135	1	stimuli\juicer1\juicer1_05s.jpg	4	-1	1	0	juicer1_05s.jpg	0	0	0	208.169599937974	208.219579896839	0.0499799588651513
222792	50	445	0	0	peppermint	1152	136	1	stimuli\peppermint\peppermint_03s.jpg	2	-1	1	0	peppermint_03s.jpg	0	0	0	208.269602766164	208.319581505981	0.0499787398166518
222892	50	446	0	0	boxing_gloves	183	137	1	stimuli\boxing_gloves\boxing_gloves_02s.jpg	1	-1	1	0	boxing_gloves_02s.jpg	0	0	0	208.36960730102	208.419585309408	0.0499780083882797
222992	50	447	0	0	oyster	1092	138	1	stimuli\oyster\oyster_04s.jpg	3	-1	1	0	oyster_04s.jpg	0	0	0	208.469633291104	208.519592038549	0.0499587474441796
223092	50	448	0	0	compost	393	139	1	stimuli\compost\compost_12s.jpg	11	-1	1	0	compost_12s.jpg	0	0	0	208.569606862162	208.619598280071	0.049991417909041
223192	50	449	0	0	potpie	1234	140	1	stimuli\potpie\potpie_05s.jpg	4	-1	1	0	potpie_05s.jpg	0	0	0	208.669617004634	208.719598182546	0.0499811779118318
223292	50	450	0	0	seesaw	1402	141	1	stimuli\seesaw\seesaw_08s.jpg	7	-1	1	0	seesaw_08s.jpg	0	0	0	208.769615931873	208.819600279308	0.0499843474353838
223392	50	451	0	0	lawnmower	905	142	1	stimuli\lawnmower\lawnmower_04n.jpg	3	-1	1	0	lawnmower_04n.jpg	0	0	0	208.869624611489	208.919602376069	0.049977764580035
223492	50	452	0	0	leek	910	143	1	stimuli\leek\leek_08s.jpg	7	-1	1	0	leek_08s.jpg	0	0	0	208.969616224444	209.019601547117	0.0499853226738196
223592	50	453	0	0	ivy	834	144	1	stimuli\ivy\ivy_03s.jpg	2	-1	1	0	ivy_03s.jpg	0	0	0	209.069622465966	209.11961120197	0.0499887360037974
223692	50	454	0	0	bat2	88	145	1	stimuli\bat2\bat2_09s.jpg	8	-1	1	0	bat2_09s.jpg	0	0	0	209.169631145582	209.219612323493	0.0499811779118318
223792	50	455	0	0	clock	359	146	1	stimuli\clock\clock_08n.jpg	7	-1	1	0	clock_08n.jpg	0	0	0	209.269627878535	209.319610763114	0.0499828845786396
223892	50	456	0	0	clipboard	355	147	1	stimuli\clipboard\clipboard_08s.jpg	7	-1	1	0	clipboard_08s.jpg	0	0	0	209.369636801961	209.419616760826	0.0499799588651513
223992	50	457	0	0	slug	1472	148	1	stimuli\slug\slug_01s.jpg	0	-1	1	0	slug_01s.jpg	0	0	0	209.469636216818	209.519613737588	0.0499775207699713
224092	50	458	0	0	mongoose	1016	149	1	stimuli\mongoose\mongoose_01b.jpg	0	-1	1	0	mongoose_01b.jpg	0	0	0	209.569630755486	209.619616078158	0.0499853226720006
224192	50	459	0	0	popsicle	1225	150	1	stimuli\popsicle\popsicle_02s.jpg	1	-1	1	0	popsicle_02s.jpg	0	0	0	209.66964016653	209.719622807299	0.0499826407685759
224292	50	460	0	0	perfume	1154	151	1	stimuli\perfume\perfume_09s.jpg	8	-1	1	0	perfume_09s.jpg	0	0	0	209.769642750911	209.819627585965	0.0499848350536922
224392	50	461	0	0	ratchet	1286	152	1	stimuli\ratchet\ratchet_05s.jpg	4	-1	1	0	ratchet_05s.jpg	0	0	0	209.869648017195	209.919632852248	0.0499848350536922
224492	50	462	0	0	ticktacktoe	1657	153	1	stimuli\ticktacktoe\ticktacktoe_12s.jpg	11	-1	1	0	ticktacktoe_12s.jpg	0	0	0	209.969650601575	210.01963421758	0.0499836160051927
224592	50	463	0	0	chicken_wire	324	154	1	stimuli\chicken_wire\chicken_wire_04s.jpg	3	-1	1	0	chicken_wire_04s.jpg	0	0	0	210.069657818334	210.119638752436	0.0499809341017681
224692	50	464	0	0	doghouse	497	155	1	stimuli\doghouse\doghouse_03s.jpg	2	-1	1	0	doghouse_03s.jpg	0	0	0	210.169653819859	210.219638411103	0.0499845912436285
224792	50	465	0	0	tortellini	1686	156	1	stimuli\tortellini\tortellini_10s.jpg	9	-1	1	0	tortellini_10s.jpg	0	0	0	210.269659086143	210.319634656438	0.0499755702949187
224892	50	466	0	0	defibrillator	477	157	1	stimuli\defibrillator\defibrillator_08s.jpg	7	-1	1	0	defibrillator_08s.jpg	0	0	0	210.36965411243	210.419639435102	0.0499853226720006
224992	50	467	0	0	water_cooler	1788	158	1	stimuli\water_cooler\water_cooler_12s.jpg	11	-1	1	0	water_cooler_12s.jpg	0	0	0	210.469664986331	210.519646164243	0.0499811779118318
225092	50	468	0	0	branch	192	159	1	stimuli\branch\branch_01b.jpg	0	-1	1	0	branch_01b.jpg	0	0	0	210.569663913569	210.619648992433	0.0499850788637559
225192	50	469	0	0	payphone	1127	160	1	stimuli\payphone\payphone_04s.jpg	3	-1	1	0	payphone_04s.jpg	0	0	0	210.6696703989	210.719650845384	0.0499804464834597
225292	50	470	0	0	stick	1552	161	1	stimuli\stick\stick_03s.jpg	2	-1	1	1	stick_03s.jpg	0	0	0	210.769663962332	210.819651479289	0.0499875169571169
225392	50	471	0	0	pole	1213	162	1	stimuli\pole\pole_07s.jpg	6	-1	1	0	pole_07s.jpg	0	0	0	210.869672398137	210.919657720809	0.0499853226720006
225492	50	472	0	0	leggings	912	163	1	stimuli\leggings\leggings_03s.jpg	2	-1	1	0	leggings_03s.jpg	0	0	0	210.969674738708	211.019654941383	0.049980202675215
225592	50	473	0	0	koala	884	164	1	stimuli\koala\koala_04s.jpg	3	-1	1	0	koala_04s.jpg	1	0.341933467330819	1	211.06967707928	211.119657281954	0.049980202673396
225692	50	474	0	0	walker2	1774	165	1	stimuli\walker2\walker2_04s.jpg	3	-1	1	0	walker2_04s.jpg	0	0	0	211.169674299852	211.219658647286	0.0499843474335648
225792	50	475	0	0	wasp	1785	166	1	stimuli\wasp\wasp_12s.jpg	11	-1	1	0	wasp_12s.jpg	0	0	0	211.269682004229	211.319661963094	0.0499799588651513
225892	50	476	0	0	stretcher	1572	167	1	stimuli\stretcher\stretcher_05s.jpg	4	-1	1	0	stretcher_05s.jpg	0	0	0	211.369681419088	211.4196703989	0.0499889798120421
225992	50	477	0	0	chute	342	168	1	stimuli\chute\chute_05s.jpg	4	-1	1	0	chute_05s.jpg	0	0	0	211.46967425109	211.519695413748	0.0500211626585951
226092	50	478	0	0	mustard	1044	169	1	stimuli\mustard\mustard_06s.jpg	5	-1	1	0	mustard_06s.jpg	0	0	0	211.569716576409	211.619697754319	0.0499811779100128
226192	50	479	0	0	washing_machine	1784	170	1	stimuli\washing_machine\washing_machine_01b.jpg	0	-1	1	0	washing_machine_01b.jpg	0	0	0	211.669719648407	211.719702289174	0.049982640766757
226292	50	480	0	0	life_jacket	924	171	1	stimuli\life_jacket\life_jacket_06s.jpg	5	-1	1	0	life_jacket_06s.jpg	0	0	0	211.769720038501	211.819691951654	0.0499719131530583
226392	50	481	0	0	box	181	172	1	stimuli\box\box_09s.jpg	8	-1	1	0	box_09s.jpg	0	0	0	211.869726036213	211.91970940841	0.049983372196948
226492	50	482	0	0	mulch	1038	173	1	stimuli\mulch\mulch_07s.jpg	6	-1	1	0	mulch_07s.jpg	0	0	0	211.969729595832	212.019692488037	0.0499628922043485
226592	50	483	0	0	backscratcher	50	174	1	stimuli\backscratcher\backscratcher_11s.jpg	10	-1	1	0	backscratcher_11s.jpg	0	0	0	212.069749490682	212.119693609558	0.0499441188767378
226692	50	484	0	0	filing_cabinet	585	175	1	stimuli\filing_cabinet\filing_cabinet_08s.jpg	7	-1	1	0	filing_cabinet_08s.jpg	0	0	0	212.169714528409	212.219697900606	0.049983372196948
226792	50	485	0	0	banana	63	176	1	stimuli\banana\banana_02s.jpg	1	-1	1	0	banana_02s.jpg	0	0	0	212.269709798506	212.319695852606	0.0499860541003727
226892	50	486	0	0	drum	522	177	1	stimuli\drum\drum_07s.jpg	6	-1	1	0	drum_07s.jpg	0	0	0	212.369713845743	212.41969648651	0.049982640766757
226992	50	487	0	0	hair	733	178	1	stimuli\hair\hair_12s.jpg	11	-1	1	0	hair_12s.jpg	0	0	0	212.469718380598	212.51969907089	0.0499806902917044
227092	50	488	0	0	ear	538	179	1	stimuli\ear\ear_05s.jpg	4	-1	1	0	ear_05s.jpg	0	0	0	212.569719014502	212.619707262887	0.049988248385489
227192	50	489	0	0	football	629	180	1	stimuli\football\football_04s.jpg	3	-1	1	0	football_04s.jpg	0	0	0	212.669730132213	212.719709359648	0.0499792274349602
227292	50	490	0	0	spring_roll	1521	181	1	stimuli\spring_roll\spring_roll_02s.jpg	1	-1	1	0	spring_roll_02s.jpg	0	0	0	212.769722476596	212.819728035451	0.0500055588545365
227392	50	491	0	0	turf	1732	182	1	stimuli\turf\turf_02s.jpg	1	-1	1	0	turf_02s.jpg	0	0	0	212.869733106687	212.91971355317	0.0499804464834597
227492	50	492	0	0	recorder	1297	183	1	stimuli\recorder\recorder_08s.jpg	7	-1	1	0	recorder_08s.jpg	0	0	0	212.969731790117	213.019711505172	0.0499797150550876
227592	50	493	0	0	birdbath	129	184	1	stimuli\birdbath\birdbath_08s.jpg	7	-1	1	0	birdbath_08s.jpg	0	0	0	213.069760462105	213.119719940978	0.0499594788725517
227692	50	494	0	0	wedge	1801	185	1	stimuli\wedge\wedge_11s.jpg	10	-1	1	0	wedge_11s.jpg	0	0	0	213.169736715066	213.219719112027	0.0499823969603312
227792	50	495	0	0	anvil	28	186	1	stimuli\anvil\anvil_12n.jpg	11	-1	1	0	anvil_12n.jpg	0	0	0	213.269741006114	213.31970731165	0.0499663055361452
227892	50	496	0	0	thorn	1650	187	1	stimuli\thorn\thorn_01b.jpg	0	-1	1	0	thorn_01b.jpg	0	0	0	213.369737982875	213.419727206499	0.0499892236239248
227992	50	497	0	0	television	1641	188	1	stimuli\television\television_04s.jpg	3	-1	1	0	television_04s.jpg	0	0	0	213.46974739392	213.519727108975	0.0499797150550876
228092	50	498	0	0	cloud	364	189	1	stimuli\cloud\cloud_11s.jpg	10	-1	1	0	cloud_11s.jpg	0	0	0	213.569767288771	213.619733350497	0.0499660617260815
228192	50	499	0	0	chicken1	322	190	1	stimuli\chicken1\chicken1_04s.jpg	3	-1	1	0	chicken1_04s.jpg	0	0	0	213.669755244584	213.719734959639	0.0499797150550876
228292	50	500	0	0	cymbal	468	191	1	stimuli\cymbal\cymbal_09s.jpg	8	-1	1	0	cymbal_09s.jpg	0	0	0	213.769753684204	213.819744126873	0.0499904426687863
228392	50	501	0	0	towel	1692	192	1	stimuli\towel\towel_10s.jpg	9	-1	1	0	towel_10s.jpg	0	0	0	213.869754561918	213.919740372208	0.049985810290309
228492	50	502	0	0	blowfish	146	193	1	stimuli\blowfish\blowfish_01b.jpg	0	-1	1	0	blowfish_01b.jpg	0	0	0	213.969758121535	214.019741493732	0.049983372196948
228592	50	503	0	0	lava	903	194	1	stimuli\lava\lava_08s.jpg	7	-1	1	0	lava_08s.jpg	0	0	0	214.069777772576	214.119741396209	0.0499636236327206
228692	50	504	0	0	kaleidoscope	861	195	1	stimuli\kaleidoscope\kaleidoscope_03s.jpg	2	-1	1	0	kaleidoscope_03s.jpg	0	0	0	214.169755000774	214.219744224398	0.0499892236239248
228792	50	505	0	0	bat1	87	196	1	stimuli\bat1\bat1_02s.jpg	1	-1	1	0	bat1_02s.jpg	0	0	0	214.2697639242	214.319746321158	0.0499823969585123
228892	50	506	0	0	abacus	1	197	1	stimuli\abacus\abacus_03s.jpg	2	-1	1	0	abacus_03s.jpg	0	0	0	214.369773822864	214.419751343634	0.0499775207699713
228992	50	507	0	0	potholder	1232	198	1	stimuli\potholder\potholder_01s.jpg	0	-1	1	0	potholder_01s.jpg	0	0	0	214.469777870099	214.519754415633	0.0499765455333545
229092	50	508	0	0	top_hat	1682	199	1	stimuli\top_hat\top_hat_09s.jpg	8	-1	1	0	top_hat_09s.jpg	0	0	0	214.569773627816	214.61975821906	0.0499845912436285
229192	50	509	0	0	horn	797	200	1	stimuli\horn\horn_02s.jpg	1	-1	1	0	horn_02s.jpg	0	0	0	214.669774749338	214.71975617106	0.0499814217218955
229292	50	510	0	0	panther	1106	201	1	stimuli\panther\panther_12s.jpg	11	-1	1	0	panther_12s.jpg	0	0	0	214.769773188958	214.819757780202	0.0499845912436285
229392	50	511	0	0	squeegee	1527	202	1	stimuli\squeegee\squeegee_03s.jpg	2	-1	1	0	squeegee_03s.jpg	0	0	0	214.869782356192	214.919769385531	0.0499870293388085
229492	50	512	0	0	loom	946	203	1	stimuli\loom\loom_08s.jpg	7	-1	1	0	loom_08s.jpg	0	0	0	214.969784940573	215.019766606103	0.0499816655301402
229592	50	513	0	0	trigger	1713	204	1	stimuli\trigger\trigger_10s.jpg	9	-1	1	0	trigger_10s.jpg	0	0	0	215.069788500192	215.119769190484	0.0499806902917044
229692	50	514	0	0	film	586	205	1	stimuli\film\film_10s.jpg	9	-1	1	0	film_10s.jpg	0	0	0	215.169783282669	215.219768117722	0.0499848350536922
229792	50	515	0	0	lunchbox	950	206	1	stimuli\lunchbox\lunchbox_09s.jpg	8	-1	1	0	lunchbox_09s.jpg	0	0	0	215.269789524191	215.319771433531	0.0499819093402039
229892	50	516	0	0	stirrup	1558	207	1	stimuli\stirrup\stirrup_10s.jpg	9	-1	1	0	stirrup_10s.jpg	0	0	0	215.369790645715	215.419773286483	0.0499826407685759
229992	50	517	0	0	strawberry	1570	208	1	stimuli\strawberry\strawberry_08n.jpg	7	-1	1	0	strawberry_08n.jpg	0	0	0	215.46979469295	215.51978099086	0.0499862979104364
230092	50	518	0	0	gift	672	209	1	stimuli\gift\gift_10s.jpg	9	-1	1	0	gift_10s.jpg	0	0	0	215.569803616376	215.619784306669	0.0499806902935234
230192	50	519	0	0	bull	214	210	1	stimuli\bull\bull_03s.jpg	2	-1	1	0	bull_03s.jpg	0	0	0	215.669802299804	215.71978615962	0.0499838598152564
230292	50	520	0	0	scoop	1381	211	1	stimuli\scoop\scoop_12s.jpg	11	-1	1	0	scoop_12s.jpg	0	0	0	215.769804640375	215.819789231618	0.0499845912436285
230392	50	521	0	0	toaster	1666	212	1	stimuli\toaster\toaster_10s.jpg	9	-1	1	0	toaster_10s.jpg	0	0	0	215.869809906659	215.91978279505	0.0499728883914941
230492	50	522	0	0	champagne	304	213	1	stimuli\champagne\champagne_05s.jpg	4	-1	1	0	champagne_05s.jpg	0	0	0	215.969798106284	216.019784404192	0.0499862979086174
230592	50	523	0	0	radio	1273	214	1	stimuli\radio\radio_10s.jpg	9	-1	1	0	radio_10s.jpg	0	0	0	216.069805079233	216.119783331431	0.0499782521983434
230692	50	524	0	0	refrigerator	1300	215	1	stimuli\refrigerator\refrigerator_05s.jpg	4	-1	1	0	refrigerator_05s.jpg	0	0	0	216.169809370278	216.21979054819	0.0499811779118318
230792	50	525	0	0	calzone	243	216	1	stimuli\calzone\calzone_03s.jpg	2	-1	1	0	calzone_03s.jpg	0	0	0	216.269810735612	216.319791425904	0.0499806902917044
230892	50	526	0	0	banner	70	217	1	stimuli\banner\banner_11s.jpg	10	-1	1	0	banner_11s.jpg	0	0	0	216.369815514276	216.419797423616	0.0499819093402039
230992	50	527	0	0	guardrail	720	218	1	stimuli\guardrail\guardrail_07s.jpg	6	-1	1	0	guardrail_07s.jpg	0	0	0	216.469825900558	216.519803421328	0.0499775207699713
231092	50	528	0	0	coffin	383	219	1	stimuli\coffin\coffin_09s.jpg	8	-1	1	0	coffin_09s.jpg	0	0	0	216.56982799732	216.619802836185	0.0499748388647276
231192	50	529	0	0	cornmeal	415	220	1	stimuli\cornmeal\cornmeal_12s.jpg	11	-1	1	0	cornmeal_12s.jpg	0	0	0	216.669823998845	216.719799569139	0.0499755702930997
231292	50	530	0	0	coat	369	221	1	stimuli\coat\coat_01b.jpg	0	-1	1	0	coat_01b.jpg	0	0	0	216.769819025132	216.819806542089	0.0499875169571169
231392	50	531	0	0	cupcake	461	222	1	stimuli\cupcake\cupcake_12s.jpg	11	-1	1	0	cupcake_12s.jpg	0	0	0	216.869825754273	216.919811564563	0.049985810290309
231492	50	532	0	0	suspenders	1589	223	1	stimuli\suspenders\suspenders_08s.jpg	7	-1	1	0	suspenders_08s.jpg	0	0	0	216.969827119605	217.01981097942	0.0499838598152564
231592	50	533	0	0	aardvark	0	224	1	stimuli\aardvark\aardvark_05s.jpg	4	-1	1	0	aardvark_05s.jpg	0	0	0	217.069830923032	217.119813319992	0.0499823969603312
231692	50	534	0	0	candlestick	254	225	1	stimuli\candlestick\candlestick_03s.jpg	2	-1	1	0	candlestick_03s.jpg	0	0	0	217.169831313127	217.219816391991	0.0499850788637559
231792	50	535	0	0	vacuum	1750	226	1	stimuli\vacuum\vacuum_03s.jpg	2	-1	1	0	vacuum_03s.jpg	0	0	0	217.269823901321	217.319850183978	0.0500262826571998
231892	50	536	0	0	cummerbund	459	227	1	stimuli\cummerbund\cummerbund_09s.jpg	8	-1	1	0	cummerbund_09s.jpg	0	0	0	217.369876710445	217.419851549312	0.0499748388665466
231992	50	537	0	0	kilt	872	228	1	stimuli\kilt\kilt_03s.jpg	2	-1	1	0	kilt_03s.jpg	0	0	0	217.469870273875	217.519834872746	0.0499645988711563
232092	50	538	0	0	sprouts	1524	229	1	stimuli\sprouts\sprouts_09s.jpg	8	-1	1	0	sprouts_09s.jpg	0	0	0	217.56985774207	217.619834043793	0.0499763017232908
232192	50	539	0	0	yak	1845	230	1	stimuli\yak\yak_11s.jpg	10	-1	1	0	yak_11s.jpg	0	0	0	217.669854962644	217.719836384364	0.0499814217200765
232292	50	540	0	0	step_stool	1548	231	1	stimuli\step_stool\step_stool_12s.jpg	11	-1	1	0	step_stool_12s.jpg	0	0	0	217.769856327976	217.819838237316	0.0499819093402039
232392	50	541	0	0	helicopter	775	232	1	stimuli\helicopter\helicopter_10s.jpg	9	-1	1	0	helicopter_10s.jpg	0	0	0	217.869861838069	217.919842528361	0.0499806902917044
232492	50	542	0	0	thread	1651	233	1	stimuli\thread\thread_06s.jpg	5	-1	1	1	thread_06s.jpg	0	0	0	217.969862471973	218.019844868932	0.0499823969585123
232592	50	543	0	0	pug	1249	234	1	stimuli\pug\pug_02s.jpg	1	-1	1	0	pug_02s.jpg	0	0	0	218.06986651921	218.119849403787	0.0499828845768207
232692	50	544	0	0	grain	698	235	1	stimuli\grain\grain_10s.jpg	9	-1	1	0	grain_10s.jpg	0	0	0	218.169871541684	218.219848818646	0.0499772769617266
232792	50	545	0	0	porthole	1227	236	1	stimuli\porthole\porthole_06s.jpg	5	-1	1	0	porthole_06s.jpg	0	0	0	218.269872663208	218.319851403025	0.0499787398166518
232892	50	546	0	0	paper_bag	1113	237	1	stimuli\paper_bag\paper_bag_08s.jpg	7	-1	1	0	paper_bag_08s.jpg	1	0.392177228004584	1	218.369877685682	218.41985179312	0.0499741074381745
232992	50	547	0	0	car_seat	269	238	1	stimuli\car_seat\car_seat_03s.jpg	2	-1	1	0	car_seat_03s.jpg	0	0	0	218.469872955779	218.519856084165	0.0499831283868843
233092	50	548	0	0	fuse	652	239	1	stimuli\fuse\fuse_07s.jpg	6	-1	1	0	fuse_07s.jpg	0	0	0	218.569875540159	218.619860375213	0.0499848350536922
233192	50	549	0	0	bedpan	109	240	1	stimuli\bedpan\bedpan_03s.jpg	2	-1	1	0	bedpan_03s.jpg	0	0	0	218.669880806443	218.719858814831	0.0499780083882797
233292	50	550	0	0	shoehorn	1425	241	1	stimuli\shoehorn\shoehorn_02s.jpg	1	-1	1	0	shoehorn_02s.jpg	0	0	0	218.769876807968	218.819861155402	0.0499843474335648
233392	50	551	0	0	windowsill	1819	242	1	stimuli\windowsill\windowsill_11s.jpg	10	-1	1	0	windowsill_11s.jpg	0	0	0	218.869888169487	218.919868615971	0.0499804464834597
233492	50	552	0	0	mussel	1042	243	1	stimuli\mussel\mussel_11s.jpg	10	-1	1	0	mussel_11s.jpg	0	0	0	218.969882220537	219.019869249876	0.0499870293388085
233592	50	553	0	0	muffin	1035	244	1	stimuli\muffin\muffin_12n.jpg	11	-1	1	0	muffin_12n.jpg	0	0	0	219.069898702055	219.119875247588	0.0499765455333545
233692	50	554	0	0	rubber_band	1337	245	1	stimuli\rubber_band\rubber_band_12s.jpg	11	-1	1	0	rubber_band_12s.jpg	0	0	0	219.169894215962	219.219874906255	0.0499806902935234
233792	50	555	0	0	marble	972	246	1	stimuli\marble\marble_05s.jpg	4	-1	1	0	marble_05s.jpg	0	0	0	219.269897775579	219.319879441111	0.0499816655319592
233892	50	556	0	0	clothesline	362	247	1	stimuli\clothesline\clothesline_11s.jpg	10	-1	1	0	clothesline_11s.jpg	0	0	0	219.369894264724	219.419865934067	0.0499716693429946
233992	50	557	0	0	chalkboard	303	248	1	stimuli\chalkboard\chalkboard_08s.jpg	7	-1	1	0	chalkboard_08s.jpg	0	0	0	219.469886852918	219.519870956541	0.0499841036235011
234092	50	558	0	0	cranberry	430	249	1	stimuli\cranberry\cranberry_05s.jpg	4	-1	1	0	cranberry_05s.jpg	0	0	0	219.569898702055	219.619875491397	0.0499767893415992
234192	50	559	0	0	parsley	1122	250	1	stimuli\parsley\parsley_07n.jpg	6	-1	1	0	parsley_07n.jpg	0	0	0	219.669896654057	219.719877100539	0.0499804464816407
234292	50	560	0	0	grill	714	251	1	stimuli\grill\grill_08s.jpg	7	-1	1	0	grill_08s.jpg	0	0	0	219.769900945103	219.819877490634	0.0499765455315355
234392	50	561	0	0	tostada	1688	252	1	stimuli\tostada\tostada_02s.jpg	1	-1	1	0	tostada_02s.jpg	0	0	0	219.86990035996	219.919881050253	0.0499806902935234
234492	50	562	0	0	chalk	302	253	1	stimuli\chalk\chalk_05s.jpg	4	-1	1	0	chalk_05s.jpg	0	0	0	219.969900018627	220.019881196538	0.0499811779118318
234592	50	563	0	0	firetruck	596	254	1	stimuli\firetruck\firetruck_09s.jpg	8	-1	1	0	firetruck_09s.jpg	0	0	0	220.069906503957	220.119886462822	0.0499799588651513
234692	50	564	0	0	brush	205	255	1	stimuli\brush\brush_08s.jpg	7	-1	1	0	brush_08s.jpg	0	0	0	220.169903236911	220.219888315774	0.0499850788637559
234792	50	565	0	0	steering_wheel	1546	256	1	stimuli\steering_wheel\steering_wheel_08s.jpg	7	-1	1	0	steering_wheel_08s.jpg	0	0	0	220.269905821291	220.319890168725	0.0499843474335648
234892	50	566	0	0	peanut_butter	1132	257	1	stimuli\peanut_butter\peanut_butter_05s.jpg	4	-1	1	0	peanut_butter_05s.jpg	0	0	0	220.369908161862	220.419900311197	0.0499921493355941
234992	50	567	0	0	flypaper	622	258	1	stimuli\flypaper\flypaper_07s.jpg	6	-1	1	0	flypaper_07s.jpg	0	0	0	220.469921473858	220.519900701292	0.0499792274349602
235092	50	568	0	0	maggot	955	259	1	stimuli\maggot\maggot_06s.jpg	5	-1	1	0	maggot_06s.jpg	0	0	0	220.569919182048	220.619906942815	0.0499877607671806
235192	50	569	0	0	cornucopia	416	260	1	stimuli\cornucopia\cornucopia_03s.jpg	2	-1	1	0	cornucopia_03s.jpg	0	0	0	220.669926154998	220.719908308147	0.0499821531484486
235292	50	570	0	0	bouquet	173	261	1	stimuli\bouquet\bouquet_10s.jpg	9	-1	1	0	bouquet_10s.jpg	0	0	0	220.769927032712	220.819914549669	0.0499875169571169
235392	50	571	0	0	rolling_pin	1328	262	1	stimuli\rolling_pin\rolling_pin_06s.jpg	5	-1	1	0	rolling_pin_06s.jpg	0	0	0	220.869932786614	220.919909819766	0.0499770331516629
235492	50	572	0	0	cherry	316	263	1	stimuli\cherry\cherry_10n.jpg	9	-1	1	0	cherry_10n.jpg	0	0	0	220.969930494806	221.01991508605	0.0499845912436285
235592	50	573	0	0	trap	1702	264	1	stimuli\trap\trap_09s.jpg	8	-1	1	0	trap_09s.jpg	0	0	0	221.069941856325	221.119921815191	0.0499799588651513
235692	50	574	0	0	wand	1780	265	1	stimuli\wand\wand_07s.jpg	6	-1	1	0	wand_07s.jpg	0	0	0	221.169941514992	221.219924643379	0.0499831283868843
235792	50	575	0	0	chest1	319	266	1	stimuli\chest1\chest1_04s.jpg	3	-1	1	0	chest1_04s.jpg	0	0	0	221.269944099373	221.319924545856	0.0499804464834597
235892	50	576	0	0	mustache	1043	267	1	stimuli\mustache\mustache_08s.jpg	7	-1	1	0	mustache_08s.jpg	0	0	0	221.369946683752	221.419927374045	0.0499806902935234
235992	50	577	0	0	guitar	723	268	1	stimuli\guitar\guitar_09n.jpg	8	-1	1	0	guitar_09n.jpg	0	0	0	221.46994975575	221.519931665091	0.0499819093402039
236092	50	578	0	0	football_helmet	630	269	1	stimuli\football_helmet\football_helmet_10s.jpg	9	-1	1	0	football_helmet_10s.jpg	0	0	0	221.569953559178	221.619934737089	0.0499811779118318
236192	50	579	0	0	handkerchief	747	270	1	stimuli\handkerchief\handkerchief_05s.jpg	4	-1	1	0	handkerchief_05s.jpg	0	0	0	221.669954193083	221.719936346231	0.0499821531484486
236292	50	580	0	0	watermelon	1793	271	1	stimuli\watermelon\watermelon_11s.jpg	10	-1	1	0	watermelon_11s.jpg	0	0	0	221.769956046035	221.819934054423	0.0499780083882797
236392	50	581	0	0	dumpster	533	272	1	stimuli\dumpster\dumpster_09s.jpg	8	-1	1	0	dumpster_09s.jpg	0	0	0	221.869954973274	221.919934932137	0.0499799588633323
236492	50	582	0	0	bag	54	273	1	stimuli\bag\bag_03s.jpg	2	-1	1	0	bag_03s.jpg	0	0	0	221.969954144321	222.019945074609	0.0499909302889137
236592	50	583	0	0	rosary	1333	274	1	stimuli\rosary\rosary_11s.jpg	10	-1	1	0	rosary_11s.jpg	0	0	0	222.069964530603	222.119944977087	0.0499804464834597
236692	50	584	0	0	acorn	3	275	1	stimuli\acorn\acorn_10s.jpg	9	-1	1	0	acorn_10s.jpg	0	0	0	222.169964433078	222.219944879562	0.0499804464834597
236792	50	585	0	0	revolving_door	1305	276	1	stimuli\revolving_door\revolving_door_10s.jpg	9	-1	1	0	revolving_door_10s.jpg	0	0	0	222.269968724126	222.319954046798	0.0499853226720006
236892	50	586	0	0	file2	584	277	1	stimuli\file2\file2_09s.jpg	8	-1	1	0	file2_09s.jpg	0	0	0	222.369971552314	222.419953705465	0.0499821531502675
236992	50	587	0	0	mallet	962	278	1	stimuli\mallet\mallet_03s.jpg	2	-1	1	0	mallet_03s.jpg	0	0	0	222.46997584336	222.519956777463	0.0499809341035871
237092	50	588	0	0	lightning_bug	929	279	1	stimuli\lightning_bug\lightning_bug_08s.jpg	7	-1	1	0	lightning_bug_08s.jpg	0	0	0	222.569982816311	222.619957411367	0.0499745950564829
237192	50	589	0	0	slipper	1468	280	1	stimuli\slipper\slipper_01b.jpg	0	-1	1	0	slipper_01b.jpg	0	0	0	222.669978086407	222.719956826224	0.0499787398166518
237292	50	590	0	0	bear	105	281	1	stimuli\bear\bear_06n.jpg	5	-1	1	0	bear_06n.jpg	0	0	0	222.769974819361	222.819968431553	0.0499936121923383
237392	50	591	0	0	soy_sauce	1500	282	1	stimuli\soy_sauce\soy_sauce_12s.jpg	11	-1	1	1	soy_sauce_12s.jpg	0	0	0	222.86998618088	222.919966139745	0.0499799588651513
237492	50	592	0	0	banjo	68	283	1	stimuli\banjo\banjo_04s.jpg	3	-1	1	0	banjo_04s.jpg	0	0	0	222.969986814785	223.019970674601	0.0499838598152564
237592	50	593	0	0	ramp	1283	284	1	stimuli\ramp\ramp_09s.jpg	8	-1	1	0	ramp_09s.jpg	0	0	0	223.069993543926	223.119973746599	0.049980202673396
237692	50	594	0	0	submarine	1577	285	1	stimuli\submarine\submarine_12s.jpg	11	-1	1	0	submarine_12s.jpg	1	0.341922252096992	1	223.169992958783	223.219974624313	0.0499816655301402
237792	50	595	0	0	wax	1795	286	1	stimuli\wax\wax_04s.jpg	3	-1	1	0	wax_04s.jpg	0	0	0	223.269994080307	223.319975258219	0.0499811779118318
237892	50	596	0	0	footbath	631	287	1	stimuli\footbath\footbath_09s.jpg	8	-1	1	0	footbath_09s.jpg	0	0	0	223.369992519925	223.419973941647	0.0499814217218955
237992	50	597	0	0	kangaroo	862	288	1	stimuli\kangaroo\kangaroo_07s.jpg	6	-1	1	0	kangaroo_07s.jpg	0	0	0	223.469996567163	223.519980183168	0.0499836160051927
238092	50	598	0	0	taffy	1615	289	1	stimuli\taffy\taffy_09s.jpg	8	-1	1	0	taffy_09s.jpg	0	0	0	223.570010366777	223.619985693262	0.049975326484855
238192	50	599	0	0	locker	941	290	1	stimuli\locker\locker_03s.jpg	2	-1	1	0	locker_03s.jpg	0	0	0	223.670001004495	223.719984132882	0.0499831283868843
238292	50	600	0	0	fence	575	291	1	stimuli\fence\fence_12s.jpg	11	-1	1	0	fence_12s.jpg	0	0	0	223.770000175542	223.819985985832	0.049985810290309
238392	50	601	0	0	quad	1260	292	1	stimuli\quad\quad_07s.jpg	6	-1	1	0	quad_07s.jpg	0	0	0	223.870014218966	223.919992471165	0.0499782521983434
238492	50	602	0	0	knife	879	293	1	stimuli\knife\knife_03s.jpg	2	-1	1	0	knife_03s.jpg	0	0	0	223.970011927157	224.020018948868	0.0500070217112807
238592	50	603	0	0	blouse	144	294	1	stimuli\blouse\blouse_04s.jpg	3	-1	1	0	blouse_04s.jpg	0	0	0	224.070047182002	224.120009098968	0.0499619169659127
238692	50	604	0	0	scaffolding	1370	295	1	stimuli\scaffolding\scaffolding_12n.jpg	11	-1	1	0	scaffolding_12n.jpg	0	0	0	224.170020996868	224.220009976681	0.0499889798138611
238792	50	605	0	0	hotplate	806	296	1	stimuli\hotplate\hotplate_08s.jpg	7	-1	1	0	hotplate_08s.jpg	0	0	0	224.270021874581	224.320008416302	0.0499865417205001
238892	50	606	0	0	applesauce	32	297	1	stimuli\applesauce\applesauce_01b.jpg	0	-1	1	0	applesauce_01b.jpg	0	0	0	224.370027628485	224.420009537824	0.0499819093383849
238992	50	607	0	0	soap	1487	298	1	stimuli\soap\soap_05s.jpg	4	-1	1	0	soap_05s.jpg	0	0	0	224.470030944292	224.520014072679	0.0499831283868843
239092	50	608	0	0	tarp	1628	299	1	stimuli\tarp\tarp_01b.jpg	0	-1	1	0	tarp_01b.jpg	0	0	0	224.570034260101	224.620013731346	0.0499794712450239
239192	50	609	0	0	onion	1077	300	1	stimuli\onion\onion_12n.jpg	11	-1	1	0	onion_12n.jpg	0	0	0	224.67003343115	224.720014365252	0.0499809341017681
239292	50	610	0	0	pliers	1201	301	1	stimuli\pliers\pliers_04s.jpg	3	-1	1	0	pliers_04s.jpg	0	0	0	224.770033821243	224.820017924869	0.0499841036253201
239392	50	611	0	0	blender	138	302	1	stimuli\blender\blender_02s.jpg	1	-1	1	0	blender_02s.jpg	0	0	0	224.870041038004	224.920018802582	0.049977764578216
239492	50	612	0	0	album	11	303	1	stimuli\album\album_02s.jpg	1	-1	1	0	album_02s.jpg	0	0	0	224.970042159526	225.020039185052	0.0499970255259541
239592	50	613	0	0	frog	644	304	1	stimuli\frog\frog_03s.jpg	2	-1	1	0	frog_03s.jpg	0	0	0	225.070048644859	225.12002957896	0.0499809341017681
239692	50	614	0	0	bubble_wrap	208	305	1	stimuli\bubble_wrap\bubble_wrap_11s.jpg	10	-1	1	0	bubble_wrap_11s.jpg	0	0	0	225.170043427335	225.220028262389	0.0499848350536922
239792	50	615	0	0	mold1	1012	306	1	stimuli\mold1\mold1_02s.jpg	1	-1	1	0	mold1_02s.jpg	0	0	0	225.270039185052	225.320030115341	0.0499909302889137
239892	50	616	0	0	knitting_needle	881	307	1	stimuli\knitting_needle\knitting_needle_05s.jpg	4	-1	1	0	knitting_needle_05s.jpg	0	0	0	225.370047133239	225.420033918768	0.0499867855287448
239992	50	617	0	0	buggy	213	308	1	stimuli\buggy\buggy_03s.jpg	2	-1	1	0	buggy_03s.jpg	0	0	0	225.470054106188	225.520051619333	0.0499975131442625
252709	50	618	0	0	undershirt	1744	0	2	stimuli\undershirt\undershirt_10s.jpg	9	-1	2	0	undershirt_10s.jpg	0	0	0	238.187081318249	238.23705810759	0.0499767893415992
252809	50	619	0	0	nest	1056	1	2	stimuli\nest\nest_11s.jpg	10	-1	2	0	nest_11s.jpg	0	0	0	238.287079026439	238.337058253876	0.0499792274367792
252909	50	620	0	0	badger	53	2	2	stimuli\badger\badger_07s.jpg	6	-1	2	0	badger_07s.jpg	0	0	0	238.387080147962	238.437040602072	0.0499604541091685
253009	50	621	0	0	traffic_light	1696	3	2	stimuli\traffic_light\traffic_light_08s.jpg	7	-1	2	0	traffic_light_08s.jpg	0	0	0	238.487067128539	238.537045136927	0.0499780083882797
253109	50	622	0	0	scrambled_egg	1386	4	2	stimuli\scrambled_egg\scrambled_egg_09s.jpg	8	-1	2	0	scrambled_egg_09s.jpg	0	0	0	238.587062154826	238.637048208926	0.0499860541003727
253209	50	623	0	0	sea_urchin	1393	5	2	stimuli\sea_urchin\sea_urchin_09s.jpg	8	-1	2	0	sea_urchin_09s.jpg	0	0	0	238.687064007778	238.737048842831	0.0499848350536922
253309	50	624	0	0	tomato	1672	6	2	stimuli\tomato\tomato_07s.jpg	6	-1	2	0	tomato_07s.jpg	0	0	0	238.787068542633	238.837053865305	0.0499853226720006
253409	50	625	0	0	stomach	1560	7	2	stimuli\stomach\stomach_05s.jpg	4	-1	2	0	stomach_05s.jpg	0	0	0	238.887077466059	238.937053036354	0.0499755702949187
253509	50	626	0	0	lifesaver	925	8	2	stimuli\lifesaver\lifesaver_05s.jpg	4	-1	2	0	lifesaver_05s.jpg	0	0	0	238.987068103776	239.037053182639	0.0499850788637559
253609	50	627	0	0	doorknocker	510	9	2	stimuli\doorknocker\doorknocker_08s.jpg	7	-1	2	0	doorknocker_08s.jpg	0	0	0	239.087075076726	239.137344681199	0.0502696044732147
253709	50	628	0	0	green_beans	712	10	2	stimuli\green_beans\green_beans_06s.jpg	5	-1	2	0	green_beans_06s.jpg	0	0	0	239.187078636343	239.237062983779	0.0499843474353838
253809	50	629	0	0	hay	761	11	2	stimuli\hay\hay_11s.jpg	10	-1	2	0	hay_11s.jpg	0	0	0	239.287082439771	239.337065080539	0.0499826407685759
253909	50	630	0	0	pennant	1148	12	2	stimuli\pennant\pennant_12s.jpg	11	-1	2	0	pennant_12s.jpg	0	0	0	239.387084048913	239.437065958253	0.0499819093402039
254009	50	631	0	0	teapot	1634	13	2	stimuli\teapot\teapot_03s.jpg	2	-1	2	0	teapot_03s.jpg	0	0	0	239.487086633293	239.537067079777	0.0499804464834597
254109	50	632	0	0	octopus	1070	14	2	stimuli\octopus\octopus_09s.jpg	8	-1	2	0	octopus_09s.jpg	0	0	0	239.587089217674	239.637071127014	0.0499819093402039
254209	50	633	0	0	tadpole	1614	15	2	stimuli\tadpole\tadpole_09s.jpg	8	-1	2	0	tadpole_09s.jpg	0	0	0	239.687087413484	239.737077124726	0.0499897112422332
254309	50	634	0	0	biscuit	133	16	2	stimuli\biscuit\biscuit_07s.jpg	6	-1	2	0	biscuit_07s.jpg	0	0	0	239.787091948339	239.837076295773	0.0499843474335648
254409	50	635	0	0	solar_panel	1493	17	2	stimuli\solar_panel\solar_panel_01b.jpg	0	-1	2	0	solar_panel_01b.jpg	0	0	0	239.887095020338	239.937079855392	0.0499848350536922
254509	50	636	0	0	dough	513	18	2	stimuli\dough\dough_07s.jpg	6	-1	2	0	dough_07s.jpg	0	0	0	239.987093947577	240.037086584531	0.0499926369539025
254609	50	637	0	0	pinwheel	1185	19	2	stimuli\pinwheel\pinwheel_02s.jpg	1	-1	2	0	pinwheel_02s.jpg	0	0	0	240.087101408146	240.137084292723	0.0499828845768207
254709	50	638	0	0	license_plate	921	20	2	stimuli\license_plate\license_plate_12s.jpg	11	-1	2	0	license_plate_12s.jpg	0	0	0	240.187105211573	240.237113696141	0.0500084845680249
254809	50	639	0	0	tab	1607	21	2	stimuli\tab\tab_07s.jpg	6	-1	2	0	tab_07s.jpg	0	0	0	240.287111209285	240.337092874815	0.0499816655301402
254909	50	640	0	0	moth	1023	22	2	stimuli\moth\moth_01b.jpg	0	-1	2	0	moth_01b.jpg	0	0	0	240.387104772715	240.437093508719	0.0499887360037974
255009	50	641	0	0	snow	1479	23	2	stimuli\snow\snow_08s.jpg	7	-1	2	0	snow_08s.jpg	0	0	0	240.487112720903	240.537099018813	0.0499862979104364
255109	50	642	0	0	basil	81	24	2	stimuli\basil\basil_10s.jpg	9	-1	2	0	basil_10s.jpg	0	0	0	240.587115305283	240.637096970813	0.0499816655301402
255209	50	643	0	0	lollipop	945	25	2	stimuli\lollipop\lollipop_01b.jpg	0	-1	2	0	lollipop_01b.jpg	0	0	0	240.687111794427	240.73709662948	0.0499848350536922
255309	50	644	0	0	toilet_paper	1671	26	2	stimuli\toilet_paper\toilet_paper_11s.jpg	10	-1	2	0	toilet_paper_11s.jpg	0	0	0	240.787119254996	240.837101164336	0.0499819093402039
255409	50	645	0	0	cockatoo	372	27	2	stimuli\cockatoo\cockatoo_11s.jpg	10	-1	2	0	cockatoo_11s.jpg	0	0	0	240.887116719377	240.937104236335	0.0499875169571169
255509	50	646	0	0	chicken2	323	28	2	stimuli\chicken2\chicken2_07s.jpg	6	-1	2	0	chicken2_07s.jpg	0	0	0	240.98711881614	241.037107064523	0.04998824838367
255609	50	647	0	0	velcro	1756	29	2	stimuli\velcro\velcro_10s.jpg	9	-1	2	0	velcro_10s.jpg	0	0	0	241.087122131947	241.137108429857	0.0499862979104364
255709	50	648	0	0	oatmeal	1069	30	2	stimuli\oatmeal\oatmeal_02s.jpg	1	-1	2	0	oatmeal_02s.jpg	0	0	0	241.187125203945	241.237112233284	0.0499870293388085
255809	50	649	0	0	cross	443	31	2	stimuli\cross\cross_05s.jpg	4	-1	2	0	cross_05s.jpg	0	0	0	241.287130226421	241.337111648141	0.0499814217200765
255909	50	650	0	0	penguin	1145	32	2	stimuli\penguin\penguin_05s.jpg	4	-1	2	0	penguin_05s.jpg	0	0	0	241.387135005085	241.437115695378	0.0499806902935234
256010	50	651	0	0	soup	1499	33	2	stimuli\soup\soup_07s.jpg	6	-1	2	0	soup_07s.jpg	0	0	0	241.487141734226	241.537125106423	0.049983372196948
