onset	duration	eventnumber	blocksequencenumber	isteststim	object	objectnumber	presentationnumber	sequencenumber	stim	stimnumber	teststimnumber	withinsequencenumber	istarget	stimname	response	rt	correct	time_stimon	time_stimoff	stimdur
91448	50	0	0	0	pig	1170	0	0	stimuli\pig\pig_04s.jpg	3	-1	0	0	pig_04s.jpg	0	0	0	81.3126940721413	81.3626683746697	0.0499743025284261
91548	50	1	0	0	bandage	66	1	0	stimuli\bandage\bandage_09s.jpg	8	-1	0	0	bandage_09s.jpg	0	0	0	81.412694120896	81.4626591587439	0.0499650378478691
91648	50	2	0	0	kneepad	878	2	0	stimuli\kneepad\kneepad_10s.jpg	9	-1	0	0	kneepad_10s.jpg	0	0	0	81.5126907563535	81.5626745674526	0.0499838110990822
91748	50	3	0	0	meat_grinder	988	3	0	stimuli\meat_grinder\meat_grinder_12s.jpg	11	-1	0	0	meat_grinder_12s.jpg	0	0	0	81.6127064089524	81.6626765666297	0.0499701576773077
91848	50	4	0	0	pinecone	1183	4	0	stimuli\pinecone\pinecone_03s.jpg	2	-1	0	0	pinecone_03s.jpg	0	0	0	81.7126976805739	81.7626783221494	0.0499806415755302
91948	50	5	0	0	apple	30	5	0	stimuli\apple\apple_02s.jpg	1	-1	0	0	apple_02s.jpg	0	0	0	81.8126996797509	81.8631055245642	0.0504058448132128
92048	50	6	0	0	couch	422	6	0	stimuli\couch\couch_05s.jpg	4	-1	0	0	couch_05s.jpg	0	0	0	81.912703385693	81.9626835396048	0.049980153911747
92148	50	7	0	0	loveseat	947	7	0	stimuli\loveseat\loveseat_01b.jpg	0	-1	0	0	loveseat_01b.jpg	0	0	0	82.0127058725338	82.0626772493124	0.0499713767785579
92248	50	8	0	0	toast	1665	8	0	stimuli\toast\toast_07s.jpg	6	-1	0	0	toast_07s.jpg	0	0	0	82.1126895861235	82.1626597438008	0.0499701576773077
92348	50	9	0	0	missile	1006	9	0	stimuli\missile\missile_05s.jpg	4	-1	0	0	missile_05s.jpg	0	0	0	82.2126781757688	82.2626612554304	0.0499830796616152
92448	50	10	0	0	tortellini	1686	10	0	stimuli\tortellini\tortellini_06s.jpg	5	-1	0	0	tortellini_06s.jpg	0	0	0	82.3126862703357	82.3626634984976	0.0499772281618789
92548	50	11	0	0	eyepiece	568	11	0	stimuli\eyepiece\eyepiece_04s.jpg	3	-1	0	0	eyepiece_04s.jpg	0	0	0	82.4126833933406	82.4626693986356	0.049986005295068
92648	50	12	0	0	ruby	1338	12	0	stimuli\ruby\ruby_10s.jpg	9	-1	0	0	ruby_10s.jpg	0	0	0	82.5126912440173	82.5626735922415	0.0499823482241482
92748	50	13	0	0	tile	1660	13	0	stimuli\tile\tile_03s.jpg	2	-1	0	0	tile_03s.jpg	0	0	0	82.6126934870845	82.6626765666297	0.0499830795451999
92848	50	14	0	0	chime	328	14	0	stimuli\chime\chime_05s.jpg	4	-1	0	0	chime_05s.jpg	0	0	0	82.7127225490985	82.7627097734949	0.0499872243963182
92948	50	15	0	0	banner	70	15	0	stimuli\banner\banner_05s.jpg	4	-1	0	0	banner_05s.jpg	0	0	0	82.8127286931267	82.8627068964997	0.0499782033730298
93048	50	16	0	0	nut	1066	16	0	stimuli\nut\nut_11s.jpg	10	-1	0	0	nut_11s.jpg	0	0	0	82.9127111876151	82.9627081643557	0.0499969767406583
93148	50	17	0	0	minivan	1003	17	0	stimuli\minivan\minivan_10s.jpg	9	-1	0	0	minivan_10s.jpg	0	0	0	83.0127302535111	83.0627118702978	0.0499816167866811
93248	50	18	0	0	generator	671	18	0	stimuli\generator\generator_07s.jpg	6	-1	0	0	generator_07s.jpg	0	0	0	83.1127334717894	83.1626972904196	0.0499638186302036
93348	50	19	0	0	bobsled	155	19	0	stimuli\bobsled\bobsled_12s.jpg	11	-1	0	0	bobsled_12s.jpg	0	0	0	83.2127335205441	83.2627139182296	0.0499803976854309
93448	50	20	0	0	doormat	511	20	0	stimuli\doormat\doormat_04s.jpg	3	-1	0	0	doormat_04s.jpg	0	0	0	83.3127269863617	83.3627212812426	0.0499942948808894
93548	50	21	0	0	squash	1526	21	0	stimuli\squash\squash_09s.jpg	8	-1	0	0	squash_09s.jpg	0	0	0	83.4127387379995	83.4627201110125	0.0499813730129972
93648	50	22	0	0	ham	739	22	0	stimuli\ham\ham_07s.jpg	6	-1	0	0	ham_07s.jpg	0	0	0	83.512745369575	83.5627247921657	0.0499794225906953
93748	50	23	0	0	bathtub	91	23	0	stimuli\bathtub\bathtub_06s.jpg	5	-1	0	0	bathtub_06s.jpg	0	0	0	83.6127293269383	83.6627287418814	0.0499994149431586
93848	50	24	0	0	kale	860	24	0	stimuli\kale\kale_07s.jpg	6	-1	0	0	kale_07s.jpg	0	0	0	83.7127344957553	83.7627319601597	0.0499974644044414
93948	50	25	0	0	videocassette	1761	25	0	stimuli\videocassette\videocassette_11n.jpg	10	-1	0	0	videocassette_11n.jpg	0	0	0	83.8127508796751	83.862735178438	0.0499842987628654
94048	50	26	0	0	cat	284	26	0	stimuli\cat\cat_01b.jpg	0	-1	0	0	cat_01b.jpg	0	0	0	83.9127516598674	83.9627335205441	0.0499818606767803
94148	50	27	0	0	potpourri	1235	27	0	stimuli\potpourri\potpourri_09s.jpg	8	-1	0	0	potpourri_09s.jpg	0	0	0	84.0127536591608	84.0627372263698	0.049983567208983
94248	50	28	0	0	gun	727	28	0	stimuli\gun\gun_07n.jpg	6	-1	0	0	gun_07n.jpg	0	0	0	84.1127590717515	84.1627219151706	0.0499628434190527
94348	50	29	0	0	hippopotamus	781	29	0	stimuli\hippopotamus\hippopotamus_04s.jpg	3	-1	0	0	hippopotamus_04s.jpg	0	0	0	84.212747905287	84.2627426877152	0.0499947824282572
94448	50	30	0	0	kangaroo	862	30	0	stimuli\kangaroo\kangaroo_11s.jpg	10	-1	0	0	kangaroo_11s.jpg	0	0	0	84.312765264418	84.3627444431186	0.0499791787005961
94548	50	31	0	0	ferry	580	31	0	stimuli\ferry\ferry_10s.jpg	9	-1	0	0	ferry_10s.jpg	0	0	0	84.4127655570628	84.4627491242718	0.049983567208983
94648	50	32	0	0	towel_rack	1693	32	0	stimuli\towel_rack\towel_rack_01b.jpg	0	-1	0	0	towel_rack_01b.jpg	0	0	0	84.5127651181538	84.5627503921278	0.0499852739740163
94748	50	33	0	0	scooter	1382	33	0	stimuli\scooter\scooter_07s.jpg	6	-1	0	0	scooter_07s.jpg	0	0	0	84.6127705307445	84.6627538541798	0.0499833234352991
94848	50	34	0	0	eagle	537	34	0	stimuli\eagle\eagle_06s.jpg	5	-1	0	0	eagle_06s.jpg	0	0	0	84.7127725299215	84.7627526839497	0.0499801540281624
94948	50	35	0	0	lip_gloss	935	35	0	stimuli\lip_gloss\lip_gloss_05s.jpg	4	-1	0	0	lip_gloss_05s.jpg	0	0	0	84.8127603882458	84.8627339593368	0.049973571090959
95048	50	36	0	0	clipper2	357	36	0	stimuli\clipper2\clipper2_04s.jpg	3	-1	0	0	clipper2_04s.jpg	0	0	0	84.9127487342339	84.9627598519437	0.0500111177098006
95148	50	37	0	0	sequin	1404	37	0	stimuli\sequin\sequin_05s.jpg	4	-1	0	0	sequin_05s.jpg	0	0	0	85.0127804781077	85.0627623387845	0.0499818606767803
95248	50	38	0	0	flute	620	38	0	stimuli\flute\flute_02s.jpg	1	-1	0	0	flute_02s.jpg	0	0	0	85.1127666297834	85.1627643379616	0.0499977081781253
95348	50	39	0	0	sandcastle	1355	39	0	stimuli\sandcastle\sandcastle_06s.jpg	5	-1	0	0	sandcastle_06s.jpg	0	0	0	85.212786427117	85.2627497581998	0.0499633310828358
95448	50	40	0	0	hammock	742	40	0	stimuli\hammock\hammock_07s.jpg	6	-1	0	0	hammock_07s.jpg	0	0	0	85.3127896453952	85.3627671174472	0.0499774720519781
95548	50	41	0	0	cardboard	272	41	0	stimuli\cardboard\cardboard_11s.jpg	10	-1	0	0	cardboard_11s.jpg	0	0	0	85.41278969415	85.4627544881077	0.0499647939577699
95648	50	42	0	0	window	1818	42	0	stimuli\window\window_10s.jpg	9	-1	0	0	window_10s.jpg	0	0	0	85.5127938876394	85.5627718473552	0.0499779597157612
95748	50	43	0	0	stretcher	1572	43	0	stimuli\stretcher\stretcher_12s.jpg	11	-1	0	0	stretcher_12s.jpg	0	0	0	85.6127980811289	85.6627753094072	0.0499772282782942
95848	50	44	0	0	wire	1828	44	0	stimuli\wire\wire_07s.jpg	6	-1	0	0	wire_07s.jpg	0	0	0	85.7127808195073	85.7627629238414	0.0499821043340489
95948	50	45	0	0	dishrag	490	45	0	stimuli\dishrag\dishrag_10s.jpg	9	-1	0	0	dishrag_10s.jpg	0	0	0	85.8127981787547	85.8627600469626	0.0499618682079017
96048	50	46	0	0	latch	900	46	0	stimuli\latch\latch_04s.jpg	3	-1	0	0	latch_04s.jpg	0	0	0	85.9127711646724	85.962754000444	0.049982835771516
96148	50	47	0	0	punching_bag	1256	47	0	stimuli\punching_bag\punching_bag_10s.jpg	9	-1	0	0	punching_bag_10s.jpg	0	0	0	86.0127785276854	86.0627933024662	0.0500147747807205
96248	50	48	0	0	headscarf	768	48	0	stimuli\headscarf\headscarf_01b.jpg	0	-1	0	0	headscarf_01b.jpg	0	0	0	86.1127963744802	86.1627894503763	0.0499930758960545
96348	50	49	0	0	bathrobe	90	49	0	stimuli\bathrobe\bathrobe_04s.jpg	3	-1	0	0	bathrobe_04s.jpg	0	0	0	86.2127932537114	86.2627912057796	0.0499979520682245
96448	50	50	0	0	place_mat	1193	50	0	stimuli\place_mat\place_mat_07s.jpg	6	-1	0	0	place_mat_07s.jpg	0	0	0	86.312815489131	86.3627958869329	0.0499803978018463
96548	50	51	0	0	airboat	8	51	0	stimuli\airboat\airboat_02s.jpg	1	-1	0	0	airboat_02s.jpg	0	0	0	86.4128196826205	86.4627995927585	0.0499799101380631
96648	50	52	0	0	detonator	482	52	0	stimuli\detonator\detonator_07s.jpg	6	-1	0	0	detonator_07s.jpg	0	0	0	86.5128190000542	86.5628011043882	0.0499821043340489
96748	50	53	0	0	cardinal	274	53	0	stimuli\cardinal\cardinal_11s.jpg	10	-1	0	0	cardinal_11s.jpg	0	0	0	86.61282002402	86.6627874998376	0.0499674758175388
96848	50	54	0	0	cooker	399	54	0	stimuli\cooker\cooker_08s.jpg	7	-1	0	0	cooker_08s.jpg	0	0	0	86.7128244612832	86.7627865733812	0.0499621120980009
96948	50	55	0	0	wick	1815	55	0	stimuli\wick\wick_09s.jpg	8	-1	0	0	wick_09s.jpg	0	0	0	86.8128274357878	86.8628107592231	0.0499833234352991
97048	50	56	0	0	painting	1098	56	0	stimuli\painting\painting_03s.jpg	2	-1	0	0	painting_03s.jpg	0	0	0	86.9128294350812	86.962813489954	0.0499840548727661
97148	50	57	0	0	handlebar	749	57	0	stimuli\handlebar\handlebar_02s.jpg	1	-1	0	0	handlebar_02s.jpg	0	0	0	87.0128168057417	87.0628142701462	0.0499974644044414
97248	50	58	0	0	suitcase	1581	58	0	stimuli\suitcase\suitcase_05s.jpg	4	-1	0	0	suitcase_05s.jpg	0	0	0	87.1128324582241	87.1628126122523	0.0499801540281624
97348	50	59	0	0	dishwasher	491	59	0	stimuli\dishwasher\dishwasher_09s.jpg	8	-1	0	0	dishwasher_09s.jpg	0	0	0	87.2128364079399	87.262800958124	0.049964550184086
97448	50	60	0	0	frisbee	643	60	0	stimuli\frisbee\frisbee_07s.jpg	6	-1	0	0	frisbee_07s.jpg	0	0	0	87.3128388947807	87.3628041764023	0.049965281621553
97548	50	61	0	0	sausage	1365	61	0	stimuli\sausage\sausage_04s.jpg	3	-1	0	0	sausage_04s.jpg	0	0	0	87.4128408940742	87.4628244612832	0.049983567208983
97648	50	62	0	0	pastry	1124	62	0	stimuli\pastry\pastry_08s.jpg	7	-1	0	0	pastry_08s.jpg	0	0	0	87.5128258266486	87.5628084186465	0.0499825919978321
97748	50	63	0	0	licorice	922	63	0	stimuli\licorice\licorice_07s.jpg	6	-1	0	0	licorice_07s.jpg	0	0	0	87.612848549732	87.6628274845425	0.0499789348104969
97848	50	64	0	0	lamppost	892	64	0	stimuli\lamppost\lamppost_03s.jpg	2	-1	0	0	lamppost_03s.jpg	0	0	0	87.7128471356118	87.7628321656957	0.0499850300839171
97948	50	65	0	0	mallet	962	65	0	stimuli\mallet\mallet_02s.jpg	1	-1	0	0	mallet_02s.jpg	0	0	0	87.8128515728749	87.8628339210991	0.0499823482241482
98048	50	66	0	0	biscuit	133	66	0	stimuli\biscuit\biscuit_06s.jpg	5	-1	0	0	biscuit_06s.jpg	0	0	0	87.9128533283947	87.9628271432593	0.0499738148646429
98148	50	67	0	0	rubber_band	1337	67	0	stimuli\rubber_band\rubber_band_11s.jpg	10	-1	0	0	rubber_band_11s.jpg	0	0	0	88.0128597161965	88.062838651007	0.0499789348104969
98248	50	68	0	0	plate	1197	68	0	stimuli\plate\plate_08s.jpg	7	-1	0	0	plate_08s.jpg	0	0	0	88.1128590335138	88.1628386997618	0.0499796662479639
98348	50	69	0	0	gauze	664	69	0	stimuli\gauze\gauze_07s.jpg	6	-1	0	0	gauze_07s.jpg	0	0	0	88.2128610326909	88.2628258266486	0.0499647939577699
98448	50	70	0	0	tuning_fork	1728	70	0	stimuli\tuning_fork\tuning_fork_12s.jpg	11	-1	0	0	tuning_fork_12s.jpg	0	0	0	88.3128642509691	88.3628463554196	0.0499821044504642
98548	50	71	0	0	mouse2	1027	71	0	stimuli\mouse2\mouse2_06s.jpg	5	-1	0	0	mouse2_06s.jpg	0	0	0	88.4128633245127	88.4628334823065	0.049970157793723
98648	50	72	0	0	chest2	320	72	0	stimuli\chest2\chest2_12s.jpg	11	-1	0	0	chest2_12s.jpg	0	0	0	88.5128684933297	88.5628535234137	0.0499850300839171
98748	50	73	0	0	tube_top	1724	73	0	stimuli\tube_top\tube_top_08s.jpg	7	-1	0	0	tube_top_08s.jpg	0	0	0	88.6128731743665	88.6628386997618	0.0499655253952369
98848	50	74	0	0	cummerbund	459	74	0	stimuli\cummerbund\cummerbund_09s.jpg	8	-1	0	0	cummerbund_09s.jpg	0	0	0	88.7128727355739	88.7628519142745	0.0499791787005961
98948	50	75	0	0	jellyfish	845	75	0	stimuli\jellyfish\jellyfish_06s.jpg	5	-1	0	0	jellyfish_06s.jpg	0	0	0	88.8128835118841	88.8628602524986	0.0499767406145111
99048	50	76	0	0	dirt_bike	488	76	0	stimuli\dirt_bike\dirt_bike_07s.jpg	6	-1	0	0	dirt_bike_07s.jpg	0	0	0	88.9128769778181	88.9628588383785	0.049981860560365
99148	50	77	0	0	barnacle	75	77	0	stimuli\barnacle\barnacle_07s.jpg	6	-1	0	0	barnacle_07s.jpg	0	0	0	89.0128743447131	89.0628657138441	0.0499913691310212
99248	50	78	0	0	banana_split	65	78	0	stimuli\banana_split\banana_split_01b.jpg	0	-1	0	0	banana_split_01b.jpg	0	0	0	89.1128860963508	89.1628708825447	0.0499847861938179
99348	50	79	0	0	monkey	1017	79	0	stimuli\monkey\monkey_12s.jpg	11	-1	0	0	monkey_12s.jpg	0	0	0	89.2128868765431	89.2628694685409	0.0499825919978321
99448	50	80	0	0	float	616	80	0	stimuli\float\float_06s.jpg	5	-1	0	0	float_06s.jpg	0	0	0	89.3128893633839	89.3628702487331	0.0499808853492141
99548	50	81	0	0	tongue	1675	81	0	stimuli\tongue\tongue_08s.jpg	7	-1	0	0	tongue_08s.jpg	0	0	0	89.4128913625609	89.4628464041743	0.0499550416134298
99648	50	82	0	0	projector	1242	82	0	stimuli\projector\projector_10s.jpg	9	-1	0	0	projector_10s.jpg	0	0	0	89.5128648361424	89.5628803423606	0.0500155062181875
99748	50	83	0	0	sailboat	1347	83	0	stimuli\sailboat\sailboat_05s.jpg	4	-1	0	0	sailboat_05s.jpg	0	0	0	89.6129187666811	89.6628774654819	0.049958698800765
99848	50	84	0	0	blowgun	147	84	0	stimuli\blowgun\blowgun_05s.jpg	4	-1	0	0	blowgun_05s.jpg	0	0	0	89.7128958974499	89.7628794646589	0.049983567208983
99948	50	85	0	0	oyster	1092	85	0	stimuli\oyster\oyster_05s.jpg	4	-1	0	0	oyster_05s.jpg	0	0	0	89.8129015538143	89.8628846334759	0.0499830796616152
100048	50	86	0	0	valve	1751	86	0	stimuli\valve\valve_09s.jpg	8	-1	0	0	valve_09s.jpg	0	0	0	89.9129047720926	89.9628832193557	0.0499784472631291
100148	50	87	0	0	book	165	87	0	stimuli\book\book_01b.jpg	0	-1	0	0	book_01b.jpg	0	0	0	90.012910428457	90.0628876566188	0.0499772281618789
100248	50	88	0	0	chaps	306	88	0	stimuli\chaps\chaps_11s.jpg	10	-1	0	0	chaps_11s.jpg	0	0	0	90.1129107209854	90.1628735645209	0.049962843535468
100348	50	89	0	0	home_plate	787	89	0	stimuli\home_plate\home_plate_08s.jpg	7	-1	0	0	home_plate_08s.jpg	0	0	0	90.2129119888414	90.2628814151976	0.049969426356256
100448	50	90	0	0	phone	1161	90	0	stimuli\phone\phone_08s.jpg	7	-1	0	0	phone_08s.jpg	0	0	0	90.3129142319085	90.3628982867813	0.0499840548727661
100548	50	91	0	0	headphones	766	91	0	stimuli\headphones\headphones_11s.jpg	10	-1	0	0	headphones_11s.jpg	0	0	0	90.4129184253979	90.4628973603249	0.0499789349269122
100648	50	92	0	0	potato	1231	92	0	stimuli\potato\potato_08s.jpg	7	-1	0	0	potato_08s.jpg	0	0	0	90.5129292017082	90.5629076489713	0.0499784472631291
100748	50	93	0	0	vise	1765	93	0	stimuli\vise\vise_10s.jpg	9	-1	0	0	vise_10s.jpg	0	0	0	90.6129221800948	90.6628945320845	0.0499723519897088
100848	50	94	0	0	button2	231	94	0	stimuli\button2\button2_05s.jpg	4	-1	0	0	button2_05s.jpg	0	0	0	90.7129266173579	90.7629026265349	0.049976009177044
100948	50	95	0	0	sushi	1588	95	0	stimuli\sushi\sushi_09s.jpg	8	-1	0	0	sushi_09s.jpg	0	0	0	90.8129276414402	90.8629109648755	0.0499833234352991
101048	50	96	0	0	sundial	1583	96	0	stimuli\sundial\sundial_12s.jpg	11	-1	0	0	sundial_12s.jpg	0	0	0	90.9129289091798	90.9629105259664	0.0499816167866811
101148	50	97	0	0	breakfast	197	97	0	stimuli\breakfast\breakfast_01b.jpg	0	-1	0	0	breakfast_01b.jpg	0	0	0	91.0129328588955	91.0629127690336	0.0499799101380631
101248	50	98	0	0	lavender	904	98	0	stimuli\lavender\lavender_06s.jpg	5	-1	0	0	lavender_06s.jpg	0	0	0	91.112939490471	91.1628996520303	0.0499601615592837
101348	50	99	0	0	christmas_card	340	99	0	stimuli\christmas_card\christmas_card_11s.jpg	10	-1	0	0	christmas_card_11s.jpg	0	0	0	91.2129388077883	91.2629245694261	0.0499857616377994
101448	50	100	0	0	thumb	1653	100	0	stimuli\thumb\thumb_05s.jpg	4	-1	0	0	thumb_05s.jpg	0	0	0	91.3129410508554	91.3629068200244	0.0499657691689208
101548	50	101	0	0	comic_book	391	101	0	stimuli\comic_book\comic_book_11s.jpg	10	-1	0	0	comic_book_11s.jpg	0	0	0	91.4129286654061	91.462921497412	0.0499928320059553
101648	50	102	0	0	grill	714	102	0	stimuli\grill\grill_07s.jpg	6	-1	0	0	grill_07s.jpg	0	0	0	91.5129306645831	91.5629264223389	0.0499957577558234
101748	50	103	0	0	ladle	887	103	0	stimuli\ladle\ladle_08s.jpg	7	-1	0	0	ladle_08s.jpg	0	0	0	91.6129480238305	91.6629267148674	0.049978691036813
101848	50	104	0	0	jetski	848	104	0	stimuli\jetski\jetski_03s.jpg	2	-1	0	0	jetski_03s.jpg	0	0	0	91.7129548992962	91.762933590333	0.049978691036813
101948	50	105	0	0	leggings	912	105	0	stimuli\leggings\leggings_06s.jpg	5	-1	0	0	leggings_06s.jpg	0	0	0	91.8129542166134	91.8629343705252	0.049980153911747
102048	50	106	0	0	dolphin	502	106	0	stimuli\dolphin\dolphin_06s.jpg	5	-1	0	0	dolphin_06s.jpg	0	0	0	91.9129530462669	91.9629361259285	0.0499830796616152
102148	50	107	0	0	seafood	1394	107	0	stimuli\seafood\seafood_06s.jpg	5	-1	0	0	seafood_06s.jpg	0	0	0	92.0129577274201	92.0629361746833	0.0499784472631291
102248	50	108	0	0	exhaust_pipe	562	108	0	stimuli\exhaust_pipe\exhaust_pipe_07s.jpg	6	-1	0	0	exhaust_pipe_07s.jpg	0	0	0	92.1129609456984	92.1629228139063	0.0499618682079017
102348	50	109	0	0	cellphone	293	109	0	stimuli\cellphone\cellphone_09s.jpg	8	-1	0	0	cellphone_09s.jpg	0	0	0	92.2129634325393	92.2629309084732	0.0499674759339541
102448	50	110	0	0	quilt	1264	110	0	stimuli\quilt\quilt_03s.jpg	2	-1	0	0	quilt_03s.jpg	0	0	0	92.3129666508175	92.3629480238305	0.0499813730129972
102548	50	111	0	0	oar	1068	111	0	stimuli\oar\oar_07s.jpg	6	-1	0	0	oar_07s.jpg	0	0	0	92.4129462196724	92.4629256421467	0.04997942247428
102648	50	112	0	0	clove	365	112	0	stimuli\clove\clove_01b.jpg	0	-1	0	0	clove_01b.jpg	0	0	0	92.5129718683893	92.5629356871359	0.0499638187466189
102748	50	113	0	0	camcorder	244	113	0	stimuli\camcorder\camcorder_07s.jpg	6	-1	0	0	camcorder_07s.jpg	0	0	0	92.6129714294802	92.6629523148295	0.0499808853492141
102848	50	114	0	0	egg	546	114	0	stimuli\egg\egg_09s.jpg	8	-1	0	0	egg_09s.jpg	0	0	0	92.7129712344613	92.7629543141229	0.0499830796616152
102948	50	115	0	0	lion	933	115	0	stimuli\lion\lion_10s.jpg	9	-1	0	0	lion_10s.jpg	0	0	0	92.8129737213021	92.8629585076123	0.0499847863102332
103048	50	116	0	0	flower	619	116	0	stimuli\flower\flower_01b.jpg	0	-1	0	0	flower_01b.jpg	0	0	0	92.9129779147916	92.9629597754683	0.0499818606767803
103148	50	117	0	0	chive	337	117	0	stimuli\chive\chive_06s.jpg	5	-1	0	0	chive_06s.jpg	0	0	0	93.0129801578587	93.0629561670357	0.049976009177044
103248	50	118	0	0	sandal	1352	118	0	stimuli\sandal\sandal_02s.jpg	1	-1	0	0	sandal_02s.jpg	0	0	0	93.1129841075744	93.1629498767434	0.0499657691689208
103348	50	119	0	0	rolling_pin	1328	119	0	stimuli\rolling_pin\rolling_pin_10s.jpg	9	-1	0	0	rolling_pin_10s.jpg	0	0	0	93.2129709906876	93.2629745502491	0.0500035595614463
103448	50	120	0	0	toothpick	1681	120	0	stimuli\toothpick\toothpick_02s.jpg	1	-1	0	0	toothpick_02s.jpg	0	0	0	93.3129951765295	93.3629711857066	0.049976009177044
103548	50	121	0	0	clipper1	356	121	0	stimuli\clipper1\clipper1_02s.jpg	1	-1	0	0	clipper1_02s.jpg	0	0	0	93.4129925434245	93.4629707467975	0.0499782033730298
103648	50	122	0	0	sweater	1592	122	0	stimuli\sweater\sweater_05s.jpg	4	-1	0	0	sweater_05s.jpg	0	0	0	93.5129977121251	93.5629761593882	0.0499784472631291
103748	50	123	0	0	closet	360	123	0	stimuli\closet\closet_11s.jpg	10	-1	0	0	closet_11s.jpg	0	0	0	93.6129962980049	93.6629637739388	0.0499674759339541
103848	50	124	0	0	match	983	124	0	stimuli\match\match_05s.jpg	4	-1	0	0	match_05s.jpg	0	0	0	93.7130036611343	93.7629689426394	0.0499652815051377
103948	50	125	0	0	sundae	1582	125	0	stimuli\sundae\sundae_05s.jpg	4	-1	0	0	sundae_05s.jpg	0	0	0	93.8130015155766	93.8629838638008	0.0499823482241482
104048	50	126	0	0	gravy	711	126	0	stimuli\gravy\gravy_07s.jpg	6	-1	0	0	gravy_07s.jpg	0	0	0	93.912987911026	93.9629839125555	0.0499960015295073
104148	50	127	0	0	workbench	1835	127	0	stimuli\workbench\workbench_02s.jpg	1	-1	0	0	workbench_02s.jpg	0	0	0	94.0130089273443	94.0629739650758	0.0499650377314538
104248	50	128	0	0	lamb_chop	890	128	0	stimuli\lamb_chop\lamb_chop_09s.jpg	8	-1	0	0	lamb_chop_09s.jpg	0	0	0	94.1130116580753	94.1629893739009	0.049977715825662
104348	50	129	0	0	cufflink	458	129	0	stimuli\cufflink\cufflink_04s.jpg	3	-1	0	0	cufflink_04s.jpg	0	0	0	94.2130124382675	94.2629967369139	0.04998429864645
104448	50	130	0	0	airplane	10	130	0	stimuli\airplane\airplane_02n.jpg	1	-1	0	0	airplane_02n.jpg	0	0	0	94.3130163879832	94.3629962980049	0.0499799100216478
104548	50	131	0	0	paper_towel	1115	131	0	stimuli\paper_towel\paper_towel_01b.jpg	0	-1	0	1	paper_towel_01b.jpg	0	0	0	94.4130166805116	94.4629982972983	0.0499816167866811
104648	50	132	0	0	skunk	1459	132	0	stimuli\skunk\skunk_12s.jpg	11	-1	0	0	skunk_12s.jpg	0	0	0	94.5130228245398	94.5629876184976	0.0499647939577699
104748	50	133	0	0	bathmat	89	133	0	stimuli\bathmat\bathmat_12s.jpg	11	-1	0	0	bathmat_12s.jpg	0	0	0	94.612998736091	94.6629715757445	0.049972839653492
104848	50	134	0	0	globe	679	134	0	stimuli\globe\globe_04s.jpg	3	-1	0	0	globe_04s.jpg	1	0.34189851291012	1	94.712998541072	94.7629774759989	0.0499789349269122
104948	50	135	0	0	game	654	135	0	stimuli\game\game_07s.jpg	6	-1	0	0	game_07s.jpg	0	0	0	94.8130322354846	94.8629948352464	0.0499625997617841
105048	50	136	0	0	dogfood	496	136	0	stimuli\dogfood\dogfood_11s.jpg	10	-1	0	0	dogfood_11s.jpg	0	0	0	94.9130325281294	94.9630124382675	0.0499799101380631
105148	50	137	0	0	bonnet	163	137	0	stimuli\bonnet\bonnet_10s.jpg	9	-1	0	0	bonnet_10s.jpg	0	0	0	95.0130379407201	95.063013706007	0.0499757652869448
105248	50	138	0	0	dynamite	536	138	0	stimuli\dynamite\dynamite_04s.jpg	3	-1	0	0	dynamite_04s.jpg	0	0	0	95.1130345760612	95.1630161928479	0.0499816167866811
105348	50	139	0	0	leopard	917	139	0	stimuli\leopard\leopard_01b.jpg	0	-1	0	0	leopard_01b.jpg	0	0	0	95.2130368191283	95.2629967369139	0.0499599177855998
105448	50	140	0	0	ink	829	140	0	stimuli\ink\ink_01b.jpg	0	-1	0	0	ink_01b.jpg	0	0	0	95.3130451574689	95.3630228732945	0.049977715825662
105548	50	141	0	0	wetsuit	1803	141	0	stimuli\wetsuit\wetsuit_02s.jpg	1	-1	0	0	wetsuit_02s.jpg	0	0	0	95.4130464252084	95.4630087810801	0.0499623558716848
105648	50	142	0	0	chicken_wire	324	142	0	stimuli\chicken_wire\chicken_wire_05s.jpg	4	-1	0	0	chicken_wire_05s.jpg	0	0	0	95.5130481806118	95.5630261403276	0.0499779597157612
105748	50	143	0	0	horseshoe	799	143	0	stimuli\horseshoe\horseshoe_02s.jpg	1	-1	0	0	horseshoe_02s.jpg	0	0	0	95.613046766608	95.6630115605658	0.0499647939577699
105848	50	144	0	0	money	1015	144	0	stimuli\money\money_06s.jpg	5	-1	0	0	money_06s.jpg	0	0	0	95.7130416953005	95.7630023445236	0.0499606492230669
105948	50	145	0	0	scissors	1379	145	0	stimuli\scissors\scissors_05s.jpg	4	-1	0	0	scissors_05s.jpg	0	0	0	95.8130646621576	95.8630323818652	0.049967719707638
106048	50	146	0	0	diving_board	494	146	0	stimuli\diving_board\diving_board_09s.jpg	8	-1	0	0	diving_board_09s.jpg	0	0	0	95.9130305775907	95.9630092687439	0.0499786911532283
106148	50	147	0	0	sparkler	1507	147	0	stimuli\sparkler\sparkler_09s.jpg	8	-1	0	0	sparkler_09s.jpg	0	0	0	96.0130618339172	96.0630373555468	0.0499755216296762
106248	50	148	0	0	olive	1075	148	0	stimuli\olive\olive_12s.jpg	11	-1	0	0	olive_12s.jpg	0	0	0	96.1130592008121	96.16304179281	0.0499825919978321
106348	50	149	0	0	enchilada	556	149	0	stimuli\enchilada\enchilada_05s.jpg	4	-1	0	0	enchilada_05s.jpg	0	0	0	96.2130626628641	96.2630528130103	0.0499901501461864
106448	50	150	0	0	notepad	1065	150	0	stimuli\notepad\notepad_05s.jpg	4	-1	0	0	notepad_05s.jpg	0	0	0	96.313065393595	96.3630457912805	0.0499803976854309
106548	50	151	0	0	yolk	1850	151	0	stimuli\yolk\yolk_02s.jpg	1	-1	0	0	yolk_02s.jpg	0	0	0	96.4130664175609	96.4630499848863	0.0499835673253983
106648	50	152	0	0	pothole	1233	152	0	stimuli\pothole\pothole_07s.jpg	6	-1	0	0	pothole_07s.jpg	0	0	0	96.5130596397212	96.5630539346021	0.0499942948808894
106748	50	153	0	0	moth	1023	153	0	stimuli\moth\moth_03n.jpg	2	-1	0	0	moth_03n.jpg	0	0	0	96.6130723665701	96.6630376480753	0.0499652815051377
106848	50	154	0	0	bird	128	154	0	stimuli\bird\bird_04s.jpg	3	-1	0	0	bird_04s.jpg	0	0	0	96.7130533981835	96.763032332994	0.0499789348104969
106948	50	155	0	0	vegetable	1754	155	0	stimuli\vegetable\vegetable_11s.jpg	10	-1	0	0	vegetable_11s.jpg	0	0	0	96.8130834354088	96.8630626141094	0.0499791787005961
107048	50	156	0	0	milkshake	1002	156	0	stimuli\milkshake\milkshake_02s.jpg	1	-1	0	1	milkshake_02s.jpg	0	0	0	96.9130639794748	96.9630453524878	0.0499813730129972
107148	50	157	0	0	scone	1380	157	0	stimuli\scone\scone_06s.jpg	5	-1	0	0	scone_06s.jpg	0	0	0	97.0130832891446	97.0630666125799	0.0499833234352991
107248	50	158	0	0	lollipop	945	158	0	stimuli\lollipop\lollipop_08s.jpg	7	-1	0	0	lollipop_08s.jpg	0	0	0	97.1130896769464	97.1630586156389	0.0499689386924729
107348	50	159	0	0	icemaker	821	159	0	stimuli\icemaker\icemaker_05s.jpg	4	-1	0	0	icemaker_05s.jpg	1	0.353891243576072	1	97.2130907010287	97.2630684168544	0.049977715825662
107448	50	160	0	0	cart	278	160	0	stimuli\cart\cart_09s.jpg	8	-1	0	0	cart_09s.jpg	0	0	0	97.3130649059312	97.3630557875149	0.0499908815836534
107548	50	161	0	0	kaleidoscope	861	161	0	stimuli\kaleidoscope\kaleidoscope_10s.jpg	9	-1	0	0	kaleidoscope_10s.jpg	0	0	0	97.4130756823579	97.4630741219735	0.0499984396155924
107648	50	162	0	0	pants	1108	162	0	stimuli\pants\pants_07s.jpg	6	-1	0	0	pants_07s.jpg	0	0	0	97.513099380536	97.5630795345642	0.0499801540281624
107748	50	163	0	0	wasp	1785	163	0	stimuli\wasp\wasp_09n.jpg	8	-1	0	0	wasp_09n.jpg	0	0	0	97.6131040616892	97.6630656861234	0.0499616244342178
107848	50	164	0	0	grille	715	164	0	stimuli\grille\grille_02s.jpg	1	-1	0	0	grille_02s.jpg	0	0	0	97.7130992342718	97.7630820701597	0.0499828358879313
107948	50	165	0	0	pan	1103	165	0	stimuli\pan\pan_07s.jpg	6	-1	0	0	pan_07s.jpg	0	0	0	97.8131061097374	97.863069928484	0.0499638187466189
108048	50	166	0	0	hook2	794	166	0	stimuli\hook2\hook2_06s.jpg	5	-1	0	0	hook2_06s.jpg	0	0	0	97.9131100594532	97.9630885067163	0.0499784472631291
108148	50	167	0	0	worm	1836	167	0	stimuli\worm\worm_05n.jpg	4	-1	0	0	worm_05n.jpg	0	0	0	98.0131130338414	98.0630919687683	0.0499789349269122
108248	50	168	0	0	shredder	1437	168	0	stimuli\shredder\shredder_07s.jpg	6	-1	0	0	shredder_07s.jpg	0	0	0	98.1130940655712	98.1630912860855	0.0499972205143422
108348	50	169	0	0	chopsticks	339	169	0	stimuli\chopsticks\chopsticks_01s.jpg	0	-1	0	0	chopsticks_01s.jpg	0	0	0	98.2131136190146	98.2630974301137	0.0499838110990822
108448	50	170	0	0	pendulum	1144	170	0	stimuli\pendulum\pendulum_11s.jpg	10	-1	0	0	pendulum_11s.jpg	0	0	0	98.3131161058554	98.363095284556	0.0499791787005961
108548	50	171	0	0	lava	903	171	0	stimuli\lava\lava_04s.jpg	3	-1	0	0	lava_04s.jpg	0	0	0	98.4131188365864	98.4630975276232	0.049978691036813
108648	50	172	0	0	brooch	202	172	0	stimuli\brooch\brooch_11s.jpg	10	-1	0	0	brooch_11s.jpg	0	0	0	98.5131198605523	98.5631075726124	0.0499877120601013
108748	50	173	0	0	jewelry	850	173	0	stimuli\jewelry\jewelry_06s.jpg	5	-1	0	0	jewelry_06s.jpg	0	0	0	98.6131064997753	98.6630898232106	0.0499833234352991
108848	50	174	0	0	barbell	72	174	0	stimuli\barbell\barbell_08s.jpg	7	-1	0	0	barbell_08s.jpg	0	0	0	98.7131255656714	98.7631074262317	0.049981860560365
108948	50	175	0	0	air_mattress	5	175	0	stimuli\air_mattress\air_mattress_02s.jpg	1	-1	0	0	air_mattress_02s.jpg	0	0	0	98.8131275649648	98.8630969912047	0.0499694262398407
109048	50	176	0	0	lasagna	898	176	0	stimuli\lasagna\lasagna_03s.jpg	2	-1	0	0	lasagna_03s.jpg	0	0	0	98.9131293203682	98.9630943580996	0.0499650377314538
109148	50	177	0	0	paint	1096	177	0	stimuli\paint\paint_07s.jpg	6	-1	0	0	paint_07s.jpg	0	0	0	99.0131347329589	99.0631134239957	0.049978691036813
109248	50	178	0	0	birthday_cake	132	178	0	stimuli\birthday_cake\birthday_cake_10s.jpg	9	-1	0	0	birthday_cake_10s.jpg	0	0	0	99.1131208845181	99.1631176174851	0.0499967329669744
109348	50	179	0	0	beanbag	103	179	0	stimuli\beanbag\beanbag_11s.jpg	10	-1	0	0	beanbag_11s.jpg	0	0	0	99.2131401941879	99.2631066949107	0.0499665007228032
109448	50	180	0	0	grinder	716	180	0	stimuli\grinder\grinder_12s.jpg	11	-1	0	0	grinder_12s.jpg	0	0	0	99.3131200068165	99.363095284556	0.049975277739577
109548	50	181	0	0	bracket	189	181	0	stimuli\bracket\bracket_04s.jpg	3	-1	0	0	bracket_04s.jpg	0	0	0	99.4131271260558	99.4631245904602	0.0499974644044414
109648	50	182	0	0	checkers	311	182	0	stimuli\checkers\checkers_09s.jpg	8	-1	0	0	checkers_09s.jpg	0	0	0	99.5131474109367	99.5631265896372	0.0499791787005961
109748	50	183	0	0	bunkbed	222	183	0	stimuli\bunkbed\bunkbed_11s.jpg	10	-1	0	0	bunkbed_11s.jpg	0	0	0	99.6131481911289	99.6631332213292	0.0499850302003324
109848	50	184	0	0	puck	1245	184	0	stimuli\puck\puck_08s.jpg	7	-1	0	0	puck_08s.jpg	0	0	0	99.713150434196	99.7631364396075	0.0499860054114833
109948	50	185	0	0	lightning_bug	929	185	0	stimuli\lightning_bug\lightning_bug_08s.jpg	7	-1	0	0	lightning_bug_08s.jpg	0	0	0	99.813147801091	99.8631060122279	0.0499582111369818
110048	50	186	0	0	teepee	1637	186	0	stimuli\teepee\teepee_03s.jpg	2	-1	0	0	teepee_03s.jpg	0	0	0	99.9131281012669	99.9631063047564	0.0499782034894451
110148	50	187	0	0	megaphone	993	187	0	stimuli\megaphone\megaphone_05s.jpg	4	-1	0	0	megaphone_05s.jpg	0	0	0	100.013128393912	100.063142681145	0.0500142872333527
110248	50	188	0	0	catapult	285	188	0	stimuli\catapult\catapult_05s.jpg	4	-1	0	0	catapult_05s.jpg	0	0	0	100.113160625449	100.16314248601	0.049981860560365
110348	50	189	0	0	lobster	939	189	0	stimuli\lobster\lobster_07s.jpg	6	-1	0	0	lobster_07s.jpg	0	0	0	100.213166281814	100.263144485303	0.0499782034894451
110448	50	190	0	0	lampshade	893	190	0	stimuli\lampshade\lampshade_10s.jpg	9	-1	0	0	lampshade_10s.jpg	0	0	0	100.313165111584	100.363145509269	0.0499803976854309
110548	50	191	0	0	sunroof	1586	191	0	stimuli\sunroof\sunroof_05s.jpg	4	-1	0	0	sunroof_05s.jpg	0	0	0	100.413170280284	100.46315360372	0.0499833234352991
110648	50	192	0	0	mouse1	1026	192	0	stimuli\mouse1\mouse1_04s.jpg	3	-1	0	0	mouse1_04s.jpg	0	0	0	100.513174473774	100.563141462044	0.049966988270171
110748	50	193	0	0	lemonade	915	193	0	stimuli\lemonade\lemonade_05s.jpg	4	-1	0	0	lemonade_05s.jpg	0	0	0	100.613172572106	100.663154188893	0.0499816167866811
110848	50	194	0	0	grape	702	194	0	stimuli\grape\grape_06s.jpg	5	-1	0	0	grape_06s.jpg	0	0	0	100.713166281814	100.763157650945	0.0499913691310212
110948	50	195	0	0	soap	1487	195	0	stimuli\soap\soap_02s.jpg	1	-1	0	0	soap_02s.jpg	0	0	0	100.813178520999	100.863142827409	0.0499643064104021
111048	50	196	0	0	dumbbell	530	196	0	stimuli\dumbbell\dumbbell_08s.jpg	7	-1	0	0	dumbbell_08s.jpg	0	0	0	100.913181007956	100.963170670439	0.0499896624824032
111148	50	197	0	0	taffy	1615	197	0	stimuli\taffy\taffy_02s.jpg	1	-1	0	0	taffy_02s.jpg	0	0	0	101.013187151868	101.063167793443	0.0499806415755302
111248	50	198	0	0	shortbread	1429	198	0	stimuli\shortbread\shortbread_06s.jpg	5	-1	0	0	shortbread_06s.jpg	0	0	0	101.113171596895	101.163167598424	0.0499960015295073
111348	50	199	0	0	llama	938	199	0	stimuli\llama\llama_06s.jpg	5	-1	0	0	llama_06s.jpg	0	0	0	101.213174815173	101.263175449101	0.0500006339279935
111448	50	200	0	0	keg	866	200	0	stimuli\keg\keg_07s.jpg	6	-1	0	0	keg_07s.jpg	0	0	0	101.313194612507	101.363173303544	0.049978691036813
111548	50	201	0	0	gift	672	201	0	stimuli\gift\gift_02s.jpg	1	-1	0	0	gift_02s.jpg	0	0	0	101.413193685934	101.463175058947	0.0499813730129972
111648	50	202	0	0	rooster	1330	202	0	stimuli\rooster\rooster_09s.jpg	8	-1	0	0	rooster_09s.jpg	0	0	0	101.513206656673	101.563178277225	0.0499716205522418
111748	50	203	0	0	notebook	1064	203	0	stimuli\notebook\notebook_05s.jpg	4	-1	0	0	notebook_05s.jpg	0	0	0	101.613199634943	101.663180764066	0.049981129122898
111848	50	204	0	0	odometer	1071	204	0	stimuli\odometer\odometer_01b.jpg	0	-1	0	0	odometer_01b.jpg	0	0	0	101.713193588424	101.763185932883	0.0499923444585875
111948	50	205	0	0	cheesecake	314	205	0	stimuli\cheesecake\cheesecake_09s.jpg	8	-1	0	0	cheesecake_09s.jpg	0	0	0	101.813207290485	101.863186469185	0.0499791787005961
112048	50	206	0	0	spider_web	1514	206	0	stimuli\spider_web\spider_web_04s.jpg	3	-1	0	0	spider_web_04s.jpg	0	0	0	101.913208314567	101.963172377087	0.0499640625203028
112148	50	207	0	0	dice	486	207	0	stimuli\dice\dice_07s.jpg	6	-1	0	0	dice_07s.jpg	0	0	0	102.013208363322	102.063173644827	0.0499652815051377
112248	50	208	0	0	gasket	661	208	0	stimuli\gasket\gasket_09s.jpg	8	-1	0	0	gasket_09s.jpg	0	0	0	102.113209387287	102.16319051641	0.049981129122898
112348	50	209	0	0	racehorse	1267	209	0	stimuli\racehorse\racehorse_02s.jpg	1	-1	0	0	racehorse_02s.jpg	0	0	0	102.213205778971	102.263199342298	0.049993563327007
112448	50	210	0	0	bandanna	67	210	0	stimuli\bandanna\bandanna_07s.jpg	6	-1	0	0	bandanna_07s.jpg	0	0	0	102.313200220116	102.363181836903	0.0499816167866811
112548	50	211	0	0	sewing_machine	1407	211	0	stimuli\sewing_machine\sewing_machine_12s.jpg	11	-1	0	0	sewing_machine_12s.jpg	0	0	0	102.413202950731	102.46318676183	0.0499838110990822
112648	50	212	0	0	cookie	400	212	0	stimuli\cookie\cookie_09s.jpg	8	-1	0	0	cookie_09s.jpg	0	0	0	102.513223967049	102.5632060715	0.0499821044504642
112748	50	213	0	0	roadsweeper	1316	213	0	stimuli\roadsweeper\roadsweeper_06s.jpg	5	-1	0	0	roadsweeper_06s.jpg	0	0	0	102.613224747241	102.663206364028	0.0499816167866811
112848	50	214	0	0	pocket	1205	214	0	stimuli\pocket\pocket_12s.jpg	11	-1	0	0	pocket_12s.jpg	0	0	0	102.713228453184	102.763211776619	0.0499833234352991
112948	50	215	0	0	pinball	1178	215	0	stimuli\pinball\pinball_02s.jpg	1	-1	0	0	pinball_02s.jpg	0	0	0	102.813231671462	102.863195977756	0.0499643062939867
113048	50	216	0	0	rattle	1287	216	0	stimuli\rattle\rattle_10s.jpg	9	-1	0	0	rattle_10s.jpg	0	0	0	102.9132170917	102.96321309323	0.0499960015295073
113148	50	217	0	0	mask	980	217	0	stimuli\mask\mask_06s.jpg	5	-1	0	0	mask_06s.jpg	0	0	0	103.013236157596	103.063198513351	0.0499623557552695
113248	50	218	0	0	bacon	51	218	0	stimuli\bacon\bacon_06s.jpg	5	-1	0	0	bacon_06s.jpg	0	0	0	103.113242545398	103.163218554459	0.0499760090606287
113348	50	219	0	0	cake_mix	238	219	0	stimuli\cake_mix\cake_mix_03s.jpg	2	-1	0	0	cake_mix_03s.jpg	0	0	0	103.213238936965	103.263222016627	0.0499830796616152
113448	50	220	0	0	flagpole	606	220	0	stimuli\flagpole\flagpole_12s.jpg	11	-1	0	0	flagpole_12s.jpg	0	0	0	103.31324166758	103.363223284367	0.0499816167866811
113548	50	221	0	0	lamp	891	221	0	stimuli\lamp\lamp_03s.jpg	2	-1	0	0	lamp_03s.jpg	0	0	0	103.413227819256	103.463214555988	0.0499867367325351
113648	50	222	0	0	donkey	504	222	0	stimuli\donkey\donkey_09n.jpg	8	-1	0	0	donkey_09n.jpg	0	0	0	103.5132485918	103.563214117195	0.0499655253952369
113748	50	223	0	0	slot_machine	1470	223	0	stimuli\slot_machine\slot_machine_05s.jpg	4	-1	0	0	slot_machine_05s.jpg	0	0	0	103.613224503468	103.663200268871	0.0499757654033601
113848	50	224	0	0	fire_hydrant	592	224	0	stimuli\fire_hydrant\fire_hydrant_11s.jpg	10	-1	0	0	fire_hydrant_11s.jpg	0	0	0	103.713223577011	103.763202024275	0.0499784472631291
113948	50	225	0	0	boxer_shorts	182	225	0	stimuli\boxer_shorts\boxer_shorts_12s.jpg	11	-1	0	0	boxer_shorts_12s.jpg	0	0	0	103.813253858127	103.863235474913	0.0499816167866811
114048	50	226	0	0	baton3	94	226	0	stimuli\baton3\baton3_02s.jpg	1	-1	0	0	baton3_02s.jpg	0	0	0	103.91324317921	103.963241131278	0.0499979520682245
114148	50	227	0	0	popcorn	1223	227	0	stimuli\popcorn\popcorn_06s.jpg	5	-1	0	0	popcorn_06s.jpg	0	0	0	104.013262245106	104.063246299978	0.0499840548727661
114248	50	228	0	0	payphone	1127	228	0	stimuli\payphone\payphone_12s.jpg	11	-1	0	0	payphone_12s.jpg	0	0	0	104.113245958695	104.163242447772	0.0499964890768752
114348	50	229	0	0	strawberry	1570	229	0	stimuli\strawberry\strawberry_01b.jpg	0	-1	0	0	strawberry_01b.jpg	0	0	0	104.213244788349	104.263245178503	0.0500003901543096
114448	50	230	0	0	bullet	216	230	0	stimuli\bullet\bullet_03s.jpg	2	-1	0	0	bullet_03s.jpg	0	0	0	104.313267267542	104.363248884329	0.0499816167866811
114548	50	231	0	0	file2	584	231	0	stimuli\file2\file2_09s.jpg	8	-1	0	0	file2_09s.jpg	0	0	0	104.41327341157	104.463257466443	0.0499840548727661
114648	50	232	0	0	chip	333	232	0	stimuli\chip\chip_08s.jpg	7	-1	0	0	chip_08s.jpg	0	0	0	104.513275166973	104.563230696251	0.0499555292772129
114748	50	233	0	0	scallion	1372	233	0	stimuli\scallion\scallion_01b.jpg	0	-1	0	0	scallion_01b.jpg	0	0	0	104.613246933906	104.663239522139	0.0499925882322714
114848	50	234	0	0	marshmallow	977	234	0	stimuli\marshmallow\marshmallow_10s.jpg	9	-1	0	0	marshmallow_10s.jpg	0	0	0	104.713280140772	104.763259075582	0.0499789348104969
114948	50	235	0	0	caviar	289	235	0	stimuli\caviar\caviar_09s.jpg	8	-1	0	0	caviar_09s.jpg	0	0	0	104.813266779995	104.863269364345	0.0500025843502954
115048	50	236	0	0	wolf	1831	236	0	stimuli\wolf\wolf_05n.jpg	4	-1	0	0	wolf_05n.jpg	0	0	0	104.913264634437	104.963266243576	0.0500016091391444
115148	50	237	0	0	pom-pom	1218	237	0	stimuli\pom-pom\pom-pom_02s.jpg	1	-1	0	0	pom-pom_02s.jpg	0	0	0	105.013288576505	105.063264098018	0.0499755215132609
115248	50	238	0	0	ice_pack	820	238	0	stimuli\ice_pack\ice_pack_07s.jpg	6	-1	0	0	ice_pack_07s.jpg	0	0	0	105.113287893822	105.163253662991	0.0499657691689208
115348	50	239	0	0	tack	1611	239	0	stimuli\tack\tack_12s.jpg	11	-1	0	0	tack_12s.jpg	0	0	0	105.213263317943	105.263241277542	0.0499779595993459
115448	50	240	0	0	compost	393	240	0	stimuli\compost\compost_07s.jpg	6	-1	0	0	compost_07s.jpg	0	0	0	105.313264341909	105.363242301508	0.0499779595993459
115548	50	241	0	0	tomato_sauce	1673	241	0	stimuli\tomato_sauce\tomato_sauce_06s.jpg	5	-1	0	0	tomato_sauce_06s.jpg	0	0	0	105.413264390663	105.463246738887	0.0499823482241482
115648	50	242	0	0	cockroach	373	242	0	stimuli\cockroach\cockroach_05s.jpg	4	-1	0	0	cockroach_05s.jpg	0	0	0	105.513304911787	105.563281896175	0.049976984388195
115748	50	243	0	0	trombone	1716	243	0	stimuli\trombone\trombone_10s.jpg	9	-1	0	0	trombone_10s.jpg	0	0	0	105.613299596705	105.663282432477	0.049982835771516
115848	50	244	0	0	polar_bear	1211	244	0	stimuli\polar_bear\polar_bear_11s.jpg	10	-1	0	0	polar_bear_11s.jpg	0	0	0	105.71330525307	105.763284675544	0.04997942247428
115948	50	245	0	0	container	398	245	0	stimuli\container\container_05s.jpg	4	-1	0	0	container_05s.jpg	0	0	0	105.813292136183	105.863284236751	0.0499921005684882
116048	50	246	0	0	kimono	873	246	0	stimuli\kimono\kimono_08s.jpg	7	-1	0	0	kimono_08s.jpg	0	0	0	105.913290965836	105.963289649226	0.0499986833892763
116148	50	247	0	0	coverall	425	247	0	stimuli\coverall\coverall_10s.jpg	9	-1	0	0	coverall_10s.jpg	0	0	0	106.013311982155	106.063278970425	0.049966988270171
116248	50	248	0	0	breadstick	196	248	0	stimuli\breadstick\breadstick_07s.jpg	6	-1	0	0	breadstick_07s.jpg	0	0	0	106.113315688097	106.163296573446	0.0499808853492141
116348	50	249	0	0	seed	1401	249	0	stimuli\seed\seed_05s.jpg	4	-1	0	0	seed_05s.jpg	0	0	0	106.2133174435	106.263271509903	0.0499540664022788
116448	50	250	0	0	footbath	631	250	0	stimuli\footbath\footbath_05s.jpg	4	-1	0	0	footbath_05s.jpg	0	0	0	106.313294086605	106.363275947166	0.049981860560365
116548	50	251	0	0	lumber	949	251	0	stimuli\lumber\lumber_02s.jpg	1	-1	0	0	lumber_02s.jpg	0	0	0	106.413294866798	106.463271119748	0.0499762529507279
116648	50	252	0	0	sprinkler	1523	252	0	stimuli\sprinkler\sprinkler_05s.jpg	4	-1	0	0	sprinkler_05s.jpg	0	0	0	106.513333437382	106.563303595176	0.049970157793723
116748	50	253	0	0	staple_gun	1538	253	0	stimuli\staple_gun\staple_gun_10s.jpg	9	-1	0	0	staple_gun_10s.jpg	0	0	0	106.613323733793	106.663307544892	0.0499838110990822
116848	50	254	0	0	shoe	1423	254	0	stimuli\shoe\shoe_04s.jpg	3	-1	0	0	shoe_04s.jpg	0	0	0	106.71332597686	106.763308568858	0.0499825919978321
116948	50	255	0	0	oatmeal	1069	255	0	stimuli\oatmeal\oatmeal_04s.jpg	3	-1	0	0	oatmeal_04s.jpg	0	0	0	106.81333138945	106.863317638519	0.0499862490687519
117048	50	256	0	0	snow	1479	256	0	stimuli\snow\snow_08s.jpg	7	-1	0	0	snow_08s.jpg	0	0	0	106.913337289589	106.963320125476	0.0499828358879313
117148	50	257	0	0	ketchup	867	257	0	stimuli\ketchup\ketchup_09s.jpg	8	-1	0	0	ketchup_09s.jpg	0	0	0	107.013341970742	107.063302376075	0.0499604053329676
117248	50	258	0	0	lens	916	258	0	stimuli\lens\lens_09s.jpg	8	-1	0	0	lens_09s.jpg	0	0	0	107.113323246129	107.163318516337	0.0499952702084556
117348	50	259	0	0	satellite	1360	259	0	stimuli\satellite\satellite_06s.jpg	5	-1	0	0	satellite_06s.jpg	0	0	0	107.213342312025	107.263322222163	0.0499799101380631
117448	50	260	0	0	springboard	1522	260	0	stimuli\springboard\springboard_04s.jpg	3	-1	0	0	springboard_04s.jpg	0	0	0	107.31334236078	107.36332446523	0.0499821044504642
117548	50	261	0	0	pedometer	1137	261	0	stimuli\pedometer\pedometer_03s.jpg	2	-1	0	0	pedometer_03s.jpg	0	0	0	107.413345822948	107.463325733086	0.0499799101380631
117648	50	262	0	0	coyote	427	262	0	stimuli\coyote\coyote_01b.jpg	0	-1	0	0	coyote_01b.jpg	0	0	0	107.513350504101	107.563315785606	0.0499652815051377
117748	50	263	0	0	eclair	544	263	0	stimuli\eclair\eclair_01b.jpg	0	-1	0	0	eclair_01b.jpg	0	0	0	107.613351528067	107.663319735322	0.0499682072550058
117848	50	264	0	0	tarantula	1626	264	0	stimuli\tarantula\tarantula_03s.jpg	2	-1	0	0	tarantula_03s.jpg	0	0	0	107.713358403416	107.763342214515	0.0499838110990822
117948	50	265	0	0	handcuff	746	265	0	stimuli\handcuff\handcuff_05s.jpg	4	-1	0	0	handcuff_05s.jpg	0	0	0	107.813355282764	107.863335436676	0.049980153911747
118048	50	266	0	0	cake	237	266	0	stimuli\cake\cake_02s.jpg	1	-1	0	0	cake_02s.jpg	0	0	0	107.913358501042	107.963342555915	0.0499840548727661
118148	50	267	0	0	raspberry	1284	267	0	stimuli\raspberry\raspberry_08s.jpg	7	-1	0	0	raspberry_08s.jpg	0	0	0	108.013344896492	108.06334260467	0.0499977081781253
118248	50	268	0	0	tinsel	1662	268	0	stimuli\tinsel\tinsel_07s.jpg	6	-1	0	0	tinsel_07s.jpg	0	0	0	108.113364693709	108.163330950541	0.0499662568327039
118348	50	269	0	0	alpaca	15	269	0	stimuli\alpaca\alpaca_10s.jpg	9	-1	0	0	alpaca_10s.jpg	0	0	0	108.213365473901	108.263352454524	0.0499869806226343
118448	50	270	0	0	cracker	429	270	0	stimuli\cracker\cracker_04s.jpg	3	-1	0	0	cracker_04s.jpg	0	0	0	108.313371130265	108.363349577528	0.0499784472631291
118548	50	271	0	0	kettle	868	271	0	stimuli\kettle\kettle_03n.jpg	2	-1	0	0	kettle_03n.jpg	0	0	0	108.41336849716	108.463352064486	0.0499835673253983
118648	50	272	0	0	puffin	1248	272	0	stimuli\puffin\puffin_06s.jpg	5	-1	0	0	puffin_06s.jpg	0	0	0	108.513376835501	108.563355526538	0.049978691036813
118748	50	273	0	0	jacket	836	273	0	stimuli\jacket\jacket_05s.jpg	4	-1	0	0	jacket_05s.jpg	0	0	0	108.613373714732	108.663343872409	0.0499701576773077
118848	50	274	0	0	hobbyhorse	782	274	0	stimuli\hobbyhorse\hobbyhorse_11s.jpg	10	-1	0	0	hobbyhorse_11s.jpg	0	0	0	108.713377176784	108.763344408828	0.0499672320438549
118948	50	275	0	0	roulette_wheel	1335	275	0	stimuli\roulette_wheel\roulette_wheel_03s.jpg	2	-1	0	0	roulette_wheel_03s.jpg	0	0	0	108.81337820075	108.863355429028	0.0499772282782942
119048	50	276	0	0	cork	409	276	0	stimuli\cork\cork_04s.jpg	3	-1	0	0	cork_04s.jpg	0	0	0	108.913385563763	108.963360353955	0.0499747901922092
119148	50	277	0	0	block	143	277	0	stimuli\block\block_05s.jpg	4	-1	0	0	block_05s.jpg	0	0	0	109.013392439228	109.063364303671	0.049971864442341
119248	50	278	0	0	swimming_pool	1596	278	0	stimuli\swimming_pool\swimming_pool_01b.jpg	0	-1	0	0	swimming_pool_01b.jpg	0	0	0	109.113385905162	109.163368740934	0.049982835771516
119348	50	279	0	0	tarp	1628	279	0	stimuli\tarp\tarp_07s.jpg	6	-1	0	0	tarp_07s.jpg	0	0	0	109.21338522248	109.263368302141	0.0499830796616152
119448	50	280	0	0	beer	113	280	0	stimuli\beer\beer_10s.jpg	9	-1	0	0	beer_10s.jpg	0	0	0	109.313387709321	109.363371764193	0.0499840548727661
119548	50	281	0	0	green_beans	712	281	0	stimuli\green_beans\green_beans_01b.jpg	0	-1	0	0	green_beans_01b.jpg	0	0	0	109.413392878138	109.463380833971	0.0499879558337852
119648	50	282	0	0	drink	521	282	0	stimuli\drink\drink_08s.jpg	7	-1	0	0	drink_08s.jpg	0	0	0	109.513396583963	109.563378688414	0.0499821044504642
119748	50	283	0	0	hairpin	737	283	0	stimuli\hairpin\hairpin_02s.jpg	1	-1	0	0	hairpin_02s.jpg	0	0	0	109.613397851819	109.663379956153	0.0499821043340489
119848	50	284	0	0	whisk	1811	284	0	stimuli\whisk\whisk_10s.jpg	9	-1	0	0	whisk_10s.jpg	0	0	0	109.713404727168	109.763383662095	0.0499789349269122
119948	50	285	0	0	washcloth	1783	285	0	stimuli\washcloth\washcloth_10s.jpg	9	-1	0	0	washcloth_10s.jpg	0	0	0	109.813402337837	109.863382735639	0.0499803978018463
120048	50	286	0	0	stilt	1555	286	0	stimuli\stilt\stilt_10s.jpg	9	-1	0	0	stilt_10s.jpg	0	0	0	109.91340701899	109.963386441581	0.0499794225906953
120148	50	287	0	0	confetti	396	287	0	stimuli\confetti\confetti_01b.jpg	0	-1	0	0	confetti_01b.jpg	0	0	0	110.01341438212	110.063389659859	0.049975277739577
120248	50	288	0	0	toaster_oven	1667	288	0	stimuli\toaster_oven\toaster_oven_10s.jpg	9	-1	0	0	toaster_oven_10s.jpg	0	0	0	110.113408823265	110.163390683825	0.049981860560365
120348	50	289	0	0	stalagmite	1534	289	0	stimuli\stalagmite\stalagmite_01b.jpg	0	-1	0	0	stalagmite_01b.jpg	0	0	0	110.21341252909	110.263400728698	0.0499881996074691
120448	50	290	0	0	ferret	578	290	0	stimuli\ferret\ferret_09n.jpg	8	-1	0	0	ferret_09n.jpg	0	0	0	110.313415503595	110.363396632718	0.049981129122898
120548	50	291	0	0	maggot	955	291	0	stimuli\maggot\maggot_06s.jpg	5	-1	0	0	maggot_06s.jpg	0	0	0	110.413418721873	110.46340594627	0.0499872243963182
120648	50	292	0	0	swing_set	1599	292	0	stimuli\swing_set\swing_set_08s.jpg	7	-1	0	0	swing_set_08s.jpg	0	0	0	110.51342657255	110.563408676884	0.0499821043340489
120748	50	293	0	0	fishhook	602	293	0	stimuli\fishhook\fishhook_12s.jpg	11	-1	0	0	fishhook_12s.jpg	0	0	0	110.613421257469	110.663403605693	0.0499823482241482
120848	50	294	0	0	mulberry	1037	294	0	stimuli\mulberry\mulberry_12s.jpg	11	-1	0	0	mulberry_12s.jpg	0	0	0	110.713424475747	110.763406336308	0.049981860560365
120948	50	295	0	0	moss	1022	295	0	stimuli\moss\moss_03s.jpg	2	-1	0	0	moss_03s.jpg	0	0	0	110.813427206478	110.863409798476	0.0499825919978321
121048	50	296	0	0	mullet	1039	296	0	stimuli\mullet\mullet_12s.jpg	11	-1	0	0	mullet_12s.jpg	0	0	0	110.913429205655	110.963410334778	0.049981129122898
121148	50	297	0	0	earplug	539	297	0	stimuli\earplug\earplug_06s.jpg	5	-1	0	0	earplug_06s.jpg	0	0	0	111.013436568668	111.063411846408	0.049975277739577
121248	50	298	0	0	inhaler	828	298	0	stimuli\inhaler\inhaler_11s.jpg	10	-1	0	0	inhaler_11s.jpg	0	0	0	111.113435642212	111.163414820912	0.0499791787005961
121348	50	299	0	0	veil	1755	299	0	stimuli\veil\veil_02s.jpg	1	-1	0	0	veil_02s.jpg	0	0	0	111.213442517677	111.263419502066	0.049976984388195
121448	50	300	0	0	rice	1309	300	0	stimuli\rice\rice_01b.jpg	0	-1	0	0	rice_01b.jpg	0	0	0	111.313440615893	111.363421745133	0.0499811292393133
121548	50	301	0	0	gramophone	699	301	0	stimuli\gramophone\gramophone_05s.jpg	4	-1	0	0	gramophone_05s.jpg	0	0	0	111.413446028484	111.463424475747	0.0499784472631291
121648	50	302	0	0	volleyball	1767	302	0	stimuli\volleyball\volleyball_05s.jpg	4	-1	0	0	volleyball_05s.jpg	0	0	0	111.513446321012	111.563426962588	0.0499806415755302
121748	50	303	0	0	tie	1658	303	0	stimuli\tie\tie_08s.jpg	7	-1	0	0	tie_08s.jpg	0	0	0	111.613445394556	111.663428717991	0.0499833234352991
121848	50	304	0	0	eyeliner	567	304	0	stimuli\eyeliner\eyeliner_05s.jpg	4	-1	0	0	eyeliner_05s.jpg	0	0	0	111.713452026248	111.763434374472	0.0499823482241482
121948	50	305	0	0	trap	1702	305	0	stimuli\trap\trap_11s.jpg	10	-1	0	0	trap_11s.jpg	0	0	0	111.813453050214	111.863432716462	0.0499796662479639
122048	50	306	0	0	lemon	914	306	0	stimuli\lemon\lemon_07s.jpg	6	-1	0	0	lemon_07s.jpg	0	0	0	111.913459681789	111.963435447193	0.0499757654033601
122148	50	307	0	0	marmalade	976	307	0	stimuli\marmalade\marmalade_03s.jpg	2	-1	0	0	marmalade_03s.jpg	0	0	0	112.013460705755	112.063436714932	0.049976009177044
122248	50	308	0	0	plug	1202	308	0	stimuli\plug\plug_09s.jpg	8	-1	0	0	plug_09s.jpg	0	0	0	112.113467093557	112.163442615187	0.0499755216296762
130965	50	309	0	0	mat	982	0	1	stimuli\mat\mat_09s.jpg	8	-1	1	0	mat_09s.jpg	0	0	0	120.830353172263	120.88031967287	0.0499665006063879
131065	50	310	0	0	bottle_opener	171	1	1	stimuli\bottle_opener\bottle_opener_03s.jpg	2	-1	1	0	bottle_opener_03s.jpg	0	0	0	120.930353952455	120.980336300679	0.0499823482241482
131165	50	311	0	0	shears	1412	2	1	stimuli\shears\shears_12s.jpg	11	-1	1	0	shears_12s.jpg	0	0	0	121.030355220311	121.080336837098	0.0499816167866811
131265	50	312	0	0	panda	1105	3	1	stimuli\panda\panda_10s.jpg	9	-1	1	0	panda_10s.jpg	0	0	0	121.130359901465	121.180341518251	0.0499816167866811
131365	50	313	0	0	smoothie	1474	4	1	stimuli\smoothie\smoothie_06s.jpg	5	-1	1	0	smoothie_06s.jpg	0	0	0	121.230360437767	121.280342542217	0.0499821044504642
131465	50	314	0	0	hanger	751	5	1	stimuli\hanger\hanger_03s.jpg	2	-1	1	0	hanger_03s.jpg	0	0	0	121.330364387482	121.380336739589	0.0499723521061242
131565	50	315	0	0	snorkel	1478	6	1	stimuli\snorkel\snorkel_07s.jpg	6	-1	1	0	snorkel_07s.jpg	0	0	0	121.430370531511	121.480345565476	0.0499750339658931
131665	50	316	0	0	trigger	1713	7	1	stimuli\trigger\trigger_09s.jpg	8	-1	1	0	trigger_09s.jpg	0	0	0	121.530368142179	121.580349027528	0.0499808853492141
131765	50	317	0	0	cigarette_butt	345	8	1	stimuli\cigarette_butt\cigarette_butt_07s.jpg	6	-1	1	0	cigarette_butt_07s.jpg	0	0	0	121.630373067106	121.680352977244	0.0499799101380631
131865	50	318	0	0	potpie	1234	9	1	stimuli\potpie\potpie_08s.jpg	7	-1	1	0	potpie_08s.jpg	0	0	0	121.730376041611	121.780358877382	0.049982835771516
131965	50	319	0	0	jigsaw_puzzle	851	10	1	stimuli\jigsaw_puzzle\jigsaw_puzzle_06s.jpg	5	-1	1	0	jigsaw_puzzle_06s.jpg	0	0	0	121.830376821803	121.88035283098	0.049976009177044
132065	50	320	0	0	snack	1475	11	1	stimuli\snack\snack_01b.jpg	0	-1	1	0	snack_01b.jpg	0	0	0	121.930382478167	121.98036360729	0.049981129122898
132165	50	321	0	0	periscope	1155	12	1	stimuli\periscope\periscope_05s.jpg	4	-1	1	0	periscope_05s.jpg	0	0	0	122.030382283148	122.080364387482	0.0499821043340489
132265	50	322	0	0	bison	134	13	1	stimuli\bison\bison_10s.jpg	9	-1	1	0	bison_10s.jpg	0	0	0	122.130365996622	122.180350295384	0.0499842987628654
132365	50	323	0	0	pomegranate	1219	14	1	stimuli\pomegranate\pomegranate_03s.jpg	2	-1	1	0	pomegranate_03s.jpg	0	0	0	122.230358731118	122.280367898406	0.0500091672874987
132465	50	324	0	0	spacesuit	1502	15	1	stimuli\spacesuit\spacesuit_03s.jpg	2	-1	1	0	spacesuit_03s.jpg	0	0	0	122.330388524686	122.380392571911	0.0500040472252294
132565	50	325	0	0	food_processor	627	16	1	stimuli\food_processor\food_processor_11s.jpg	10	-1	1	0	food_processor_11s.jpg	0	0	0	122.43039418105	122.480374578736	0.0499803976854309
132665	50	326	0	0	apron	33	17	1	stimuli\apron\apron_06s.jpg	5	-1	1	0	apron_06s.jpg	0	0	0	122.530396667891	122.580365606584	0.0499689386924729
132765	50	327	0	0	tablecloth	1609	18	1	stimuli\tablecloth\tablecloth_02s.jpg	1	-1	1	0	tablecloth_02s.jpg	0	0	0	122.630394522334	122.680377358221	0.0499828358879313
132865	50	328	0	0	tulip	1726	19	1	stimuli\tulip\tulip_06s.jpg	5	-1	1	0	tulip_06s.jpg	0	0	0	122.730401641573	122.780367898406	0.0499662568327039
132965	50	329	0	0	rose	1334	20	1	stimuli\rose\rose_11s.jpg	10	-1	1	0	rose_11s.jpg	0	0	0	122.830401934101	122.880383307114	0.0499813730129972
133065	50	330	0	0	garter	659	21	1	stimuli\garter\garter_09s.jpg	8	-1	1	0	garter_09s.jpg	0	0	0	122.930411735317	122.980386525393	0.0499747900757939
133165	50	331	0	0	boar	151	22	1	stimuli\boar\boar_08s.jpg	7	-1	1	0	boar_08s.jpg	0	0	0	123.030409102095	123.080388524686	0.0499794225906953
133265	50	332	0	0	splinter	1516	23	1	stimuli\splinter\splinter_09s.jpg	8	-1	1	0	splinter_09s.jpg	0	0	0	123.130410369951	123.180389060988	0.049978691036813
133365	50	333	0	0	hummus	812	24	1	stimuli\hummus\hummus_11s.jpg	10	-1	1	0	hummus_11s.jpg	0	0	0	123.230411150143	123.280375944101	0.0499647939577699
133465	50	334	0	0	pug	1249	25	1	stimuli\pug\pug_05s.jpg	4	-1	1	0	pug_05s.jpg	0	0	0	123.330398764578	123.380394522334	0.0499957577558234
133565	50	335	0	0	headlight	765	26	1	stimuli\headlight\headlight_05s.jpg	4	-1	1	0	headlight_05s.jpg	0	0	0	123.430415880051	123.480400422472	0.0499845424201339
133665	50	336	0	0	stove1	1563	27	1	stimuli\stove1\stove1_01b.jpg	0	-1	1	0	stove1_01b.jpg	0	0	0	123.530420561205	123.580384623725	0.0499640625203028
133765	50	337	0	0	printer	1240	28	1	stimuli\printer\printer_11s.jpg	10	-1	1	0	printer_11s.jpg	0	0	0	123.630422560382	123.68038467248	0.0499621120980009
133865	50	338	0	0	coffee_table	381	29	1	stimuli\coffee_table\coffee_table_01b.jpg	0	-1	1	0	coffee_table_01b.jpg	0	0	0	123.730422853027	123.780403738376	0.0499808853492141
133965	50	339	0	0	diskette	493	30	1	stimuli\diskette\diskette_05s.jpg	4	-1	1	0	diskette_05s.jpg	0	0	0	123.830410955125	123.880396716646	0.0499857615213841
134065	50	340	0	0	stamp2	1536	31	1	stimuli\stamp2\stamp2_05s.jpg	4	-1	1	0	stamp2_05s.jpg	0	0	0	123.930427582818	123.980413100566	0.0499855177477002
134165	50	341	0	0	football_helmet	630	32	1	stimuli\football_helmet\football_helmet_07s.jpg	6	-1	1	0	football_helmet_07s.jpg	0	0	0	124.030433483073	124.080414368422	0.0499808853492141
134265	50	342	0	0	breadbox	195	33	1	stimuli\breadbox\breadbox_12s.jpg	11	-1	1	0	breadbox_12s.jpg	0	0	0	124.130439383211	124.180413198075	0.0499738148646429
134365	50	343	0	0	peeler	1138	34	1	stimuli\peeler\peeler_11s.jpg	10	-1	1	0	peeler_11s.jpg	0	0	0	124.230445039575	124.280417391681	0.0499723521061242
134465	50	344	0	0	bedpan	109	35	1	stimuli\bedpan\bedpan_09s.jpg	8	-1	1	0	bedpan_09s.jpg	0	0	0	124.330465568346	124.380420122296	0.0499545539496467
134565	50	345	0	0	cruise_ship	450	36	1	stimuli\cruise_ship\cruise_ship_02s.jpg	1	-1	1	0	cruise_ship_02s.jpg	0	0	0	124.430445380975	124.480422365363	0.049976984388195
134665	50	346	0	0	pickle	1167	37	1	stimuli\pickle\pickle_06n.jpg	5	-1	1	0	pickle_06n.jpg	0	0	0	124.530448843027	124.580412661773	0.0499638187466189
134765	50	347	0	0	sweatsuit	1593	38	1	stimuli\sweatsuit\sweatsuit_09s.jpg	8	-1	1	0	sweatsuit_09s.jpg	0	0	0	124.630453036516	124.68043270288	0.0499796663643792
134865	50	348	0	0	kayak	863	39	1	stimuli\kayak\kayak_02s.jpg	1	-1	1	0	kayak_02s.jpg	0	0	0	124.730449915747	124.780432020198	0.0499821044504642
134965	50	349	0	0	compass	392	40	1	stimuli\compass\compass_12n.jpg	11	-1	1	0	compass_12n.jpg	0	0	0	124.830435579759	124.880435238476	0.0499996587168425
135065	50	350	0	0	pickax	1166	41	1	stimuli\pickax\pickax_01b.jpg	0	-1	1	0	pickax_01b.jpg	0	0	0	124.930457083741	124.980435287231	0.0499782034894451
135165	50	351	0	0	pigeon	1171	42	1	stimuli\pigeon\pigeon_06s.jpg	5	-1	1	0	pigeon_06s.jpg	0	0	0	125.030442503979	125.080437042634	0.0499945386545733
135265	50	352	0	0	laser_pointer	899	43	1	stimuli\laser_pointer\laser_pointer_02s.jpg	1	-1	1	0	laser_pointer_02s.jpg	0	0	0	125.130462301313	125.180440260912	0.0499779595993459
135365	50	353	0	0	polisher	1215	44	1	stimuli\polisher\polisher_12s.jpg	11	-1	1	0	polisher_12s.jpg	0	0	0	125.230463812943	125.280425924924	0.0499621119815856
135465	50	354	0	0	applesauce	32	45	1	stimuli\applesauce\applesauce_02s.jpg	1	-1	1	0	applesauce_02s.jpg	0	0	0	125.330465080682	125.380443040398	0.0499779597157612
135565	50	355	0	0	hot_chocolate	803	46	1	stimuli\hot_chocolate\hot_chocolate_12s.jpg	11	-1	1	0	hot_chocolate_12s.jpg	0	0	0	125.430470737047	125.480448452989	0.0499777159420773
135665	50	356	0	0	corn	412	47	1	stimuli\corn\corn_04s.jpg	3	-1	1	0	corn_04s.jpg	0	0	0	125.530452743988	125.580436555087	0.0499838110990822
135765	50	357	0	0	gopher	694	48	1	stimuli\gopher\gopher_05s.jpg	4	-1	1	0	gopher_05s.jpg	0	0	0	125.630479124142	125.680455133319	0.049976009177044
135865	50	358	0	0	pillow	1176	49	1	stimuli\pillow\pillow_08s.jpg	7	-1	1	0	pillow_08s.jpg	0	0	0	125.730477466248	125.780454450636	0.049976984388195
135965	50	359	0	0	combination_lock	390	50	1	stimuli\combination_lock\combination_lock_05s.jpg	4	-1	1	0	combination_lock_05s.jpg	0	0	0	125.830476052128	125.880462301313	0.0499862491851673
136065	50	360	0	0	octopus	1070	51	1	stimuli\octopus\octopus_07s.jpg	6	-1	1	1	octopus_07s.jpg	0	0	0	125.930480245617	125.980460887193	0.0499806415755302
136165	50	361	0	0	stair	1532	52	1	stimuli\stair\stair_08s.jpg	7	-1	1	0	stair_08s.jpg	0	0	0	126.030470542028	126.080446307431	0.0499757654033601
136265	50	362	0	0	gel	669	53	1	stimuli\gel\gel_12s.jpg	11	-1	1	0	gel_12s.jpg	0	0	0	126.130488388939	126.180469761835	0.0499813728965819
136365	50	363	0	0	battery	97	54	1	stimuli\battery\battery_12s.jpg	11	-1	1	0	battery_12s.jpg	0	0	0	126.23049087578	126.280466397293	0.0499755215132609
136465	50	364	0	0	sail	1346	55	1	stimuli\sail\sail_08s.jpg	7	-1	1	0	sail_08s.jpg	0	0	0	126.330489461659	126.380458400352	0.0499689386924729
136565	50	365	0	0	shell1	1417	56	1	stimuli\shell1\shell1_10s.jpg	9	-1	1	0	shell1_10s.jpg	1	0.541906656231731	1	126.430474394234	126.480472833849	0.0499984396155924
136665	50	366	0	0	ping-pong_table	1184	57	1	stimuli\ping-pong_table\ping-pong_table_04s.jpg	3	-1	1	0	ping-pong_table_04s.jpg	0	0	0	126.530468591605	126.580454109353	0.0499855177477002
136765	50	367	0	0	bean	102	58	1	stimuli\bean\bean_11s.jpg	10	-1	1	0	bean_11s.jpg	0	0	0	126.630508381291	126.68047683232	0.0499684510286897
136865	50	368	0	0	bark	74	59	1	stimuli\bark\bark_08s.jpg	7	-1	1	0	bark_08s.jpg	0	0	0	126.730502822436	126.780484439223	0.0499816167866811
136965	50	369	0	0	pet_food	1157	60	1	stimuli\pet_food\pet_food_03s.jpg	2	-1	1	0	pet_food_03s.jpg	0	0	0	126.830490924534	126.880486682174	0.0499957576394081
137065	50	370	0	0	wax_paper	1796	61	1	stimuli\wax_paper\wax_paper_03s.jpg	2	-1	1	0	wax_paper_03s.jpg	0	0	0	126.930506089469	126.980485999607	0.0499799101380631
137165	50	371	0	0	humvee	813	62	1	stimuli\humvee\humvee_11s.jpg	10	-1	1	0	humvee_11s.jpg	0	0	0	127.030507844873	127.080490680644	0.049982835771516
137265	50	372	0	0	washing_machine	1784	63	1	stimuli\washing_machine\washing_machine_07s.jpg	6	-1	1	0	washing_machine_07s.jpg	0	0	0	127.130512038362	127.18048902275	0.049976984388195
137365	50	373	0	0	whip	1809	64	1	stimuli\whip\whip_08s.jpg	7	-1	1	0	whip_08s.jpg	0	0	0	127.230512087117	127.280490290606	0.0499782034894451
137465	50	374	0	0	rhubarb	1307	65	1	stimuli\rhubarb\rhubarb_09n.jpg	8	-1	1	0	rhubarb_09n.jpg	0	0	0	127.330514573958	127.380497653619	0.0499830796616152
137565	50	375	0	0	clasp	351	66	1	stimuli\clasp\clasp_10s.jpg	9	-1	1	0	clasp_10s.jpg	0	0	0	127.430518767564	127.480485511944	0.0499667443800718
137665	50	376	0	0	chicken2	323	67	1	stimuli\chicken2\chicken2_11s.jpg	10	-1	1	0	chicken2_11s.jpg	0	0	0	127.53051979153	127.580501408316	0.0499816167866811
137765	50	377	0	0	calculator	240	68	1	stimuli\calculator\calculator_08s.jpg	7	-1	1	0	calculator_08s.jpg	0	0	0	127.630523253581	127.680504138931	0.0499808853492141
137865	50	378	0	0	prism	1241	69	1	stimuli\prism\prism_03s.jpg	2	-1	1	0	prism_03s.jpg	0	0	0	127.730509161483	127.780505406787	0.0499962453031912
137965	50	379	0	0	grate	707	70	1	stimuli\grate\grate_05s.jpg	4	-1	1	0	grate_05s.jpg	0	0	0	127.830528958701	127.880509600276	0.0499806415755302
138065	50	380	0	0	chisel	336	71	1	stimuli\chisel\chisel_02s.jpg	1	-1	1	0	chisel_02s.jpg	0	0	0	127.93053047033	127.980515744304	0.0499852739740163
138165	50	381	0	0	banana	63	72	1	stimuli\banana\banana_04s.jpg	3	-1	1	1	banana_04s.jpg	0	0	0	128.030515890568	128.080512867309	0.0499969767406583
138265	50	382	0	0	pajamas	1099	73	1	stimuli\pajamas\pajamas_11s.jpg	10	-1	1	0	pajamas_11s.jpg	0	0	0	128.130539101199	128.180516817025	0.049977715825662
138365	50	383	0	0	nail	1046	74	1	stimuli\nail\nail_03s.jpg	2	-1	1	0	nail_03s.jpg	0	0	0	128.230540612829	128.280517840991	0.0499772281618789
138465	50	384	0	0	totem_pole	1689	75	1	stimuli\totem_pole\totem_pole_09s.jpg	8	-1	1	0	totem_pole_09s.jpg	0	0	0	128.330542855896	128.380526666879	0.0499838109826669
138565	50	385	0	0	bowtie	180	76	1	stimuli\bowtie\bowtie_02s.jpg	1	-1	1	0	bowtie_02s.jpg	1	0.441945616854355	1	128.430544367526	128.480507942382	0.0499635748565197
138665	50	386	0	0	snowman	1482	77	1	stimuli\snowman\snowman_12s.jpg	11	-1	1	0	snowman_12s.jpg	0	0	0	128.53054417239	128.580515793059	0.0499716206686571
138765	50	387	0	0	space_shuttle	1501	78	1	stimuli\space_shuttle\space_shuttle_04s.jpg	3	-1	1	0	space_shuttle_04s.jpg	0	0	0	128.630552754505	128.680550950347	0.0499981958419085
138865	50	388	0	0	yoke	1849	79	1	stimuli\yoke\yoke_10s.jpg	9	-1	1	0	yoke_10s.jpg	0	0	0	128.730553290923	128.780534420046	0.049981129122898
138965	50	389	0	0	whipped_cream	1810	80	1	stimuli\whipped_cream\whipped_cream_05s.jpg	4	-1	1	0	whipped_cream_05s.jpg	0	0	0	128.830555046326	128.880535687902	0.0499806415755302
139065	50	390	0	0	bib	122	81	1	stimuli\bib\bib_05s.jpg	4	-1	1	0	bib_05s.jpg	0	0	0	128.930563384551	128.980536468094	0.0499730835435912
139165	50	391	0	0	chain	298	82	1	stimuli\chain\chain_06s.jpg	5	-1	1	0	chain_06s.jpg	0	0	0	129.030557825696	129.080522863544	0.0499650378478691
139265	50	392	0	0	leek	910	83	1	stimuli\leek\leek_01b.jpg	0	-1	1	0	leek_01b.jpg	0	0	0	129.130559337325	129.180543879862	0.0499845425365493
139365	50	393	0	0	sim_card	1446	84	1	stimuli\sim_card\sim_card_03s.jpg	2	-1	1	0	sim_card_03s.jpg	0	0	0	129.230561580393	129.280543684843	0.0499821044504642
139465	50	394	0	0	manatee	964	85	1	stimuli\manatee\manatee_09s.jpg	8	-1	1	0	manatee_09s.jpg	0	0	0	129.33056382346	129.38055129163	0.0499874681700021
139565	50	395	0	0	wax	1795	86	1	stimuli\wax\wax_05s.jpg	4	-1	1	0	wax_05s.jpg	0	0	0	129.430558996042	129.480547927087	0.0499889310449362
139665	50	396	0	0	life_jacket	924	87	1	stimuli\life_jacket\life_jacket_11s.jpg	10	-1	1	0	life_jacket_11s.jpg	0	0	0	129.530553924851	129.580536516849	0.0499825919978321
139765	50	397	0	0	lawnmower	905	88	1	stimuli\lawnmower\lawnmower_05n.jpg	4	-1	1	0	lawnmower_05n.jpg	0	0	0	129.630573234521	129.680555338855	0.0499821043340489
139865	50	398	0	0	power_line	1237	89	1	stimuli\power_line\power_line_06s.jpg	5	-1	1	0	power_line_06s.jpg	0	0	0	129.730575477472	129.780539783882	0.0499643064104021
139965	50	399	0	0	cloak	358	90	1	stimuli\cloak\cloak_07s.jpg	6	-1	1	0	cloak_07s.jpg	0	0	0	129.830580646289	129.880560556427	0.0499799101380631
140065	50	400	0	0	gum	724	91	1	stimuli\gum\gum_02s.jpg	1	-1	1	0	gum_02s.jpg	0	0	0	129.930581670254	129.980564749916	0.0499830796616152
140165	50	401	0	0	stuffing	1575	92	1	stimuli\stuffing\stuffing_11s.jpg	10	-1	1	0	stuffing_11s.jpg	0	0	0	130.03057074768	130.080549926381	0.0499791787005961
140265	50	402	0	0	grapefruit	703	93	1	stimuli\grapefruit\grapefruit_03s.jpg	2	-1	1	0	grapefruit_03s.jpg	0	0	0	130.130589569686	130.180566066527	0.0499764968408272
140365	50	403	0	0	torch	1683	94	1	stimuli\torch\torch_08s.jpg	7	-1	1	0	torch_08s.jpg	0	0	0	130.230588887003	130.280568553368	0.0499796663643792
140465	50	404	0	0	napkin	1050	95	1	stimuli\napkin\napkin_09s.jpg	8	-1	1	0	napkin_09s.jpg	0	0	0	130.330590886297	130.380547878332	0.0499569920357317
140565	50	405	0	0	thumbtack	1654	96	1	stimuli\thumbtack\thumbtack_05s.jpg	4	-1	1	0	thumbtack_05s.jpg	0	0	0	130.430565578863	130.480549877509	0.04998429864645
140665	50	406	0	0	hookah	795	97	1	stimuli\hookah\hookah_08s.jpg	7	-1	1	0	hookah_08s.jpg	0	0	0	130.530569284805	130.580556265311	0.049986980506219
140765	50	407	0	0	table	1608	98	1	stimuli\table\table_08s.jpg	7	-1	1	0	table_08s.jpg	0	0	0	130.630577623029	130.680584352231	0.0500067292014137
140865	50	408	0	0	breathalyzer	198	99	1	stimuli\breathalyzer\breathalyzer_07s.jpg	6	-1	1	0	breathalyzer_07s.jpg	0	0	0	130.73060107755	130.780581475236	0.0499803976854309
140965	50	409	0	0	ladder	886	100	1	stimuli\ladder\ladder_10s.jpg	9	-1	1	0	ladder_10s.jpg	0	0	0	130.830603808165	130.880572503083	0.049968694918789
141065	50	410	0	0	ring	1313	101	1	stimuli\ring\ring_02s.jpg	1	-1	1	0	ring_02s.jpg	0	0	0	130.930610195966	130.980589130893	0.0499789349269122
141165	50	411	0	0	cheese	312	102	1	stimuli\cheese\cheese_10s.jpg	9	-1	1	0	cheese_10s.jpg	0	0	0	131.030610244721	131.080588691984	0.0499784472631291
141265	50	412	0	0	basketball_hoop	84	103	1	stimuli\basketball_hoop\basketball_hoop_04s.jpg	3	-1	1	0	basketball_hoop_04s.jpg	0	0	0	131.130613219226	131.180597274099	0.0499840548727661
141365	50	413	0	0	coffin	383	104	1	stimuli\coffin\coffin_11s.jpg	10	-1	1	0	coffin_11s.jpg	0	0	0	131.230613755528	131.28057635529	0.0499625997617841
141465	50	414	0	0	rickshaw	1310	105	1	stimuli\rickshaw\rickshaw_11s.jpg	10	-1	1	0	rickshaw_11s.jpg	0	0	0	131.330615267158	131.38058444974	0.0499691825825721
141565	50	415	0	0	red_carpet	1298	106	1	stimuli\red_carpet\red_carpet_08s.jpg	7	-1	1	0	red_carpet_08s.jpg	0	0	0	131.430620192084	131.480598883238	0.0499786911532283
141665	50	416	0	0	comb	389	107	1	stimuli\comb\comb_09s.jpg	8	-1	1	0	comb_09s.jpg	0	0	0	131.530605124775	131.580601857626	0.0499967328505591
141765	50	417	0	0	treadmill	1706	108	1	stimuli\treadmill\treadmill_08s.jpg	7	-1	1	0	treadmill_08s.jpg	0	0	0	131.630625409656	131.680607514107	0.0499821044504642
141865	50	418	0	0	zebra	1851	109	1	stimuli\zebra\zebra_05s.jpg	4	-1	1	0	zebra_05s.jpg	0	0	0	131.730609123246	131.780590740032	0.0499816167866811
141965	50	419	0	0	tape_recorder	1624	110	1	stimuli\tape_recorder\tape_recorder_03s.jpg	2	-1	1	0	tape_recorder_03s.jpg	0	0	0	131.830628432916	131.880588350701	0.0499599177855998
142065	50	420	0	0	penguin	1145	111	1	stimuli\penguin\penguin_06s.jpg	5	-1	1	0	penguin_06s.jpg	0	0	0	131.930602637818	131.980590106105	0.0499874682864174
142165	50	421	0	0	hearing_aid	770	112	1	stimuli\hearing_aid\hearing_aid_07s.jpg	6	-1	1	0	hearing_aid_07s.jpg	0	0	0	132.030633406597	132.08061453572	0.049981129122898
142265	50	422	0	0	snowsuit	1486	113	1	stimuli\snowsuit\snowsuit_06s.jpg	5	-1	1	0	snowsuit_06s.jpg	0	0	0	132.13064076961	132.180615315912	0.04997454630211
142365	50	423	0	0	pretzel	1239	114	1	stimuli\pretzel\pretzel_01b.jpg	0	-1	1	0	pretzel_01b.jpg	0	0	0	132.230637892731	132.280618290417	0.0499803976854309
142465	50	424	0	0	beard	106	115	1	stimuli\beard\beard_08s.jpg	7	-1	1	0	beard_08s.jpg	0	0	0	132.330642817658	132.380621508695	0.049978691036813
142565	50	425	0	0	chocolate	338	116	1	stimuli\chocolate\chocolate_08s.jpg	7	-1	1	0	chocolate_08s.jpg	0	0	0	132.430617266451	132.480601808871	0.0499845424201339
142665	50	426	0	0	fossil	636	117	1	stimuli\fossil\fossil_04s.jpg	3	-1	1	0	fossil_04s.jpg	0	0	0	132.530618046643	132.58061746147	0.0499994148267433
142765	50	427	0	0	cucumber	457	118	1	stimuli\cucumber\cucumber_10s.jpg	9	-1	1	0	cucumber_10s.jpg	0	0	0	132.630621752469	132.680635064491	0.0500133120222017
142865	50	428	0	0	beaker	101	119	1	stimuli\beaker\beaker_01b.jpg	0	-1	1	0	beaker_01b.jpg	0	0	0	132.730650814599	132.780632187496	0.0499813728965819
142965	50	429	0	0	pipe2	1187	120	1	stimuli\pipe2\pipe2_01b.jpg	0	-1	1	0	pipe2_01b.jpg	0	0	0	132.830655008089	132.880641501048	0.0499864929588512
143065	50	430	0	0	clothes	361	121	1	stimuli\clothes\clothes_04s.jpg	3	-1	1	0	clothes_04s.jpg	0	0	0	132.930658470141	132.980620826012	0.0499623558716848
143165	50	431	0	0	brownie	204	122	1	stimuli\brownie\brownie_02s.jpg	1	-1	1	0	brownie_02s.jpg	0	0	0	133.03065998177	133.080640135682	0.049980153911747
143265	50	432	0	0	remote_control	1302	123	1	stimuli\remote_control\remote_control_02s.jpg	1	-1	1	1	remote_control_02s.jpg	0	0	0	133.130672464846	133.180644085398	0.0499716205522418
143365	50	433	0	0	pesto	1156	124	1	stimuli\pesto\pesto_06s.jpg	5	-1	1	0	pesto_06s.jpg	0	0	0	133.230662517366	133.280645353254	0.0499828358879313
143465	50	434	0	0	hairspray	738	125	1	stimuli\hairspray\hairspray_12s.jpg	11	-1	1	0	hairspray_12s.jpg	0	0	0	133.330668905168	133.380635649664	0.0499667444964871
143565	50	435	0	0	coffee_pot	380	126	1	stimuli\coffee_pot\coffee_pot_04s.jpg	3	-1	1	0	coffee_pot_04s.jpg	0	0	0	133.430672854884	133.480631797458	0.0499589425744489
143665	50	436	0	0	turtleneck	1737	127	1	stimuli\turtleneck\turtleneck_06s.jpg	5	-1	1	0	turtleneck_06s.jpg	1	0.392168799764477	1	133.530674854177	133.580653788988	0.0499789348104969
143765	50	437	0	0	bat1	87	128	1	stimuli\bat1\bat1_03s.jpg	2	-1	1	0	bat1_03s.jpg	0	0	0	133.63067660958	133.680644573062	0.0499679634813219
143865	50	438	0	0	hula_hoop	810	129	1	stimuli\hula_hoop\hula_hoop_09s.jpg	8	-1	1	0	hula_hoop_09s.jpg	0	0	0	133.730660810717	133.780657787458	0.0499969767406583
143965	50	439	0	0	poppy	1224	130	1	stimuli\poppy\poppy_02s.jpg	1	-1	1	0	poppy_02s.jpg	0	0	0	133.830675731879	133.880663200049	0.0499874681700021
144065	50	440	0	0	shower_curtain	1435	131	1	stimuli\shower_curtain\shower_curtain_07s.jpg	6	-1	1	0	shower_curtain_07s.jpg	0	0	0	133.930667491164	133.980662273592	0.0499947824282572
144165	50	441	0	0	bolt	159	132	1	stimuli\bolt\bolt_10n.jpg	9	-1	1	0	bolt_10n.jpg	0	0	0	134.030682899873	134.080644768081	0.0499618682079017
144265	50	442	0	0	star_fruit	1540	133	1	stimuli\star_fruit\star_fruit_10s.jpg	9	-1	1	0	star_fruit_10s.jpg	0	0	0	134.130659542978	134.180650668335	0.0499911253573373
144365	50	443	0	0	webcam	1799	134	1	stimuli\webcam\webcam_01b.jpg	0	-1	1	0	webcam_01b.jpg	0	0	0	134.230666174553	134.280649010325	0.049982835771516
144465	50	444	0	0	yacht	1844	135	1	stimuli\yacht\yacht_03s.jpg	2	-1	1	0	yacht_03s.jpg	0	0	0	134.330708158435	134.380675146705	0.049966988270171
144565	50	445	0	0	tank2	1621	136	1	stimuli\tank2\tank2_01b.jpg	0	-1	1	0	tank2_01b.jpg	0	0	0	134.430697235861	134.480680315522	0.0499830796616152
144665	50	446	0	0	cigarette	344	137	1	stimuli\cigarette\cigarette_04s.jpg	3	-1	1	0	cigarette_04s.jpg	0	0	0	134.530697528389	134.580677194754	0.0499796663643792
144765	50	447	0	0	inkwell	830	138	1	stimuli\inkwell\inkwell_06s.jpg	5	-1	1	0	inkwell_06s.jpg	0	0	0	134.630702697206	134.680667734938	0.0499650377314538
144865	50	448	0	0	magnifying_glass	958	139	1	stimuli\magnifying_glass\magnifying_glass_06s.jpg	5	-1	1	0	magnifying_glass_06s.jpg	0	0	0	134.730689092656	134.780674366513	0.049985273857601
144965	50	449	0	0	throne	1652	140	1	stimuli\throne\throne_07s.jpg	6	-1	1	0	throne_07s.jpg	0	0	0	134.830686703324	134.880682948628	0.0499962453031912
145065	50	450	0	0	barrel	76	141	1	stimuli\barrel\barrel_09s.jpg	8	-1	1	0	barrel_09s.jpg	0	0	0	134.930705281557	134.980671782163	0.0499665006063879
145165	50	451	0	0	cleaver	354	142	1	stimuli\cleaver\cleaver_10s.jpg	9	-1	1	0	cleaver_10s.jpg	0	0	0	135.030688263709	135.08069474902	0.0500064853113145
145265	50	452	0	0	turban	1730	143	1	stimuli\turban\turban_11s.jpg	10	-1	1	1	turban_11s.jpg	0	0	0	135.130722445669	135.180683094892	0.0499606492230669
145365	50	453	0	0	pitcher	1190	144	1	stimuli\pitcher\pitcher_05s.jpg	4	-1	1	0	pitcher_05s.jpg	0	0	0	135.23071956879	135.280703867436	0.04998429864645
145465	50	454	0	0	towel	1692	145	1	stimuli\towel\towel_02s.jpg	1	-1	1	0	towel_02s.jpg	0	0	0	135.330725956592	135.380683680065	0.0499577234731987
145565	50	455	0	0	cheeseburger	313	146	1	stimuli\cheeseburger\cheeseburger_11s.jpg	10	-1	1	0	cheeseburger_11s.jpg	0	0	0	135.430693091126	135.480677389773	0.04998429864645
145665	50	456	0	0	napkin_ring	1051	147	1	stimuli\napkin_ring\napkin_ring_11s.jpg	10	-1	1	0	napkin_ring_11s.jpg	1	0.409031375311315	1	135.530695334077	135.58067938895	0.0499840548727661
145765	50	457	0	0	riser	1314	148	1	stimuli\riser\riser_02s.jpg	1	-1	1	0	riser_02s.jpg	0	0	0	135.630704403855	135.680681144469	0.0499767406145111
145865	50	458	0	0	hot-water_bottle	802	149	1	stimuli\hot-water_bottle\hot-water_bottle_03s.jpg	2	-1	1	0	hot-water_bottle_03s.jpg	0	0	0	135.730697138351	135.780682899873	0.0499857615213841
145965	50	459	0	0	brass_knuckles	193	150	1	stimuli\brass_knuckles\brass_knuckles_05s.jpg	4	-1	1	0	brass_knuckles_05s.jpg	0	0	0	135.830708402325	135.880686361925	0.0499779595993459
146066	50	460	0	0	spout	1520	151	1	stimuli\spout\spout_10s.jpg	9	-1	1	0	spout_10s.jpg	0	0	0	135.93074429105	135.980719081126	0.0499747900757939
146165	50	461	0	0	calf2	242	152	1	stimuli\calf2\calf2_08s.jpg	7	-1	1	0	calf2_08s.jpg	0	0	0	136.030723859789	136.080719861318	0.0499960015295073
146266	50	462	0	0	dessert	481	153	1	stimuli\dessert\dessert_11s.jpg	10	-1	1	0	dessert_11s.jpg	0	0	0	136.130743657122	136.180727224331	0.049983567208983
146366	50	463	0	0	bulletproof_vest	218	154	1	stimuli\bulletproof_vest\bulletproof_vest_12s.jpg	11	-1	1	0	bulletproof_vest_12s.jpg	0	0	0	136.230739561142	136.28071947128	0.0499799101380631
146466	50	464	0	0	kebab	865	155	1	stimuli\kebab\kebab_12n.jpg	11	-1	1	0	kebab_12n.jpg	0	0	0	136.330743023194	136.380727809505	0.0499847863102332
146566	50	465	0	0	ribbon	1308	156	1	stimuli\ribbon\ribbon_11s.jpg	10	-1	1	0	ribbon_11s.jpg	0	0	0	136.430745753925	136.480729564908	0.0499838109826669
146666	50	466	0	0	shopping_basket	1427	157	1	stimuli\shopping_basket\shopping_basket_12s.jpg	11	-1	1	0	shopping_basket_12s.jpg	0	0	0	136.530746534117	136.580733514624	0.049986980506219
146766	50	467	0	0	fire_pit	593	158	1	stimuli\fire_pit\fire_pit_01b.jpg	0	-1	1	0	fire_pit_01b.jpg	0	0	0	136.630749996169	136.680719178636	0.0499691824661568
146866	50	468	0	0	vulture	1768	159	1	stimuli\vulture\vulture_11s.jpg	10	-1	1	0	vulture_11s.jpg	0	0	0	136.730735660181	136.780728979851	0.0499933196697384
146966	50	469	0	0	thread	1651	160	1	stimuli\thread\thread_11s.jpg	10	-1	1	0	thread_11s.jpg	0	0	0	136.830757895601	136.880738049513	0.049980153911747
147066	50	470	0	0	turkey	1733	161	1	stimuli\turkey\turkey_03s.jpg	2	-1	1	0	turkey_03s.jpg	0	0	0	136.930759894778	136.980721763102	0.049961868324317
147166	50	471	0	0	shawl	1411	162	1	stimuli\shawl\shawl_10s.jpg	9	-1	1	0	shawl_10s.jpg	0	0	0	137.03072776075	137.080717179459	0.0499894187087193
147266	50	472	0	0	ukulele	1742	163	1	stimuli\ukulele\ukulele_05s.jpg	4	-1	1	0	ukulele_05s.jpg	0	0	0	137.130766575225	137.18074404716	0.0499774719355628
147366	50	473	0	0	rack2	1269	164	1	stimuli\rack2\rack2_07s.jpg	6	-1	1	0	rack2_07s.jpg	0	0	0	137.230771012488	137.280745315016	0.0499743025284261
147466	50	474	0	0	margarita	973	165	1	stimuli\margarita\margarita_01b.jpg	0	-1	1	0	margarita_01b.jpg	0	0	0	137.330768135609	137.380751702818	0.049983567208983
147566	50	475	0	0	prune	1244	166	1	stimuli\prune\prune_04s.jpg	3	-1	1	0	prune_04s.jpg	0	0	0	137.430773548083	137.480771987699	0.0499984396155924
147666	50	476	0	0	dollhouse	500	167	1	stimuli\dollhouse\dollhouse_03s.jpg	2	-1	1	0	dollhouse_03s.jpg	0	0	0	137.530755555024	137.580755213625	0.0499996586004272
147766	50	477	0	0	overalls	1090	168	1	stimuli\overalls\overalls_02s.jpg	1	-1	1	0	overalls_02s.jpg	0	0	0	137.630776327569	137.680757212918	0.0499808853492141
147866	50	478	0	0	fireplace	595	169	1	stimuli\fireplace\fireplace_10s.jpg	9	-1	1	0	fireplace_10s.jpg	0	0	0	137.730779302074	137.780741657829	0.0499623557552695
147966	50	479	0	0	anteater	25	170	1	stimuli\anteater\anteater_01b.jpg	0	-1	1	0	anteater_01b.jpg	0	0	0	137.830780082149	137.880761211389	0.0499811292393133
148066	50	480	0	0	sauce	1362	171	1	stimuli\sauce\sauce_10s.jpg	9	-1	1	0	sauce_10s.jpg	0	0	0	137.930783056654	137.980763942003	0.0499808853492141
148166	50	481	0	0	snake	1477	172	1	stimuli\snake\snake_05s.jpg	4	-1	1	0	snake_05s.jpg	0	0	0	138.030784812057	138.080767891719	0.0499830796616152
148266	50	482	0	0	hood	791	173	1	stimuli\hood\hood_07s.jpg	6	-1	1	0	hood_07s.jpg	0	0	0	138.130788517999	138.180752824293	0.0499643062939867
148366	50	483	0	0	cymbal	468	174	1	stimuli\cymbal\cymbal_12s.jpg	11	-1	1	0	cymbal_12s.jpg	0	0	0	138.230790517293	138.280787737807	0.0499972205143422
148466	50	484	0	0	silverware	1445	175	1	stimuli\silverware\silverware_08s.jpg	7	-1	1	0	silverware_08s.jpg	0	0	0	138.33079544222	138.380776815116	0.0499813728965819
148566	50	485	0	0	nacho	1045	176	1	stimuli\nacho\nacho_05s.jpg	4	-1	1	0	nacho_05s.jpg	0	0	0	138.430774523411	138.480775401113	0.0500008777016774
148666	50	486	0	0	revolver	1304	177	1	stimuli\revolver\revolver_07s.jpg	6	-1	1	0	revolver_07s.jpg	0	0	0	138.530780911213	138.580783007899	0.0500020966865122
148766	50	487	0	0	maple_syrup	971	178	1	stimuli\maple_syrup\maple_syrup_08s.jpg	7	-1	1	0	maple_syrup_08s.jpg	0	0	0	138.630802415079	138.680781106232	0.0499786911532283
148866	50	488	0	0	shirt	1422	179	1	stimuli\shirt\shirt_12s.jpg	11	-1	1	0	shirt_12s.jpg	0	0	0	138.730801244848	138.780784812057	0.049983567208983
148966	50	489	0	0	pine_tree	1181	180	1	stimuli\pine_tree\pine_tree_10s.jpg	9	-1	1	0	pine_tree_10s.jpg	0	0	0	138.830804463127	138.880790468422	0.049986005295068
149066	50	490	0	0	ice-cream_cone	817	181	1	stimuli\ice-cream_cone\ice-cream_cone_06s.jpg	5	-1	1	0	ice-cream_cone_06s.jpg	0	0	0	138.930792077561	138.980791736278	0.0499996587168425
149166	50	491	0	0	trident	1712	182	1	stimuli\trident\trident_09s.jpg	8	-1	1	0	trident_09s.jpg	0	0	0	139.030812850106	139.080775937415	0.0499630873091519
149266	50	492	0	0	crow	446	183	1	stimuli\crow\crow_02s.jpg	1	-1	1	0	crow_02s.jpg	0	0	0	139.130813386524	139.1807940281	0.0499806415755302
149366	50	493	0	0	finger	588	184	1	stimuli\finger\finger_09s.jpg	8	-1	1	0	finger_09s.jpg	0	0	0	139.230761991581	139.28079651494	0.0500345233594999
149466	50	494	0	0	wine_cooler	1825	185	1	stimuli\wine_cooler\wine_cooler_06s.jpg	5	-1	1	0	wine_cooler_06s.jpg	0	0	0	139.330820554518	139.380798514234	0.0499779597157612
149566	50	495	0	0	blindfold	142	186	1	stimuli\blindfold\blindfold_06s.jpg	5	-1	1	0	blindfold_06s.jpg	0	0	0	139.430822797585	139.480779545847	0.0499567482620478
149666	50	496	0	0	coleslaw	386	187	1	stimuli\coleslaw\coleslaw_01b.jpg	0	-1	1	0	coleslaw_01b.jpg	0	0	0	139.530806023511	139.580782276462	0.0499762529507279
149766	50	497	0	0	radish	1274	188	1	stimuli\radish\radish_06n.jpg	5	-1	1	0	radish_06n.jpg	0	0	0	139.630799976992	139.680808169069	0.0500081920763478
149866	50	498	0	0	pencil_sharpener	1143	189	1	stimuli\pencil_sharpener\pencil_sharpener_06s.jpg	5	-1	1	0	pencil_sharpener_06s.jpg	0	0	0	139.730831477209	139.780814556871	0.0499830796616152
149966	50	499	0	0	outfit	1087	190	1	stimuli\outfit\outfit_06s.jpg	5	-1	1	0	outfit_06s.jpg	0	0	0	139.830832013511	139.880813874188	0.0499818606767803
150066	50	500	0	0	badger	53	191	1	stimuli\badger\badger_09s.jpg	8	-1	1	0	badger_09s.jpg	0	0	0	139.930816702312	139.98081441049	0.0499977081781253
150166	50	501	0	0	board_game	153	192	1	stimuli\board_game\board_game_07s.jpg	6	-1	1	0	board_game_07s.jpg	0	0	0	140.030834549223	140.080819335533	0.0499847863102332
150266	50	502	0	0	ice_cube	819	193	1	stimuli\ice_cube\ice_cube_01b.jpg	0	-1	1	0	ice_cube_01b.jpg	0	0	0	140.130844350322	140.180819628062	0.049975277739577
150366	50	503	0	0	banana_peel	64	194	1	stimuli\banana_peel\banana_peel_10s.jpg	9	-1	1	0	banana_peel_10s.jpg	0	0	0	140.230805877247	140.280818701605	0.0500128243584186
150466	50	504	0	0	arch	35	195	1	stimuli\arch\arch_01b.jpg	0	-1	1	0	arch_01b.jpg	0	0	0	140.330845423043	140.380823870306	0.0499784472631291
150566	50	505	0	0	watch	1786	196	1	stimuli\watch\watch_08s.jpg	7	-1	1	0	watch_08s.jpg	0	0	0	140.430848153774	140.480810509645	0.0499623558716848
150666	50	506	0	0	knitting_needle	881	197	1	stimuli\knitting_needle\knitting_needle_06s.jpg	5	-1	1	0	knitting_needle_06s.jpg	0	0	0	140.530850884388	140.580834451714	0.0499835673253983
150766	50	507	0	0	goose	693	198	1	stimuli\goose\goose_10s.jpg	9	-1	1	0	goose_10s.jpg	0	0	0	140.630852639792	140.68083254993	0.0499799101380631
150866	50	508	0	0	cloud	364	199	1	stimuli\cloud\cloud_03s.jpg	2	-1	1	0	cloud_03s.jpg	0	0	0	140.730836597155	140.780818945379	0.0499823482241482
150966	50	509	0	0	soda	1490	200	1	stimuli\soda\soda_12s.jpg	11	-1	1	0	soda_12s.jpg	0	0	0	140.830855663051	140.880838255049	0.0499825919978321
151066	50	510	0	0	hairbrush	734	201	1	stimuli\hairbrush\hairbrush_08s.jpg	7	-1	1	0	hairbrush_08s.jpg	0	0	0	140.930857662344	140.980839522905	0.049981860560365
151166	50	511	0	0	snowboard	1481	202	1	stimuli\snowboard\snowboard_04s.jpg	3	-1	1	0	snowboard_04s.jpg	0	0	0	141.030847958638	141.080847373581	0.0499994149431586
151266	50	512	0	0	raisin	1280	203	1	stimuli\raisin\raisin_03s.jpg	2	-1	1	0	raisin_03s.jpg	0	0	0	141.130865561659	141.180845715688	0.0499801540281624
151366	50	513	0	0	marker	975	204	1	stimuli\marker\marker_07s.jpg	6	-1	1	0	marker_07s.jpg	0	0	0	141.230868779938	141.280830648262	0.049961868324317
151466	50	514	0	0	clarinet	350	205	1	stimuli\clarinet\clarinet_10s.jpg	9	-1	1	0	clarinet_10s.jpg	0	0	0	141.330862977309	141.380850689369	0.0499877120601013
151566	50	515	0	0	arrow	38	206	1	stimuli\arrow\arrow_03s.jpg	2	-1	1	0	arrow_03s.jpg	0	0	0	141.430856930907	141.480853419984	0.0499964890768752
151666	50	516	0	0	cotton_candy	421	207	1	stimuli\cotton_candy\cotton_candy_03s.jpg	2	-1	1	0	cotton_candy_03s.jpg	0	0	0	141.530873802491	141.580853956402	0.049980153911747
151766	50	517	0	0	cannon	260	208	1	stimuli\cannon\cannon_04s.jpg	3	-1	1	0	cannon_04s.jpg	0	0	0	141.630880434066	141.680857662344	0.0499772282782942
151866	50	518	0	0	tattoo	1629	209	1	stimuli\tattoo\tattoo_09s.jpg	8	-1	1	1	tattoo_09s.jpg	0	0	0	141.730880970485	141.780859661521	0.049978691036813
151966	50	519	0	0	sorbet	1497	210	1	stimuli\sorbet\sorbet_06s.jpg	5	-1	1	0	sorbet_06s.jpg	0	0	0	141.830859076348	141.880832891329	0.0499738149810582
152066	50	520	0	0	donut	505	211	1	stimuli\donut\donut_06s.jpg	5	-1	1	0	donut_06s.jpg	0	0	0	141.930852542282	141.980836109607	0.0499835673253983
152166	50	521	0	0	tea	1631	212	1	stimuli\tea\tea_01b.jpg	0	-1	1	0	tea_01b.jpg	0	0	0	142.030855029123	142.080837133573	0.0499821044504642
152266	50	522	0	0	scale	1371	213	1	stimuli\scale\scale_10s.jpg	9	-1	1	0	scale_10s.jpg	1	0.400156476651318	1	142.130858491291	142.180840108078	0.0499816167866811
152366	50	523	0	0	puppy	1258	214	1	stimuli\puppy\puppy_12s.jpg	11	-1	1	0	puppy_12s.jpg	0	0	0	142.230860490468	142.28084649588	0.0499860054114833
152466	50	524	0	0	paperclip	1116	215	1	stimuli\paperclip\paperclip_11s.jpg	10	-1	1	0	paperclip_11s.jpg	0	0	0	142.330862245872	142.380880434066	0.0500181881943718
152566	50	525	0	0	toucan	1690	216	1	stimuli\toucan\toucan_09s.jpg	8	-1	1	0	toucan_09s.jpg	0	0	0	142.430895696511	142.480878532398	0.0499828358879313
152666	50	526	0	0	squirt_gun	1530	217	1	stimuli\squirt_gun\squirt_gun_09s.jpg	8	-1	1	0	squirt_gun_09s.jpg	0	0	0	142.530881848186	142.580877849716	0.0499960015295073
152766	50	527	0	0	jukebox	857	218	1	stimuli\jukebox\jukebox_07s.jpg	6	-1	1	0	jukebox_07s.jpg	0	0	0	142.630904571153	142.68090422987	0.0499996587168425
152866	50	528	0	0	pea	1128	219	1	stimuli\pea\pea_06s.jpg	5	-1	1	0	pea_06s.jpg	0	0	0	142.730906326557	142.780868682428	0.0499623558716848
152966	50	529	0	0	slug	1472	220	1	stimuli\slug\slug_02s.jpg	1	-1	1	0	slug_02s.jpg	0	0	0	142.830908082076	142.880887748324	0.0499796662479639
153066	50	530	0	0	candy_bar	256	221	1	stimuli\candy_bar\candy_bar_07s.jpg	6	-1	1	0	candy_bar_07s.jpg	0	0	0	142.930908130831	142.980889747618	0.0499816167866811
153166	50	531	0	0	album	11	222	1	stimuli\album\album_12s.jpg	11	-1	1	0	album_12s.jpg	0	0	0	143.030911836657	143.080892478232	0.0499806415755302
153266	50	532	0	0	candelabra	252	223	1	stimuli\candelabra\candelabra_10s.jpg	9	-1	1	0	candelabra_10s.jpg	0	0	0	143.130915298825	143.18089862226	0.0499833234352991
153366	50	533	0	0	bagpipe	56	224	1	stimuli\bagpipe\bagpipe_09s.jpg	8	-1	1	0	bagpipe_09s.jpg	0	0	0	143.230902669486	143.280884286272	0.0499816167866811
153466	50	534	0	0	beehive	112	225	1	stimuli\beehive\beehive_01b.jpg	0	-1	1	0	beehive_01b.jpg	0	0	0	143.330903693452	143.38090140163	0.0499977081781253
153566	50	535	0	0	saffron	1345	226	1	stimuli\saffron\saffron_01b.jpg	0	-1	1	0	saffron_01b.jpg	0	0	0	143.430920808925	143.480901938048	0.049981129122898
153666	50	536	0	0	candy	255	227	1	stimuli\candy\candy_08s.jpg	7	-1	1	0	candy_08s.jpg	0	0	0	143.530922564329	143.580908569624	0.049986005295068
153766	50	537	0	0	honeycomb	789	228	1	stimuli\honeycomb\honeycomb_01b.jpg	0	-1	1	0	honeycomb_01b.jpg	0	0	0	143.630928220693	143.680908618378	0.0499803976854309
153866	50	538	0	0	blender	138	229	1	stimuli\blender\blender_06s.jpg	5	-1	1	0	blender_06s.jpg	0	0	0	143.730929976096	143.780895745265	0.0499657691689208
153966	50	539	0	0	appetizer	29	230	1	stimuli\appetizer\appetizer_03s.jpg	2	-1	1	0	appetizer_03s.jpg	0	0	0	143.830935876234	143.880917249247	0.0499813730129972
154066	50	540	0	0	ladybug	888	231	1	stimuli\ladybug\ladybug_04s.jpg	3	-1	1	0	ladybug_04s.jpg	0	0	0	143.930936656427	143.980914128479	0.0499774720519781
154166	50	541	0	0	cocktail	374	232	1	stimuli\cocktail\cocktail_03s.jpg	2	-1	1	0	cocktail_03s.jpg	0	0	0	144.030937680509	144.080919784843	0.0499821043340489
154266	50	542	0	0	rain_gauge	1278	233	1	stimuli\rain_gauge\rain_gauge_06s.jpg	5	-1	1	0	rain_gauge_06s.jpg	0	0	0	144.130941873998	144.180943483138	0.0500016091391444
154366	50	543	0	0	spareribs	1505	234	1	stimuli\spareribs\spareribs_08n.jpg	7	-1	1	0	spareribs_08n.jpg	0	0	0	144.230940216104	144.280922076665	0.049981860560365
154466	50	544	0	0	safety_pin	1344	235	1	stimuli\safety_pin\safety_pin_09s.jpg	8	-1	1	0	safety_pin_09s.jpg	0	0	0	144.330945141031	144.380927245482	0.0499821044504642
154566	50	545	0	0	peach	1129	236	1	stimuli\peach\peach_07n.jpg	6	-1	1	0	peach_07n.jpg	0	0	0	144.430950309732	144.480926562799	0.0499762530671433
154666	50	546	0	0	cilantro	347	237	1	stimuli\cilantro\cilantro_03s.jpg	2	-1	1	0	cilantro_03s.jpg	0	0	0	144.530948408064	144.580917102983	0.049968694918789
154766	50	547	0	0	bed	108	238	1	stimuli\bed\bed_11n.jpg	10	-1	1	0	bed_11n.jpg	0	0	0	144.630938704475	144.680931536481	0.0499928320059553
154866	50	548	0	0	shovel	1432	239	1	stimuli\shovel\shovel_04n.jpg	3	-1	1	0	shovel_04n.jpg	0	0	0	144.73095655127	144.780922564329	0.04996601305902
154966	50	549	0	0	stethoscope	1550	240	1	stimuli\stethoscope\stethoscope_05s.jpg	4	-1	1	0	stethoscope_05s.jpg	0	0	0	144.830957575352	144.88092236931	0.0499647939577699
155066	50	550	0	0	lock	940	241	1	stimuli\lock\lock_12s.jpg	11	-1	1	0	lock_12s.jpg	0	0	0	144.930958599318	144.980940216104	0.0499816167866811
155166	50	551	0	0	lingerie	932	242	1	stimuli\lingerie\lingerie_03s.jpg	2	-1	1	0	lingerie_03s.jpg	0	0	0	145.030964499456	145.080946603906	0.0499821044504642
155266	50	552	0	0	gold	687	243	1	stimuli\gold\gold_02s.jpg	1	-1	1	0	gold_02s.jpg	0	0	0	145.130966742523	145.18094543356	0.049978691036813
155366	50	553	0	0	shell2	1418	244	1	stimuli\shell2\shell2_08s.jpg	7	-1	1	0	shell2_08s.jpg	0	0	0	145.230966547504	145.280950358603	0.0499838110990822
155466	50	554	0	0	wrapping_paper	1838	245	1	stimuli\wrapping_paper\wrapping_paper_02s.jpg	1	-1	1	0	wrapping_paper_02s.jpg	0	0	0	145.330972447642	145.380938704475	0.0499662568327039
155566	50	555	0	0	ice	816	246	1	stimuli\ice\ice_02s.jpg	1	-1	1	0	ice_02s.jpg	0	0	0	145.430974690709	145.480953381746	0.049978691036813
155666	50	556	0	0	rat	1285	247	1	stimuli\rat\rat_05s.jpg	4	-1	1	0	rat_05s.jpg	0	0	0	145.5309742518	145.580954405828	0.0499801540281624
155766	50	557	0	0	locker	941	248	1	stimuli\locker\locker_12s.jpg	11	-1	1	0	locker_12s.jpg	0	0	0	145.630977470079	145.680940557388	0.0499630873091519
155866	50	558	0	0	milk	1001	249	1	stimuli\milk\milk_01b.jpg	0	-1	1	0	milk_01b.jpg	0	0	0	145.730960208457	145.780944507103	0.04998429864645
155966	50	559	0	0	vent	1758	250	1	stimuli\vent\vent_12s.jpg	11	-1	1	0	vent_12s.jpg	0	0	0	145.830959525774	145.880947725382	0.0499881996074691
156066	50	560	0	0	blouse	144	251	1	stimuli\blouse\blouse_01b.jpg	0	-1	1	0	blouse_01b.jpg	0	0	0	145.93096615735	145.98094533605	0.0499791787005961
156166	50	561	0	0	wing	1827	252	1	stimuli\wing\wing_03s.jpg	2	-1	1	0	wing_03s.jpg	0	0	0	146.030960842385	146.080950260977	0.049989418592304
156266	50	562	0	0	easter_egg	543	253	1	stimuli\easter_egg\easter_egg_06s.jpg	5	-1	1	0	easter_egg_06s.jpg	0	0	0	146.131000144407	146.180971277412	0.049971133004874
156366	50	563	0	0	dress	518	254	1	stimuli\dress\dress_04s.jpg	3	-1	1	0	dress_04s.jpg	0	0	0	146.230994829326	146.280996194691	0.0500013653654605
156466	50	564	0	0	syringe	1604	255	1	stimuli\syringe\syringe_08s.jpg	7	-1	1	0	syringe_08s.jpg	0	0	0	146.330994634307	146.380974788219	0.049980153911747
156566	50	565	0	0	brace	186	256	1	stimuli\brace\brace_02s.jpg	1	-1	1	0	brace_02s.jpg	0	0	0	146.430981761194	146.480978494161	0.0499967329669744
156666	50	566	0	0	log	943	257	1	stimuli\log\log_06s.jpg	5	-1	1	0	log_06s.jpg	0	0	0	146.530956697534	146.580980493338	0.0500237958040088
156766	50	567	0	0	antenna	27	258	1	stimuli\antenna\antenna_04n.jpg	3	-1	1	0	antenna_04n.jpg	0	0	0	146.631003557704	146.680983467842	0.0499799101380631
156866	50	568	0	0	thermostat	1648	259	1	stimuli\thermostat\thermostat_08s.jpg	7	-1	1	0	thermostat_08s.jpg	0	0	0	146.731004337897	146.780989611871	0.0499852739740163
156966	50	569	0	0	face	569	260	1	stimuli\face\face_07s.jpg	6	-1	1	0	face_07s.jpg	0	0	0	146.831008531386	146.880996974884	0.0499884434975684
157066	50	570	0	0	bomb	160	261	1	stimuli\bomb\bomb_02s.jpg	1	-1	1	0	bomb_02s.jpg	0	0	0	146.931010530679	146.980972642661	0.0499621119815856
157166	50	571	0	0	okra	1074	262	1	stimuli\okra\okra_06s.jpg	5	-1	1	0	okra_06s.jpg	0	0	0	147.030986442347	147.080974885728	0.049988443381153
157266	50	572	0	0	swordfish	1603	263	1	stimuli\swordfish\swordfish_07s.jpg	6	-1	1	0	swordfish_07s.jpg	0	0	0	147.130989172962	147.180977372569	0.0499881996074691
157366	50	573	0	0	cauliflower	288	264	1	stimuli\cauliflower\cauliflower_08s.jpg	7	-1	1	0	cauliflower_08s.jpg	0	0	0	147.230995560763	147.280981322285	0.0499857615213841
157466	50	574	0	0	bull	214	265	1	stimuli\bull\bull_05s.jpg	4	-1	1	0	bull_05s.jpg	0	0	0	147.331003899104	147.381003557704	0.0499996586004272
157566	50	575	0	0	sloth	1471	266	1	stimuli\sloth\sloth_11n.jpg	10	-1	1	0	sloth_11n.jpg	0	0	0	147.431025890633	147.480994341779	0.0499684511451051
157666	50	576	0	0	camera1	246	267	1	stimuli\camera1\camera1_01b.jpg	0	-1	1	0	camera1_01b.jpg	0	0	0	147.531026427052	147.581008775276	0.0499823482241482
157766	50	577	0	0	fingerprint	589	268	1	stimuli\fingerprint\fingerprint_12s.jpg	11	-1	1	0	fingerprint_12s.jpg	0	0	0	147.63102940144	147.680991513538	0.0499621120980009
157866	50	578	0	0	raccoon	1266	269	1	stimuli\raccoon\raccoon_07n.jpg	6	-1	1	0	raccoon_07n.jpg	0	0	0	147.731028718874	147.780993756605	0.0499650377314538
157966	50	579	0	0	goblet	685	270	1	stimuli\goblet\goblet_05s.jpg	4	-1	1	0	goblet_05s.jpg	0	0	0	147.831019746605	147.881022818619	0.0500030720140785
158066	50	580	0	0	airbag	7	271	1	stimuli\airbag\airbag_06s.jpg	5	-1	1	0	airbag_06s.jpg	0	0	0	147.931038568728	147.98101604078	0.0499774720519781
158166	50	581	0	0	pincushion	1179	272	1	stimuli\pincushion\pincushion_09s.jpg	8	-1	1	0	pincushion_09s.jpg	0	0	0	148.031040324131	148.081030230387	0.0499899062560871
158266	50	582	0	0	dumbwaiter	531	273	1	stimuli\dumbwaiter\dumbwaiter_10s.jpg	9	-1	1	1	dumbwaiter_10s.jpg	0	0	0	148.131043298636	148.18100492307	0.0499616244342178
158366	50	583	0	0	nightstand	1059	274	1	stimuli\nightstand\nightstand_10s.jpg	9	-1	1	0	nightstand_10s.jpg	0	0	0	148.231027987436	148.281026183162	0.0499981957254931
158466	50	584	0	0	kitten	875	275	1	stimuli\kitten\kitten_01b.jpg	0	-1	1	0	kitten_01b.jpg	0	0	0	148.331043883809	148.381025744369	0.049981860560365
158566	50	585	0	0	mustache	1043	276	1	stimuli\mustache\mustache_04s.jpg	3	-1	1	0	mustache_04s.jpg	1	0.341904851957224	1	148.431036862079	148.481012627366	0.0499757652869448
158666	50	586	0	0	sleeping_bag	1462	277	1	stimuli\sleeping_bag\sleeping_bag_09s.jpg	8	-1	1	0	sleeping_bag_09s.jpg	0	0	0	148.531053977436	148.581031449488	0.0499774720519781
158766	50	587	0	0	berry	121	278	1	stimuli\berry\berry_05s.jpg	4	-1	1	0	berry_05s.jpg	0	0	0	148.631053782417	148.681032473454	0.049978691036813
158866	50	588	0	0	beetle	115	279	1	stimuli\beetle\beetle_07n.jpg	6	-1	1	0	beetle_07n.jpg	0	0	0	148.731035301695	148.78103666706	0.0500013653654605
158966	50	589	0	0	pudding	1246	280	1	stimuli\pudding\pudding_09s.jpg	8	-1	1	0	pudding_09s.jpg	0	0	0	148.831061925623	148.881040616659	0.049978691036813
159066	50	590	0	0	bike	123	281	1	stimuli\bike\bike_12n.jpg	11	-1	1	0	bike_12n.jpg	0	0	0	148.931060511502	148.981039202656	0.0499786911532283
159166	50	591	0	0	crank	432	282	1	stimuli\crank\crank_08s.jpg	7	-1	1	0	crank_08s.jpg	0	0	0	149.031062267022	149.081046565669	0.04998429864645
159266	50	592	0	0	tool	1676	283	1	stimuli\tool\tool_09s.jpg	8	-1	1	0	tool_09s.jpg	0	0	0	149.13104451762	149.181028084946	0.0499835673253983
159366	50	593	0	0	seahorse	1396	284	1	stimuli\seahorse\seahorse_11s.jpg	10	-1	1	0	seahorse_11s.jpg	0	0	0	149.23106114543	149.281031303224	0.049970157793723
159466	50	594	0	0	credit_card	438	285	1	stimuli\credit_card\credit_card_03s.jpg	2	-1	1	0	credit_card_03s.jpg	0	0	0	149.331052904716	149.381056708167	0.0500038034515455
159566	50	595	0	0	chair	300	286	1	stimuli\chair\chair_06s.jpg	5	-1	1	0	chair_06s.jpg	0	0	0	149.43107367726	149.481054318836	0.0499806415755302
159666	50	596	0	0	fondue	626	287	1	stimuli\fondue\fondue_08n.jpg	7	-1	1	0	fondue_08n.jpg	0	0	0	149.531077383086	149.581059243763	0.0499818606767803
159766	50	597	0	0	rollerblade	1326	288	1	stimuli\rollerblade\rollerblade_01b.jpg	0	-1	1	0	rollerblade_01b.jpg	0	0	0	149.631081820466	149.681044664001	0.049962843535468
159866	50	598	0	0	chariot	309	289	1	stimuli\chariot\chariot_05s.jpg	4	-1	1	0	chariot_05s.jpg	0	0	0	149.731079674908	149.781062510796	0.0499828358879313
159966	50	599	0	0	bagel	55	290	1	stimuli\bagel\bagel_08s.jpg	7	-1	1	0	bagel_08s.jpg	0	0	0	149.831082161749	149.881066216622	0.0499840548727661
160066	50	600	0	0	videogame	1762	291	1	stimuli\videogame\videogame_12s.jpg	11	-1	1	0	videogame_12s.jpg	0	0	0	149.931085867691	149.981065290165	0.04997942247428
160166	50	601	0	0	net	1057	292	1	stimuli\net\net_07s.jpg	6	-1	1	0	net_07s.jpg	0	0	0	150.031092011719	150.081073384616	0.0499813728965819
160266	50	602	0	0	cage	236	293	1	stimuli\cage\cage_10s.jpg	9	-1	1	0	cage_10s.jpg	0	0	0	150.131080357591	150.181073189597	0.0499928320059553
160366	50	603	0	0	mascara	978	294	1	stimuli\mascara\mascara_02s.jpg	1	-1	1	0	mascara_02s.jpg	0	0	0	150.231083088322	150.281082746922	0.0499996586004272
160466	50	604	0	0	flatiron	613	295	1	stimuli\flatiron\flatiron_02s.jpg	1	-1	1	0	flatiron_02s.jpg	0	0	0	150.331096790382	150.381075969082	0.0499791787005961
160566	50	605	0	0	lunchbox	950	296	1	stimuli\lunchbox\lunchbox_03s.jpg	2	-1	1	0	lunchbox_03s.jpg	0	0	0	150.431083185831	150.481078212149	0.0499950263183564
160666	50	606	0	0	sword	1602	297	1	stimuli\sword\sword_11s.jpg	10	-1	1	0	sword_11s.jpg	0	0	0	150.53110152029	150.581084843725	0.0499833234352991
160766	50	607	0	0	clock	359	298	1	stimuli\clock\clock_04n.jpg	3	-1	1	0	clock_04n.jpg	0	0	0	150.631102788029	150.681086842902	0.0499840548727661
160866	50	608	0	0	ruler	1341	299	1	stimuli\ruler\ruler_07s.jpg	6	-1	1	0	ruler_07s.jpg	0	0	0	150.731106737745	150.781093474594	0.0499867368489504
160966	50	609	0	0	rocket	1320	300	1	stimuli\rocket\rocket_01b.jpg	0	-1	1	0	rocket_01b.jpg	0	0	0	150.831114344648	150.881071824348	0.0499574796995148
161066	50	610	0	0	icicle	824	301	1	stimuli\icicle\icicle_01b.jpg	0	-1	1	0	icicle_01b.jpg	0	0	0	150.931115612388	150.981091621565	0.049976009177044
161166	50	611	0	0	cheetah	315	302	1	stimuli\cheetah\cheetah_01b.jpg	0	-1	1	0	cheetah_01b.jpg	0	0	0	151.031115173595	151.081094352296	0.0499791787005961
161266	50	612	0	0	skirt	1457	303	1	stimuli\skirt\skirt_04s.jpg	3	-1	1	0	skirt_04s.jpg	0	0	0	151.131120586186	151.181100983871	0.0499803976854309
161366	50	613	0	0	clover	366	304	1	stimuli\clover\clover_04s.jpg	3	-1	1	0	clover_04s.jpg	0	0	0	151.231106006308	151.281100788852	0.0499947825446725
161466	50	614	0	0	sock	1489	305	1	stimuli\sock\sock_12s.jpg	11	-1	1	0	sock_12s.jpg	0	0	0	151.331122390344	151.381087428075	0.0499650377314538
161566	50	615	0	0	stockings	1559	306	1	stimuli\stockings\stockings_06s.jpg	5	-1	1	0	stockings_06s.jpg	0	0	0	151.431123170536	151.48110551876	0.0499823482241482
161666	50	616	0	0	makeup	961	307	1	stimuli\makeup\makeup_04s.jpg	3	-1	1	0	makeup_04s.jpg	0	0	0	151.531126632588	151.581110199913	0.0499835673253983
161766	50	617	0	0	cherry	316	308	1	stimuli\cherry\cherry_09s.jpg	8	-1	1	0	cherry_09s.jpg	0	0	0	151.631129363319	151.681111955317	0.0499825919978321
176216	50	618	0	0	bat2	88	0	2	stimuli\bat2\bat2_01b.jpg	0	-1	2	0	bat2_01b.jpg	0	0	0	166.081493467907	166.131473865709	0.0499803978018463
176316	50	619	0	0	xylophone	1843	1	2	stimuli\xylophone\xylophone_04s.jpg	3	-1	2	0	xylophone_04s.jpg	0	0	0	166.181490834802	166.231475864886	0.0499850300839171
176416	50	620	0	0	poinsettia	1209	2	2	stimuli\poinsettia\poinsettia_11s.jpg	10	-1	2	0	poinsettia_11s.jpg	0	0	0	166.281496247393	166.331475669867	0.04997942247428
176516	50	621	0	0	horn	797	3	2	stimuli\horn\horn_11s.jpg	10	-1	2	0	horn_11s.jpg	0	0	0	166.381500196992	166.431478888146	0.0499786911532283
176616	50	622	0	0	train	1698	4	2	stimuli\train\train_06s.jpg	5	-1	2	0	train_06s.jpg	0	0	0	166.481502927723	166.531486494932	0.049983567208983
176716	50	623	0	0	ski_pole	1455	5	2	stimuli\ski_pole\ski_pole_08s.jpg	7	-1	2	0	ski_pole_08s.jpg	0	0	0	166.581507364986	166.631482886616	0.0499755216296762
176816	50	624	0	0	exerciser	561	6	2	stimuli\exerciser\exerciser_06s.jpg	5	-1	2	0	exerciser_06s.jpg	0	0	0	166.681510095717	166.731486104894	0.049976009177044
176916	50	625	0	0	crate	433	7	2	stimuli\crate\crate_09s.jpg	8	-1	2	0	crate_09s.jpg	0	0	0	166.781516727293	166.831496637431	0.0499799101380631
177016	50	626	0	0	mold2	1013	8	2	stimuli\mold2\mold2_07s.jpg	6	-1	2	0	mold2_07s.jpg	0	0	0	166.881513118977	166.931491810014	0.049978691036813
177116	50	627	0	0	thorn	1650	9	2	stimuli\thorn\thorn_07s.jpg	6	-1	2	0	thorn_07s.jpg	0	0	0	166.981521944865	167.031831241213	0.0503092963481322
177216	50	628	0	0	guitar	723	10	2	stimuli\guitar\guitar_04s.jpg	3	-1	2	0	guitar_04s.jpg	0	0	0	167.081517117447	167.131499953219	0.049982835771516
177316	50	629	0	0	peppermint	1152	11	2	stimuli\peppermint\peppermint_04s.jpg	3	-1	2	0	peppermint_04s.jpg	0	0	0	167.181517653749	167.231503659161	0.0499860054114833
177416	50	630	0	0	peg	1139	12	2	stimuli\peg\peg_11s.jpg	10	-1	2	0	peg_11s.jpg	0	0	0	167.281524772989	167.331503951689	0.0499791787005961
177516	50	631	0	0	highchair	777	13	2	stimuli\highchair\highchair_02s.jpg	1	-1	2	0	highchair_02s.jpg	0	0	0	167.381526528392	167.431506194756	0.0499796663643792
177616	50	632	0	0	chandelier	305	14	2	stimuli\chandelier\chandelier_01b.jpg	0	-1	2	0	chandelier_01b.jpg	0	0	0	167.481528040022	167.531498197815	0.049970157793723
177716	50	633	0	0	fungus	648	15	2	stimuli\fungus\fungus_07s.jpg	6	-1	2	0	fungus_07s.jpg	0	0	0	167.58152857644	167.631513606524	0.0499850300839171
177816	50	634	0	0	funnel	649	16	2	stimuli\funnel\funnel_04s.jpg	3	-1	2	1	funnel_04s.jpg	0	0	0	167.681530819507	167.731511461083	0.0499806415755302
177916	50	635	0	0	cape	266	17	2	stimuli\cape\cape_09s.jpg	8	-1	2	0	cape_09s.jpg	0	0	0	167.781535744434	167.831512728822	0.049976984388195
178016	50	636	0	0	string_cheese	1573	18	2	stimuli\string_cheese\string_cheese_10s.jpg	9	-1	2	0	string_cheese_10s.jpg	0	0	0	167.88153701229	167.931519116624	0.0499821043340489
178116	50	637	0	0	lizard	937	19	2	stimuli\lizard\lizard_10n.jpg	9	-1	2	0	lizard_10n.jpg	0	0	0	167.981545106741	168.031522334903	0.0499772281618789
178216	50	638	0	0	speaker	1509	20	2	stimuli\speaker\speaker_04s.jpg	3	-1	2	0	speaker_04s.jpg	0	0	0	168.081554664066	168.13152457797	0.0499699139036238
178316	50	639	0	0	sandpaper	1356	21	2	stimuli\sandpaper\sandpaper_07s.jpg	6	-1	2	0	sandpaper_07s.jpg	1	0.550170081318356	1	168.181542766164	168.231525601936	0.049982835771516
178416	50	640	0	0	orchid	1081	22	2	stimuli\orchid\orchid_06s.jpg	5	-1	2	0	orchid_06s.jpg	0	0	0	168.28154647199	168.331526869792	0.0499803978018463
178516	50	641	0	0	scoop	1381	23	2	stimuli\scoop\scoop_11s.jpg	10	-1	2	0	scoop_11s.jpg	0	0	0	168.381552616018	168.431546179461	0.0499935634434223
178616	50	642	0	0	beachball	99	24	2	stimuli\beachball\beachball_03s.jpg	2	-1	2	0	beachball_03s.jpg	0	0	0	168.48155047046	168.53154086438	0.0499903939198703
178716	50	643	0	0	highlighter	778	25	2	stimuli\highlighter\highlighter_09s.jpg	8	-1	2	0	highlighter_09s.jpg	0	0	0	168.58155490784	168.631537499838	0.0499825919978321
178816	50	644	0	0	bookmark	166	26	2	stimuli\bookmark\bookmark_05s.jpg	4	-1	2	0	bookmark_05s.jpg	0	0	0	168.681559345103	168.731540474342	0.0499811292393133
178916	50	645	0	0	barcode	73	27	2	stimuli\barcode\barcode_04s.jpg	3	-1	2	0	barcode_04s.jpg	0	0	0	168.781560369185	168.831539791659	0.04997942247428
179016	50	646	0	0	cannonball	261	28	2	stimuli\cannonball\cannonball_05s.jpg	4	-1	2	0	cannonball_05s.jpg	0	0	0	168.881563831237	168.931543009938	0.0499791787005961
179116	50	647	0	0	banjo	68	29	2	stimuli\banjo\banjo_04s.jpg	3	-1	2	0	banjo_04s.jpg	0	0	0	168.981568024727	169.03154939774	0.0499813730129972
179216	50	648	0	0	amplifier	20	30	2	stimuli\amplifier\amplifier_04s.jpg	3	-1	2	0	amplifier_04s.jpg	0	0	0	169.081566854496	169.131548958831	0.0499821043340489
179316	50	649	0	0	snowmobile	1483	31	2	stimuli\snowmobile\snowmobile_09s.jpg	8	-1	2	0	snowmobile_09s.jpg	0	0	0	169.181599329924	169.231533647631	0.0499343177070841
179416	50	650	0	0	teabag	1632	32	2	stimuli\teabag\teabag_11s.jpg	10	-1	2	0	teabag_11s.jpg	0	0	0	169.281560856733	169.331561978324	0.0500011215917766
179516	50	651	0	0	crystal1	453	33	2	stimuli\crystal1\crystal1_01b.jpg	0	-1	2	0	crystal1_01b.jpg	0	0	0	169.381582360715	169.431536914664	0.0499545539496467
179616	50	652	0	0	pulley	1250	34	2	stimuli\pulley\pulley_02s.jpg	1	-1	2	0	pulley_02s.jpg	0	0	0	169.481551445788	169.531563051045	0.0500116052571684
179716	50	653	0	0	petri_dish	1159	35	2	stimuli\petri_dish\petri_dish_07s.jpg	6	-1	2	0	petri_dish_07s.jpg	0	0	0	169.581584408763	169.631564562675	0.049980153911747
