onset	duration	eventnumber	blocksequencenumber	isteststim	object	objectnumber	presentationnumber	sequencenumber	stim	stimnumber	teststimnumber	withinsequencenumber	istarget	stimname	response	rt	correct	time_stimon	time_stimoff	stimdur
136262	50	0	0	0	hamburger	740	0	0	stimuli\hamburger\hamburger_03s.jpg	2	-1	0	0	hamburger_03s.jpg	0	0	0	94.9200575098075	94.9700104423609	0.049952932553424
136362	50	1	0	0	mailbox	960	1	0	stimuli\mailbox\mailbox_06s.jpg	5	-1	0	0	mailbox_06s.jpg	0	0	0	95.0199216834735	95.0699294731894	0.0500077897158917
136462	50	2	0	0	matchbox	984	2	0	stimuli\matchbox\matchbox_07s.jpg	6	-1	0	0	matchbox_07s.jpg	0	0	0	95.1199077619458	95.1698502106883	0.0499424487425131
136562	50	3	0	0	file1	583	3	0	stimuli\file1\file1_07s.jpg	6	-1	0	0	file1_07s.jpg	0	0	0	95.2198992042249	95.2698767615511	0.0499775573262013
136662	50	4	0	0	jug	853	4	0	stimuli\jug\jug_11s.jpg	10	-1	0	0	jug_11s.jpg	0	0	0	95.3198852826972	95.369849186689	0.0499639039917383
136762	50	5	0	0	curry	464	5	0	stimuli\curry\curry_05s.jpg	4	-1	0	0	curry_05s.jpg	0	0	0	95.4198801383172	95.4703514101056	0.0504712717884104
136862	50	6	0	0	lemon	914	6	0	stimuli\lemon\lemon_06s.jpg	5	-1	0	0	lemon_06s.jpg	0	0	0	95.5199405787207	95.56998250178	0.0500419230593252
136962	50	7	0	0	album	11	7	0	stimuli\album\album_10s.jpg	9	-1	0	0	album_10s.jpg	0	0	0	95.6199476248148	95.6698932430809	0.0499456182660651
137062	50	8	0	0	jalapeno	838	8	0	stimuli\jalapeno\jalapeno_04s.jpg	3	-1	0	0	jalapeno_04s.jpg	0	0	0	95.7199344347173	95.7699334472854	0.0499990125681506
137162	50	9	0	0	urn	1749	9	0	stimuli\urn\urn_01b.jpg	0	-1	0	0	urn_01b.jpg	0	0	0	95.8199646427311	95.8699214762382	0.0499568335071672
137262	50	10	0	0	sail	1346	10	0	stimuli\sail\sail_05s.jpg	4	-1	0	0	sail_05s.jpg	0	0	0	95.9199307288145	95.9699026785165	0.0499719497020124
137362	50	11	0	0	skin	1456	11	0	stimuli\skin\skin_06s.jpg	5	-1	0	0	skin_06s.jpg	0	0	0	96.0199053482283	96.0699372750969	0.0500319268685416
137462	50	12	0	0	dumbbell	530	12	0	stimuli\dumbbell\dumbbell_09s.jpg	8	-1	0	0	dumbbell_09s.jpg	0	0	0	96.11994482101	96.169927742143	0.0499829211330507
137562	50	13	0	0	dip	487	13	0	stimuli\dip\dip_06s.jpg	5	-1	0	0	dip_06s.jpg	0	0	0	96.219925048048	96.2699396644311	0.0500146163831232
137662	50	14	0	0	refrigerator	1300	14	0	stimuli\refrigerator\refrigerator_05s.jpg	4	-1	0	0	refrigerator_05s.jpg	0	0	0	96.3200203532251	96.369943541009	0.0499231877838611
137762	50	15	0	0	crystal_ball	455	15	0	stimuli\crystal_ball\crystal_ball_05s.jpg	4	-1	0	0	crystal_ball_05s.jpg	0	0	0	96.4199693726332	96.4701434405069	0.0501740678737406
137862	50	16	0	0	amplifier	20	16	0	stimuli\amplifier\amplifier_01s.jpg	0	-1	0	0	amplifier_01s.jpg	0	0	0	96.5201721978519	96.569835240778	0.0496630429261131
137962	50	17	0	0	flamethrower	607	17	0	stimuli\flamethrower\flamethrower_06s.jpg	5	-1	0	0	flamethrower_06s.jpg	0	0	0	96.6199081276573	96.6698488697366	0.0499407420793432
138062	50	18	0	0	flour	618	18	0	stimuli\flour\flour_09s.jpg	8	-1	0	0	flour_09s.jpg	0	0	0	96.7199229756661	96.7698327539183	0.0499097782521858
138162	50	19	0	0	toe	1668	19	0	stimuli\toe\toe_05s.jpg	4	-1	0	0	toe_05s.jpg	0	0	0	96.8199090541384	96.8698958762252	0.0499868220867938
138262	50	20	0	0	goggles	686	20	0	stimuli\goggles\goggles_10s.jpg	9	-1	0	0	goggles_10s.jpg	0	0	0	96.9199246335702	96.9698468461138	0.0499222125436063
138362	50	21	0	0	sausage	1365	21	0	stimuli\sausage\sausage_08s.jpg	7	-1	0	0	sausage_08s.jpg	0	0	0	97.0198943767973	97.069927035096	0.0500326582987327
138462	50	22	0	0	cd_player	290	22	0	stimuli\cd_player\cd_player_10s.jpg	9	-1	0	0	cd_player_10s.jpg	0	0	0	97.1199219029004	97.1698979973735	0.0499760944730951
138562	50	23	0	0	springboard	1522	23	0	stimuli\springboard\springboard_02s.jpg	1	-1	0	0	springboard_02s.jpg	0	0	0	97.2198970099416	97.2698501863051	0.0499531763634877
138662	50	24	0	0	pothole	1233	24	0	stimuli\pothole\pothole_08s.jpg	7	-1	0	0	pothole_08s.jpg	0	0	0	97.3199128331835	97.369839678111	0.0499268449275405
138762	50	25	0	0	forklift	635	25	0	stimuli\forklift\forklift_04n.jpg	3	-1	0	0	forklift_04n.jpg	0	0	0	97.4199059821331	97.4699186480429	0.0500126659098896
138862	50	26	0	0	axe	45	26	0	stimuli\axe\axe_05n.jpg	4	-1	0	1	axe_05n.jpg	0	0	0	97.5199354587166	97.5700417475164	0.050106288799725
138962	50	27	0	0	tag	1616	27	0	stimuli\tag\tag_01b.jpg	0	-1	0	0	tag_01b.jpg	0	0	0	97.619959327676	97.6700829269612	0.0501235992851434
139062	50	28	0	0	crumb	451	28	0	stimuli\crumb\crumb_07s.jpg	6	-1	0	0	crumb_07s.jpg	0	0	0	97.7201962862382	97.7701248378362	0.0499285515979864
139162	50	29	0	0	potpie	1234	29	0	stimuli\potpie\potpie_10s.jpg	9	-1	0	0	potpie_10s.jpg	0	0	0	97.8199739074917	97.8699148933738	0.0499409858821309
139262	50	30	0	0	dresser	519	30	0	stimuli\dresser\dresser_07s.jpg	6	-1	0	0	dresser_07s.jpg	1	0.457703298816341	1	97.9199475516725	97.9699270594792	0.0499795078067109
139362	50	31	0	0	ashtray	41	31	0	stimuli\ashtray\ashtray_03n.jpg	2	-1	0	0	ashtray_03n.jpg	0	0	0	98.0199036415652	98.0699397131975	0.0500360716323485
139462	50	32	0	0	cheetah	315	32	0	stimuli\cheetah\cheetah_04s.jpg	3	-1	0	0	cheetah_04s.jpg	0	0	0	98.1199080057559	98.1699287173833	0.0500207116274396
139562	50	33	0	0	thumbtack	1654	33	0	stimuli\thumbtack\thumbtack_07s.jpg	6	-1	0	0	thumbtack_07s.jpg	0	0	0	98.2199540613947	98.2699208910926	0.0499668296979507
139662	50	34	0	0	prism	1241	34	0	stimuli\prism\prism_12s.jpg	11	-1	0	0	prism_12s.jpg	0	0	0	98.3199603760586	98.3699635333978	0.0500031573392334
139762	50	35	0	0	saw	1366	35	0	stimuli\saw\saw_05s.jpg	4	-1	0	0	saw_05s.jpg	0	0	0	98.4199267059521	98.4698586708837	0.0499319649316021
139862	50	36	0	0	ready_meal	1292	36	0	stimuli\ready_meal\ready_meal_07s.jpg	6	-1	0	0	ready_meal_07s.jpg	0	0	0	98.5199517939618	98.5699578770145	0.0500060830527218
139962	50	37	0	0	bagpipe	56	37	0	stimuli\bagpipe\bagpipe_06s.jpg	5	-1	0	0	bagpipe_06s.jpg	0	0	0	98.6200707486714	98.6701319326967	0.0500611840252532
140062	50	38	0	0	macadamia	951	38	0	stimuli\macadamia\macadamia_09n.jpg	8	-1	0	0	macadamia_09n.jpg	0	0	0	98.7199953871241	98.7701263006893	0.0501309135652264
140162	50	39	0	0	lip_gloss	935	39	0	stimuli\lip_gloss\lip_gloss_09s.jpg	8	-1	0	0	lip_gloss_09s.jpg	0	0	0	98.8201928485287	98.8701194496389	0.0499266011102009
140262	50	40	0	0	porcupine	1226	40	0	stimuli\porcupine\porcupine_04s.jpg	3	-1	0	0	porcupine_04s.jpg	0	0	0	98.9201384546031	98.9701681871811	0.0500297325779684
140362	50	41	0	0	ramp	1283	41	0	stimuli\ramp\ramp_05s.jpg	4	-1	0	0	ramp_05s.jpg	0	0	0	99.0200825978172	99.0699077741374	0.0498251763201552
140462	50	42	0	0	shutter	1440	42	0	stimuli\shutter\shutter_07s.jpg	6	-1	0	0	shutter_07s.jpg	0	0	0	99.1199750533997	99.1699240849994	0.0499490315996809
140562	50	43	0	0	flagpole	606	43	0	stimuli\flagpole\flagpole_07s.jpg	6	-1	0	0	flagpole_07s.jpg	0	0	0	99.2199757604467	99.2699455158654	0.0499697554187151
140662	50	44	0	0	cummerbund	459	44	0	stimuli\cummerbund\cummerbund_04s.jpg	3	-1	0	0	cummerbund_04s.jpg	0	0	0	99.3199730541601	99.3700432591359	0.050070204975782
140762	50	45	0	0	sword	1602	45	0	stimuli\sword\sword_01b.jpg	0	-1	0	0	sword_01b.jpg	0	0	0	99.4200405650408	99.4700310442786	0.0499904792377492
140862	50	46	0	0	fork	634	46	0	stimuli\fork\fork_08s.jpg	7	-1	0	0	fork_08s.jpg	0	0	0	99.5200507806658	99.5700524751446	0.0500016944788513
140962	50	47	0	0	zucchini	1853	47	0	stimuli\zucchini\zucchini_09s.jpg	8	-1	0	0	zucchini_09s.jpg	0	0	0	99.6200978115376	99.6700378221867	0.0499400106491521
141062	50	48	0	0	duct_tape	528	48	0	stimuli\duct_tape\duct_tape_06s.jpg	5	-1	0	0	duct_tape_06s.jpg	0	0	0	99.7200278137971	99.7700468187613	0.0500190049642697
141162	50	49	0	0	kale	860	49	0	stimuli\kale\kale_06s.jpg	5	-1	0	0	kale_06s.jpg	0	0	0	99.8200485132329	99.8699916934056	0.0499431801727042
141262	50	50	0	0	taco	1613	50	0	stimuli\taco\taco_06n.jpg	5	-1	0	0	taco_06n.jpg	0	0	0	99.919991681214	99.9699268156692	0.0499351344551542
141362	50	51	0	0	bow3	176	51	0	stimuli\bow3\bow3_08s.jpg	7	-1	0	0	bow3_08s.jpg	0	0	0	100.020066994002	100.070011393225	0.0499443992230226
141462	50	52	0	0	green_beans	712	52	0	stimuli\green_beans\green_beans_05s.jpg	4	-1	0	0	green_beans_05s.jpg	0	0	0	100.120035761989	100.170052085043	0.0500163230535691
141562	50	53	0	0	mold1	1012	53	0	stimuli\mold1\mold1_10s.jpg	9	-1	0	0	mold1_10s.jpg	0	0	0	100.219986488068	100.269963557774	0.049977069706074
141662	50	54	0	0	keg	866	54	0	stimuli\keg\keg_11s.jpg	10	-1	0	0	keg_11s.jpg	0	0	0	100.319926974145	100.370011807696	0.0500848335504998
141762	50	55	0	0	nightshirt	1058	55	0	stimuli\nightshirt\nightshirt_03s.jpg	2	-1	0	0	nightshirt_03s.jpg	0	0	0	100.420041540281	100.469990328071	0.0499487877896172
141862	50	56	0	0	roadsweeper	1316	56	0	stimuli\roadsweeper\roadsweeper_10s.jpg	9	-1	0	0	roadsweeper_10s.jpg	0	0	0	100.519996167313	100.569992985598	0.0499968182848534
141962	50	57	0	0	clay	352	57	0	stimuli\clay\clay_04s.jpg	3	-1	0	0	clay_04s.jpg	0	0	0	100.619990047693	100.670006126937	0.0500160792435054
142062	50	58	0	0	peppermint	1152	58	0	stimuli\peppermint\peppermint_06s.jpg	5	-1	0	0	peppermint_06s.jpg	0	0	0	100.720011478552	100.77004340542	0.0500319268685416
142162	50	59	0	0	fish	600	59	0	stimuli\fish\fish_12s.jpg	11	-1	0	0	fish_12s.jpg	0	0	0	100.820164078992	100.87010043249	0.0499363534981967
142262	50	60	0	0	pinwheel	1185	60	0	stimuli\pinwheel\pinwheel_08s.jpg	7	-1	0	0	pinwheel_08s.jpg	0	0	0	100.920075064103	100.970208171959	0.0501331078557996
142362	50	61	0	0	bathrobe	90	61	0	stimuli\bathrobe\bathrobe_06s.jpg	5	-1	0	0	bathrobe_06s.jpg	0	0	0	101.020089424492	101.070083317056	0.049993892564089
142462	50	62	0	0	ferris_wheel	579	62	0	stimuli\ferris_wheel\ferris_wheel_02s.jpg	1	-1	0	0	ferris_wheel_02s.jpg	0	0	0	101.12010012773	101.170066226005	0.0499660982750356
142562	50	63	0	0	bottle_opener	171	63	0	stimuli\bottle_opener\bottle_opener_12s.jpg	11	-1	0	0	bottle_opener_12s.jpg	0	0	0	101.220091082396	101.270090582584	0.049999500188278
142662	50	64	0	0	tray	1705	64	0	stimuli\tray\tray_12s.jpg	11	-1	0	0	tray_12s.jpg	0	0	0	101.320196139954	101.370128348695	0.0499322087416658
142762	50	65	0	0	tamale	1618	65	0	stimuli\tamale\tamale_08s.jpg	7	-1	0	0	tamale_08s.jpg	0	0	0	101.420176123189	101.470120278595	0.049944155405683
142862	50	66	0	0	alligator	12	66	0	stimuli\alligator\alligator_06s.jpg	5	-1	0	0	alligator_06s.jpg	0	0	0	101.520068091144	101.570038334183	0.0499702430388425
142962	50	67	0	0	odometer	1071	67	0	stimuli\odometer\odometer_09s.jpg	8	-1	0	0	odometer_09s.jpg	0	0	0	101.620050756283	101.669938591673	0.0498878353901091
143062	50	68	0	0	headlamp	764	68	0	stimuli\headlamp\headlamp_11s.jpg	10	-1	0	0	headlamp_11s.jpg	0	0	0	101.720049025236	101.770037066373	0.0499880411371123
143162	50	69	0	0	desk	480	69	0	stimuli\desk\desk_01b.jpg	0	-1	0	0	desk_01b.jpg	0	0	0	101.820058509431	101.870024851516	0.0499663420850993
143262	50	70	0	0	minivan	1003	70	0	stimuli\minivan\minivan_01b.jpg	0	-1	0	0	minivan_01b.jpg	0	0	0	101.920044100283	101.969980697591	0.0499365973082604
143362	50	71	0	0	cherry	316	71	0	stimuli\cherry\cherry_09s.jpg	8	-1	0	0	cherry_09s.jpg	0	0	0	102.020050171144	102.070010905605	0.0499607344609103
143462	50	72	0	0	footprint	632	72	0	stimuli\footprint\footprint_08s.jpg	7	-1	0	0	footprint_08s.jpg	0	0	0	102.120065750576	102.169975772638	0.0499100220622495
143562	50	73	0	0	flyswatter	623	73	0	stimuli\flyswatter\flyswatter_06s.jpg	5	-1	0	0	flyswatter_06s.jpg	0	0	0	102.220045977614	102.270044258759	0.0499982811452355
143662	50	74	0	0	fungus	648	74	0	stimuli\fungus\fungus_07s.jpg	6	-1	0	0	fungus_07s.jpg	0	0	0	102.320126654216	102.370082512483	0.0499558582669124
143762	50	75	0	0	log	943	75	0	stimuli\log\log_02s.jpg	1	-1	0	0	log_02s.jpg	0	0	0	102.42012272888	102.470085170011	0.0499624411313562
143862	50	76	0	0	lighter	928	76	0	stimuli\lighter\lighter_04s.jpg	3	-1	0	0	lighter_04s.jpg	0	0	0	102.520001043507	102.570059058002	0.0500580144944252
143962	50	77	0	0	bison	134	77	0	stimuli\bison\bison_07n.jpg	6	-1	0	0	bison_07n.jpg	0	0	0	102.620072699152	102.670044648854	0.0499719497020124
144062	50	78	0	0	chisel	336	78	0	stimuli\chisel\chisel_12s.jpg	11	-1	0	0	chisel_12s.jpg	0	0	0	102.720064629051	102.769975382544	0.0499107534924406
144162	50	79	0	0	shovel	1432	79	0	stimuli\shovel\shovel_07n.jpg	6	-1	0	0	shovel_07n.jpg	0	0	0	102.820131164692	102.870108478208	0.0499773135161377
144262	50	80	0	0	meat	987	80	0	stimuli\meat\meat_05s.jpg	4	-1	0	0	meat_05s.jpg	0	0	0	102.920178439381	102.970132834787	0.0499543954065302
144362	50	81	0	0	soda	1490	81	0	stimuli\soda\soda_03s.jpg	2	-1	0	0	soda_03s.jpg	0	0	0	103.020159397849	103.070082585626	0.0499231877765851
144462	50	82	0	0	twig	1740	82	0	stimuli\twig\twig_12s.jpg	11	-1	0	0	twig_12s.jpg	0	0	0	103.12016449347	103.170095726964	0.0499312334941351
144562	50	83	0	0	antelope	26	83	0	stimuli\antelope\antelope_11s.jpg	10	-1	0	0	antelope_11s.jpg	0	0	0	103.220113512878	103.270020609227	0.0499070963487611
144662	50	84	0	0	leg	911	84	0	stimuli\leg\leg_05s.jpg	4	-1	0	0	leg_05s.jpg	0	0	0	103.320095690397	103.370040333422	0.0499446430258104
144762	50	85	0	0	tugboat	1725	85	0	stimuli\tugboat\tugboat_07s.jpg	6	-1	0	0	tugboat_07s.jpg	0	0	0	103.420091277439	103.470164164326	0.0500728868864826
144862	50	86	0	0	missile	1006	86	0	stimuli\missile\missile_04s.jpg	3	-1	0	0	missile_04s.jpg	0	0	0	103.520235100732	103.570111720881	0.0498766201490071
144962	50	87	0	0	anvil	28	87	0	stimuli\anvil\anvil_06s.jpg	5	-1	0	0	anvil_06s.jpg	0	0	0	103.620151449657	103.67026066417	0.0501092145132134
145062	50	88	0	0	truck	1720	88	0	stimuli\truck\truck_09n.jpg	8	-1	0	0	truck_09n.jpg	0	0	0	103.72033598915	103.770251862647	0.0499158734965022
145162	50	89	0	0	marble	972	89	0	stimuli\marble\marble_03s.jpg	2	-1	0	0	marble_03s.jpg	0	0	0	103.8202047952	103.870083853442	0.049879058242368
145262	50	90	0	0	shoulder	1431	90	0	stimuli\shoulder\shoulder_07s.jpg	6	-1	0	0	shoulder_07s.jpg	0	0	0	103.92008189077	103.970084804299	0.0500029135291697
145362	50	91	0	0	tattoo	1629	91	0	stimuli\tattoo\tattoo_11s.jpg	10	-1	0	0	tattoo_11s.jpg	0	0	0	104.020092106395	104.070097458018	0.0500053516225307
145462	50	92	0	0	can_opener	251	92	0	stimuli\can_opener\can_opener_11s.jpg	10	-1	0	0	can_opener_11s.jpg	0	0	0	104.120098664869	104.170225921298	0.0501272564288229
145562	50	93	0	0	lime	930	93	0	stimuli\lime\lime_09s.jpg	8	-1	0	0	lime_09s.jpg	0	0	0	104.220335379629	104.27014787784	0.049812498211395
145662	50	94	0	0	water_filter	1789	94	0	stimuli\water_filter\water_filter_08s.jpg	7	-1	0	0	water_filter_08s.jpg	0	0	0	104.320228810444	104.370346558295	0.0501177478508907
145762	50	95	0	0	punch2	1255	95	0	stimuli\punch2\punch2_12s.jpg	11	-1	0	0	punch2_12s.jpg	0	0	0	104.42018855748	104.470197078626	0.0500085211460828
145862	50	96	0	0	bomb	160	96	0	stimuli\bomb\bomb_01b.jpg	0	-1	0	0	bomb_01b.jpg	0	0	0	104.520211695009	104.570198029483	0.0499863344739424
145962	50	97	0	0	moss	1022	97	0	stimuli\moss\moss_12s.jpg	11	-1	0	0	moss_12s.jpg	0	0	0	104.62018412014	104.670154850799	0.0499707306589698
146062	50	98	0	0	rug	1340	98	0	stimuli\rug\rug_01b.jpg	0	-1	0	0	rug_01b.jpg	0	0	0	104.720219448158	104.770110209261	0.0498907611035975
146162	50	99	0	0	baby	46	99	0	stimuli\baby\baby_03s.jpg	2	-1	0	0	baby_03s.jpg	0	0	0	104.82014164851	104.870120912499	0.0499792639893712
146262	50	100	0	0	cement_mixer	294	100	0	stimuli\cement_mixer\cement_mixer_09s.jpg	8	-1	0	0	cement_mixer_09s.jpg	0	0	0	104.920138698413	104.970088949063	0.0499502506499994
146362	50	101	0	0	siren	1448	101	0	stimuli\siren\siren_09s.jpg	8	-1	0	0	siren_09s.jpg	0	0	0	105.020084304488	105.070201077098	0.050116772610636
146462	50	102	0	0	dashboard	475	102	0	stimuli\dashboard\dashboard_04s.jpg	3	-1	0	0	dashboard_04s.jpg	0	0	0	105.120160592516	105.170305403233	0.050144810717029
146562	50	103	0	0	insole	831	103	0	stimuli\insole\insole_06s.jpg	5	-1	0	0	insole_06s.jpg	0	0	0	105.220119364312	105.270172746423	0.0500533821104909
146662	50	104	0	0	hash	756	104	0	stimuli\hash\hash_04s.jpg	3	-1	0	0	hash_04s.jpg	0	0	0	105.320166395184	105.370208318243	0.0500419230593252
146762	50	105	0	0	bandanna	67	105	0	stimuli\bandanna\bandanna_05s.jpg	4	-1	0	0	bandanna_05s.jpg	0	0	0	105.420181243186	105.47016830909	0.0499870659041335
146862	50	106	0	0	pancake	1104	106	0	stimuli\pancake\pancake_08s.jpg	7	-1	0	0	pancake_08s.jpg	0	0	0	105.520216083583	105.570187789475	0.0499717058919487
146962	50	107	0	0	bat2	88	107	0	stimuli\bat2\bat2_01b.jpg	0	-1	0	0	bat2_01b.jpg	0	0	0	105.620230687775	105.670094386012	0.0498636982374592
147062	50	108	0	0	saltshaker	1350	108	0	stimuli\saltshaker\saltshaker_03s.jpg	2	-1	0	0	saltshaker_03s.jpg	0	0	0	105.72020847672	105.770181645472	0.0499731687523308
147162	50	109	0	0	root	1331	109	0	stimuli\root\root_11s.jpg	10	-1	0	0	root_11s.jpg	0	0	0	105.820103614205	105.870132859171	0.050029244965117
147262	50	110	0	0	ice_cube	819	110	0	stimuli\ice_cube\ice_cube_07s.jpg	6	-1	0	0	ice_cube_07s.jpg	0	0	0	105.920156008891	105.970145025269	0.0499890163773671
147362	50	111	0	0	powder	1236	111	0	stimuli\powder\powder_02s.jpg	1	-1	0	0	powder_02s.jpg	0	0	0	106.020184266425	106.070266174269	0.0500819078442873
147462	50	112	0	0	game	654	112	0	stimuli\game\game_08s.jpg	7	-1	0	0	game_08s.jpg	0	0	0	106.120220325873	106.170173502236	0.0499531763634877
147562	50	113	0	0	marshmallow	977	113	0	stimuli\marshmallow\marshmallow_04s.jpg	3	-1	0	0	marshmallow_04s.jpg	0	0	0	106.220393650125	106.270324883619	0.0499312334941351
147662	50	114	0	0	nail	1046	114	0	stimuli\nail\nail_07s.jpg	6	-1	0	0	nail_07s.jpg	0	0	0	106.320327309528	106.370390200216	0.0500628906884231
147762	50	115	0	0	scaffold	1369	115	0	stimuli\scaffold\scaffold_04s.jpg	3	-1	0	0	scaffold_04s.jpg	0	0	0	106.420339475626	106.470143928127	0.049804452501121
147862	50	116	0	0	toaster	1666	116	0	stimuli\toaster\toaster_02s.jpg	1	-1	0	0	toaster_02s.jpg	0	0	0	106.520177561666	106.570165115183	0.0499875535169849
147962	50	117	0	0	swordfish	1603	117	0	stimuli\swordfish\swordfish_03s.jpg	2	-1	0	0	swordfish_03s.jpg	0	0	0	106.620167297282	106.670155826039	0.0499885287572397
148062	50	118	0	0	seafood	1394	118	0	stimuli\seafood\seafood_11s.jpg	10	-1	0	0	seafood_11s.jpg	0	0	0	106.720128507171	106.770220167396	0.0500916602250072
148162	50	119	0	0	rust	1342	119	0	stimuli\rust\rust_07s.jpg	6	-1	0	0	rust_07s.jpg	0	0	0	106.82018187709	106.870170162045	0.049988284954452
148262	50	120	0	0	train_car	1699	120	0	stimuli\train_car\train_car_06s.jpg	5	-1	0	0	train_car_06s.jpg	0	0	0	106.920104808873	106.970098945254	0.0499941363814287
148362	50	121	0	0	tomato_sauce	1673	121	0	stimuli\tomato_sauce\tomato_sauce_09s.jpg	8	-1	0	0	tomato_sauce_09s.jpg	0	0	0	107.02020011405	107.070117938019	0.0499178239697358
148462	50	122	0	0	blower	145	122	0	stimuli\blower\blower_11s.jpg	10	-1	0	0	blower_11s.jpg	0	0	0	107.120187655382	107.170171795566	0.0499841401833692
148562	50	123	0	0	cushion	466	123	0	stimuli\cushion\cushion_05s.jpg	4	-1	0	0	cushion_05s.jpg	0	0	0	107.220342450106	107.270246133114	0.0499036830078694
148662	50	124	0	0	garbage	655	124	0	stimuli\garbage\garbage_05s.jpg	4	-1	0	0	garbage_05s.jpg	0	0	0	107.320379240977	107.370251960165	0.049872719187988
148762	50	125	0	0	brussels_sprouts	206	125	0	stimuli\brussels_sprouts\brussels_sprouts_10s.jpg	9	-1	0	0	brussels_sprouts_10s.jpg	0	0	0	107.42031436324	107.470221947202	0.0499075839616125
148862	50	126	0	0	skateboard	1449	126	0	stimuli\skateboard\skateboard_08s.jpg	7	-1	0	0	skateboard_08s.jpg	0	0	0	107.520175611186	107.570191934239	0.0500163230535691
148962	50	127	0	0	braid	190	127	0	stimuli\braid\braid_03s.jpg	2	-1	0	0	braid_03s.jpg	0	0	0	107.62018509538	107.670276511795	0.0500914164149435
149062	50	128	0	0	pantsuit	1109	128	0	stimuli\pantsuit\pantsuit_06s.jpg	5	-1	0	0	pantsuit_06s.jpg	0	0	0	107.720291615798	107.77022211787	0.04993050207122
149162	50	129	0	0	camera_lens	248	129	0	stimuli\camera_lens\camera_lens_09s.jpg	8	-1	0	0	camera_lens_09s.jpg	0	0	0	107.820314997145	107.870232577305	0.0499175801596721
149262	50	130	0	0	doghouse	497	130	0	stimuli\doghouse\doghouse_02s.jpg	1	-1	0	0	doghouse_02s.jpg	0	0	0	107.920269380367	107.970224751014	0.049955370646785
149362	50	131	0	0	amber	18	131	0	stimuli\amber\amber_02s.jpg	1	-1	0	0	amber_02s.jpg	0	0	0	108.020175976904	108.070138174218	0.0499621973140165
149462	50	132	0	0	hourglass	807	132	0	stimuli\hourglass\hourglass_04s.jpg	3	-1	0	0	hourglass_04s.jpg	0	0	0	108.120220325873	108.170205928909	0.0499856030364754
149562	50	133	0	0	rake	1281	133	0	stimuli\rake\rake_06s.jpg	5	-1	0	0	rake_06s.jpg	0	0	0	108.22013618717	108.270125203548	0.0499890163773671
149662	50	134	0	0	baton4	95	134	0	stimuli\baton4\baton4_09s.jpg	8	-1	0	0	baton4_09s.jpg	0	0	0	108.320314631426	108.370292188753	0.0499775573262013
149762	50	135	0	0	cabbage	232	135	0	stimuli\cabbage\cabbage_08s.jpg	7	-1	0	0	cabbage_08s.jpg	0	0	0	108.420319970857	108.470220484349	0.0499005134915933
149862	50	136	0	0	speedboat	1511	136	0	stimuli\speedboat\speedboat_12s.jpg	11	-1	0	0	speedboat_12s.jpg	0	0	0	108.5202443655	108.570199004716	0.0499546392165939
149962	50	137	0	0	sewing_kit	1406	137	0	stimuli\sewing_kit\sewing_kit_12s.jpg	11	-1	0	0	sewing_kit_12s.jpg	0	0	0	108.620235320159	108.670177037471	0.049941717312322
150062	50	138	0	0	bazooka	98	138	0	stimuli\bazooka\bazooka_02s.jpg	1	-1	0	0	bazooka_02s.jpg	0	0	0	108.720206038626	108.770173355944	0.0499673173180781
150162	50	139	0	0	strap	1567	139	0	stimuli\strap\strap_12s.jpg	11	-1	0	0	strap_12s.jpg	0	0	0	108.820152619941	108.870166992514	0.0500143725730595
150262	50	140	0	0	hot_tub	804	140	0	stimuli\hot_tub\hot_tub_09s.jpg	8	-1	0	0	hot_tub_09s.jpg	0	0	0	108.920233296543	108.970178914809	0.0499456182660651
150362	50	141	0	0	cheeseburger	313	141	0	stimuli\cheeseburger\cheeseburger_06s.jpg	5	-1	0	0	cheeseburger_06s.jpg	0	0	0	109.020239611207	109.070258128551	0.0500185173441423
150462	50	142	0	0	rhubarb	1307	142	0	stimuli\rhubarb\rhubarb_10n.jpg	9	-1	0	0	rhubarb_10n.jpg	0	0	0	109.120201064907	109.170187399381	0.0499863344739424
150562	50	143	0	0	shield	1420	143	0	stimuli\shield\shield_04s.jpg	3	-1	0	0	shield_04s.jpg	0	0	0	109.220259311027	109.270236136923	0.0499768258960103
150662	50	144	0	0	drumstick	523	144	0	stimuli\drumstick\drumstick_01s.jpg	0	-1	0	0	drumstick_01s.jpg	0	0	0	109.320235637111	109.370182962048	0.049947324936511
150762	50	145	0	0	dishrag	490	145	0	stimuli\dishrag\dishrag_11s.jpg	10	-1	0	0	dishrag_11s.jpg	0	0	0	109.420171246995	109.470237551017	0.0500663040220388
150862	50	146	0	0	cloud	364	146	0	stimuli\cloud\cloud_01b.jpg	0	-1	0	0	cloud_01b.jpg	0	0	0	109.520361394112	109.570370159068	0.0500087649561465
150962	50	147	0	0	pizza	1192	147	0	stimuli\pizza\pizza_07s.jpg	6	-1	0	0	pizza_07s.jpg	0	0	0	109.620266040169	109.670283826083	0.0500177859139512
151062	50	148	0	0	ankle	22	148	0	stimuli\ankle\ankle_11s.jpg	10	-1	0	0	ankle_11s.jpg	0	0	0	109.720349886295	109.77031574076	0.0499658544649719
151162	50	149	0	0	dish	489	149	0	stimuli\dish\dish_04s.jpg	3	-1	0	0	dish_04s.jpg	0	0	0	109.82036107716	109.870291823041	0.0499307458812837
151262	50	150	0	0	omelet	1076	150	0	stimuli\omelet\omelet_12s.jpg	11	-1	0	0	omelet_12s.jpg	0	0	0	109.920274744174	109.970235478635	0.0499607344609103
151362	50	151	0	0	dollhouse	500	151	0	stimuli\dollhouse\dollhouse_12s.jpg	11	-1	0	0	dollhouse_12s.jpg	0	0	0	110.020342742675	110.070296650469	0.0499539077936788
151462	50	152	0	0	cake	237	152	0	stimuli\cake\cake_11s.jpg	10	-1	0	0	cake_11s.jpg	0	0	0	110.120342962102	110.170393418506	0.0500504564042785
151563	50	153	0	0	buggy	213	153	0	stimuli\buggy\buggy_03s.jpg	2	-1	0	0	buggy_03s.jpg	0	0	0	110.220476789204	110.270256129312	0.0497793401082163
151662	50	154	0	0	rim	1312	154	0	stimuli\rim\rim_09s.jpg	8	-1	0	0	rim_09s.jpg	0	0	0	110.320279522843	110.370180036334	0.0499005134915933
151762	50	155	0	0	chalice	301	155	0	stimuli\chalice\chalice_05s.jpg	4	-1	0	0	chalice_05s.jpg	0	0	0	110.420363612779	110.470470633009	0.0501070202299161
151863	50	156	0	0	eggbeater	548	156	0	stimuli\eggbeater\eggbeater_07s.jpg	6	-1	0	0	eggbeater_07s.jpg	0	0	0	110.520451359858	110.570401122888	0.049949763029872
151962	50	157	0	0	hookah	795	157	0	stimuli\hookah\hookah_12s.jpg	11	-1	0	0	hookah_12s.jpg	0	0	0	110.620349910678	110.670423041374	0.0500731306965463
152062	50	158	0	0	ironing_board	833	158	0	stimuli\ironing_board\ironing_board_01b.jpg	0	-1	0	0	ironing_board_01b.jpg	0	0	0	110.720372072974	110.770292578847	0.0499205058731604
152162	50	159	0	0	baseball_bat	79	159	0	stimuli\baseball_bat\baseball_bat_06s.jpg	5	-1	0	0	baseball_bat_06s.jpg	0	0	0	110.820420322896	110.870335708772	0.0499153858763748
152262	50	160	0	0	ink	829	160	0	stimuli\ink\ink_02s.jpg	1	-1	0	0	ink_02s.jpg	0	0	0	110.92042785661	110.970388103458	0.0499602468480589
152362	50	161	0	0	wick	1815	161	0	stimuli\wick\wick_03s.jpg	2	-1	0	0	wick_03s.jpg	0	0	0	111.020423687471	111.070416848612	0.0499931611411739
152462	50	162	0	0	sombrero	1495	162	0	stimuli\sombrero\sombrero_10s.jpg	9	-1	0	0	sombrero_10s.jpg	0	0	0	111.120432927855	111.170352214678	0.049919286822842
152562	50	163	0	0	maggot	955	163	0	stimuli\maggot\maggot_04s.jpg	3	-1	0	0	maggot_04s.jpg	0	0	0	111.220413398703	111.270318544572	0.0499051458682516
152662	50	164	0	0	walnut	1778	164	0	stimuli\walnut\walnut_10s.jpg	9	-1	0	0	walnut_10s.jpg	0	0	0	111.320346814296	111.370359724016	0.0500129097199533
152763	50	165	0	0	dumpling	532	165	0	stimuli\dumpling\dumpling_07s.jpg	6	-1	0	0	dumpling_07s.jpg	0	0	0	111.420551589988	111.470359699633	0.0498081096448004
152863	50	166	0	0	toy	1694	166	0	stimuli\toy\toy_04s.jpg	3	-1	0	0	toy_04s.jpg	0	0	0	111.520488418922	111.570380886689	0.0498924677667674
152962	50	167	0	0	berry	121	167	0	stimuli\berry\berry_02s.jpg	1	-1	0	0	berry_02s.jpg	0	0	0	111.620407693554	111.670344047059	0.0499363535054727
153063	50	168	0	0	bamboo	62	168	0	stimuli\bamboo\bamboo_01b.jpg	0	-1	0	0	bamboo_01b.jpg	0	0	0	111.720332088196	111.770272830268	0.0499407420720672
153162	50	169	0	0	van	1752	169	0	stimuli\van\van_06s.jpg	5	-1	0	0	van_06s.jpg	0	0	0	111.820367172397	111.870357407824	0.0499902354276855
153263	50	170	0	0	copier	405	170	0	stimuli\copier\copier_02s.jpg	1	-1	0	0	copier_02s.jpg	0	0	0	111.920416885179	111.970341779626	0.049924894447031
153362	50	171	0	0	kitten	875	171	0	stimuli\kitten\kitten_11s.jpg	10	-1	0	0	kitten_11s.jpg	0	0	0	112.020353226493	112.070347850487	0.0499946239942801
153463	50	172	0	0	window	1818	172	0	stimuli\window\window_04s.jpg	3	-1	0	0	window_04s.jpg	0	0	0	112.120466085958	112.170388786122	0.0499227001637337
153562	50	173	0	0	drum	522	173	0	stimuli\drum\drum_11n.jpg	10	-1	0	0	drum_11n.jpg	0	0	0	112.220307341522	112.270284167418	0.0499768258960103
153662	50	174	0	0	mousetrap	1029	174	0	stimuli\mousetrap\mousetrap_04n.jpg	3	-1	0	0	mousetrap_04n.jpg	0	0	0	112.320369000969	112.370387274503	0.0500182735340786
153762	50	175	0	0	holster	786	175	0	stimuli\holster\holster_11s.jpg	10	-1	0	0	holster_11s.jpg	0	0	0	112.420379948024	112.470346046299	0.0499660982750356
153863	50	176	0	0	buffet	211	176	0	stimuli\buffet\buffet_05s.jpg	4	-1	0	0	buffet_05s.jpg	0	0	0	112.520441119857	112.570317983809	0.0498768639517948
153962	50	177	0	0	tiramisu	1663	177	0	stimuli\tiramisu\tiramisu_08s.jpg	7	-1	0	0	tiramisu_08s.jpg	0	0	0	112.620406718321	112.670537875703	0.050131157382566
154063	50	178	0	0	croissant	442	178	0	stimuli\croissant\croissant_06s.jpg	5	-1	0	0	croissant_06s.jpg	0	0	0	112.720508118735	112.770401805552	0.0498936868170858
154163	50	179	0	0	trough	1718	179	0	stimuli\trough\trough_11s.jpg	10	-1	0	0	trough_11s.jpg	0	0	0	112.820464452438	112.870511739311	0.0500472868734505
154262	50	180	0	0	jigsaw_puzzle	851	180	0	stimuli\jigsaw_puzzle\jigsaw_puzzle_04s.jpg	3	-1	0	0	jigsaw_puzzle_04s.jpg	0	0	0	112.920348374675	112.970390785362	0.0500424106867285
154362	50	181	0	0	record	1295	181	0	stimuli\record\record_12s.jpg	11	-1	0	0	record_12s.jpg	0	0	0	113.02039174841	113.07037028097	0.0499785325591802
154463	50	182	0	0	bungee	221	182	0	stimuli\bungee\bungee_09s.jpg	8	-1	0	0	bungee_09s.jpg	0	0	0	113.120482665014	113.170481189962	0.0499985249480233
154562	50	183	0	0	fig	581	183	0	stimuli\fig\fig_01b.jpg	0	-1	0	0	fig_01b.jpg	0	0	0	113.220426564418	113.270531634174	0.0501050697566825
154663	50	184	0	0	trampoline	1701	184	0	stimuli\trampoline\trampoline_04s.jpg	3	-1	0	0	trampoline_04s.jpg	0	0	0	113.320438730523	113.370314375425	0.0498756449014763
154762	50	185	0	0	lion	933	185	0	stimuli\lion\lion_02s.jpg	1	-1	0	0	lion_02s.jpg	0	0	0	113.420425540418	113.470378716782	0.0499531763634877
154862	50	186	0	0	ladybug	888	186	0	stimuli\ladybug\ladybug_12s.jpg	11	-1	0	0	ladybug_12s.jpg	0	0	0	113.520415032224	113.570405511462	0.0499904792377492
154962	50	187	0	0	caviar	289	187	0	stimuli\caviar\caviar_03s.jpg	2	-1	0	0	caviar_03s.jpg	0	0	0	113.620382337358	113.670431087092	0.0500487497338327
155063	50	188	0	0	ice_cream	818	188	0	stimuli\ice_cream\ice_cream_10s.jpg	9	-1	0	0	ice_cream_10s.jpg	0	0	0	113.720446922525	113.770362064592	0.0499151420663111
155162	50	189	0	0	dice	486	189	0	stimuli\dice\dice_11s.jpg	10	-1	0	1	dice_11s.jpg	0	0	0	113.82042422385	113.870433232616	0.0500090087662102
155263	50	190	0	0	candy_cane	257	190	0	stimuli\candy_cane\candy_cane_11s.jpg	10	-1	0	0	candy_cane_11s.jpg	0	0	0	113.920474911865	113.970394198695	0.0499192868301179
155363	50	191	0	0	car_door	268	191	0	stimuli\car_door\car_door_06s.jpg	5	-1	0	0	car_door_06s.jpg	0	0	0	114.020429782708	114.070397831456	0.0499680487482692
155462	50	192	0	0	incense	826	192	0	stimuli\incense\incense_03s.jpg	2	-1	0	0	incense_03s.jpg	1	0.300307858400629	1	114.120390748787	114.170400732793	0.0500099840064649
155562	50	193	0	0	ladder	886	193	0	stimuli\ladder\ladder_10s.jpg	9	-1	0	0	ladder_10s.jpg	0	0	0	114.220421444421	114.270410460798	0.0499890163773671
155663	50	194	0	0	mouse1	1026	194	0	stimuli\mouse1\mouse1_01b.jpg	0	-1	0	0	mouse1_01b.jpg	0	0	0	114.32043531719	114.370408973555	0.0499736563651823
155762	50	195	0	0	cup	460	195	0	stimuli\cup\cup_10s.jpg	9	-1	0	0	cup_10s.jpg	0	0	0	114.420427490899	114.470436499665	0.0500090087662102
155863	50	196	0	0	hula_hoop	810	196	0	stimuli\hula_hoop\hula_hoop_04s.jpg	3	-1	0	0	hula_hoop_04s.jpg	0	0	0	114.520446727474	114.570431599088	0.0499848716135602
155963	50	197	0	0	coffee_bean	378	197	0	stimuli\coffee_bean\coffee_bean_07s.jpg	6	-1	0	0	coffee_bean_07s.jpg	0	0	0	114.62046791453	114.670436938519	0.049969023988524
156063	50	198	0	0	hammock	742	198	0	stimuli\hammock\hammock_06s.jpg	5	-1	0	0	hammock_06s.jpg	0	0	0	114.720425223466	114.770427649375	0.0500024259090424
156163	50	199	0	0	toothpick	1681	199	0	stimuli\toothpick\toothpick_09s.jpg	8	-1	0	0	toothpick_09s.jpg	0	0	0	114.820479081012	114.870432257376	0.0499531763634877
156263	50	200	0	0	money	1015	200	0	stimuli\money\money_12s.jpg	11	-1	0	0	money_12s.jpg	0	0	0	114.920467353768	114.97040809584	0.0499407420720672
156362	50	201	0	0	clipper1	356	201	0	stimuli\clipper1\clipper1_09s.jpg	8	-1	0	0	clipper1_09s.jpg	0	0	0	115.020364929354	115.070382227641	0.0500172982865479
156462	50	202	0	0	jack	835	202	0	stimuli\jack\jack_05s.jpg	4	-1	0	0	jack_05s.jpg	0	0	0	115.120405864982	115.170400976604	0.0499951116216835
156562	50	203	0	0	coyote	427	203	0	stimuli\coyote\coyote_07s.jpg	6	-1	0	0	coyote_07s.jpg	0	0	0	115.220431928232	115.270430696997	0.0499987687653629
156663	50	204	0	0	salad	1348	204	0	stimuli\salad\salad_01b.jpg	0	-1	0	0	salad_01b.jpg	0	0	0	115.32050724102	115.37039580784	0.0498885668203002
156762	50	205	0	0	kimono	873	205	0	stimuli\kimono\kimono_10s.jpg	9	-1	0	0	kimono_10s.jpg	0	0	0	115.42040798613	115.470364819637	0.0499568335071672
156863	50	206	0	0	awning	44	206	0	stimuli\awning\awning_07s.jpg	6	-1	0	0	awning_07s.jpg	0	0	0	115.520494026539	115.570454029577	0.0499600030379952
156963	50	207	0	0	microscope	999	207	0	stimuli\microscope\microscope_06s.jpg	5	-1	0	0	microscope_06s.jpg	0	0	0	115.620461331673	115.670408412792	0.0499470811191713
157062	50	208	0	0	wand	1780	208	0	stimuli\wand\wand_01s.jpg	0	-1	0	0	wand_01s.jpg	0	0	0	115.720415958705	115.770433988422	0.050018029716739
157163	50	209	0	0	piggy_bank	1172	209	0	stimuli\piggy_bank\piggy_bank_07s.jpg	6	-1	0	0	piggy_bank_07s.jpg	0	0	0	115.82048810197	115.870408364033	0.0499202620630967
157262	50	210	0	0	fishnet_stockings	604	210	0	stimuli\fishnet_stockings\fishnet_stockings_08s.jpg	7	-1	0	0	fishnet_stockings_08s.jpg	0	0	0	115.920437121378	115.970358846302	0.0499217249234789
157362	50	211	0	0	candle	253	211	0	stimuli\candle\candle_09n.jpg	8	-1	0	0	candle_09n.jpg	0	0	0	116.020381752212	116.070383934311	0.0500021820989787
157462	50	212	0	0	bok_choy	156	212	0	stimuli\bok_choy\bok_choy_06s.jpg	5	-1	0	0	bok_choy_06s.jpg	0	0	0	116.120420005944	116.170342949918	0.0499229439737974
157562	50	213	0	0	stapler	1539	213	0	stimuli\stapler\stapler_04s.jpg	3	-1	0	0	stapler_04s.jpg	0	0	0	116.220389749171	116.270329759813	0.0499400106418761
157662	50	214	0	0	tack	1611	214	0	stimuli\tack\tack_07s.jpg	6	-1	0	1	tack_07s.jpg	0	0	0	116.320423858131	116.370416775462	0.0499929173311102
157762	50	215	0	0	foam	624	215	0	stimuli\foam\foam_09s.jpg	8	-1	0	0	foam_09s.jpg	0	0	0	116.420387749931	116.470375303448	0.0499875535169849
157862	50	216	0	0	speaker	1509	216	0	stimuli\speaker\speaker_08s.jpg	7	-1	0	0	speaker_08s.jpg	0	0	0	116.520446727474	116.570480604823	0.0500338773490512
157963	50	217	0	0	mosquito_net	1021	217	0	stimuli\mosquito_net\mosquito_net_06s.jpg	5	-1	0	0	mosquito_net_06s.jpg	0	0	0	116.620608592675	116.67044815376	0.0498395610848092
158063	50	218	0	0	diving_board	494	218	0	stimuli\diving_board\diving_board_11s.jpg	10	-1	0	0	diving_board_11s.jpg	1	0.39402802981931	1	116.720496415874	116.770540045603	0.0500436297297711
158163	50	219	0	0	paddle	1094	219	0	stimuli\paddle\paddle_01s.jpg	0	-1	0	0	paddle_01s.jpg	0	0	0	116.820552223893	116.870566108853	0.0500138849602081
158263	50	220	0	0	rock	1319	220	0	stimuli\rock\rock_08s.jpg	7	-1	0	0	rock_08s.jpg	0	0	0	116.920567071902	116.970458320626	0.0498912487237249
158363	50	221	0	0	manhole	967	221	0	stimuli\manhole\manhole_10s.jpg	9	-1	0	0	manhole_10s.jpg	0	0	0	117.020561196092	117.070460002913	0.0498988068211474
158463	50	222	0	0	crab	428	222	0	stimuli\crab\crab_10s.jpg	9	-1	0	0	crab_10s.jpg	0	0	0	117.120547518367	117.170477045205	0.0499295268382411
158563	50	223	0	0	pocketknife	1207	223	0	stimuli\pocketknife\pocketknife_09s.jpg	8	-1	0	0	pocketknife_09s.jpg	0	0	0	117.220497269213	117.270468731294	0.049971462081885
158663	50	224	0	0	lawnmower	905	224	0	stimuli\lawnmower\lawnmower_04n.jpg	3	-1	0	0	lawnmower_04n.jpg	0	0	0	117.320510898164	117.370437986901	0.0499270887376042
158763	50	225	0	0	toothbrush	1679	225	0	stimuli\toothbrush\toothbrush_07s.jpg	6	-1	0	0	toothbrush_07s.jpg	0	0	0	117.420525989983	117.470516225403	0.0499902354204096
158863	50	226	0	0	cardigan	273	226	0	stimuli\cardigan\cardigan_07s.jpg	6	-1	0	0	cardigan_07s.jpg	0	0	0	117.520688830424	117.570694913469	0.0500060830454458
158963	50	227	0	0	mint	1004	227	0	stimuli\mint\mint_10s.jpg	9	-1	0	0	mint_10s.jpg	0	0	0	117.620604447911	117.670593464289	0.0499890163773671
159063	50	228	0	0	pear	1133	228	0	stimuli\pear\pear_05s.jpg	4	-1	0	0	pear_05s.jpg	0	0	0	117.72055444256	117.770487382732	0.0499329401718569
159163	50	229	0	0	bongo	162	229	0	stimuli\bongo\bongo_04s.jpg	3	-1	0	0	bongo_04s.jpg	0	0	0	117.820570997239	117.870522466932	0.0499514696930419
159263	50	230	0	0	stove1	1563	230	0	stimuli\stove1\stove1_09s.jpg	8	-1	0	0	stove1_09s.jpg	0	0	0	117.920730180529	117.970460271099	0.0497300905699376
159363	50	231	0	0	tomato	1672	231	0	stimuli\tomato\tomato_01b.jpg	0	-1	0	0	tomato_01b.jpg	0	0	0	118.020561927515	118.070494380067	0.0499324525517295
159463	50	232	0	0	tuxedo	1738	232	0	stimuli\tuxedo\tuxedo_12s.jpg	11	-1	0	0	tuxedo_12s.jpg	0	0	0	118.120529476459	118.170434378517	0.0499049020581879
159563	50	233	0	0	bumper	219	233	0	stimuli\bumper\bumper_05s.jpg	4	-1	0	0	bumper_05s.jpg	0	0	0	118.220571387334	118.270550163703	0.0499787763692439
159663	50	234	0	0	snowman	1482	234	0	stimuli\snowman\snowman_02s.jpg	1	-1	0	0	snowman_02s.jpg	0	0	0	118.320487492441	118.370514299313	0.050026806871756
159763	50	235	0	0	sandal	1352	235	0	stimuli\sandal\sandal_09s.jpg	8	-1	0	0	sandal_09s.jpg	0	0	0	118.420556953803	118.470539143513	0.0499821897101356
159863	50	236	0	0	french_fries	641	236	0	stimuli\french_fries\french_fries_08s.jpg	7	-1	0	0	french_fries_08s.jpg	0	0	0	118.520524258936	118.57054935913	0.0500251001940342
159962	50	237	0	0	belt_buckle	119	237	0	stimuli\belt_buckle\belt_buckle_08s.jpg	7	-1	0	0	belt_buckle_08s.jpg	0	0	0	118.620424272609	118.670499597589	0.0500753249798436
160063	50	238	0	0	loom	946	238	0	stimuli\loom\loom_10s.jpg	9	-1	0	0	loom_10s.jpg	0	0	0	118.72055444256	118.770527611312	0.0499731687523308
160163	50	239	0	0	bonsai	164	239	0	stimuli\bonsai\bonsai_03s.jpg	2	-1	0	0	bonsai_03s.jpg	0	0	0	118.820515896266	118.870491746922	0.0499758506557555
160262	50	240	0	0	mongoose	1016	240	0	stimuli\mongoose\mongoose_12s.jpg	11	-1	0	0	mongoose_12s.jpg	0	0	0	118.920447117569	118.970411021561	0.0499639039917383
160362	50	241	0	0	wagon	1772	241	0	stimuli\wagon\wagon_03s.jpg	2	-1	0	0	wagon_03s.jpg	0	0	0	119.020446605573	119.070446593381	0.0499999878084054
160463	50	242	0	0	steering_wheel	1546	242	0	stimuli\steering_wheel\steering_wheel_11s.jpg	10	-1	0	0	steering_wheel_11s.jpg	0	0	0	119.120518992648	119.170475582345	0.0499565896971035
160563	50	243	0	0	beaver	107	243	0	stimuli\beaver\beaver_09s.jpg	8	-1	0	0	beaver_09s.jpg	0	0	0	119.22051360445	119.270440205568	0.0499266011174768
160663	50	244	0	0	napkin_ring	1051	244	0	stimuli\napkin_ring\napkin_ring_01b.jpg	0	-1	0	0	napkin_ring_01b.jpg	0	0	0	119.320504802927	119.370438718332	0.0499339154048357
160762	50	245	0	0	goblet	685	245	0	stimuli\goblet\goblet_04s.jpg	3	-1	0	0	goblet_04s.jpg	0	0	0	119.42043797471	119.470590831152	0.050152856441855
160863	50	246	0	0	outlet	1088	246	0	stimuli\outlet\outlet_10s.jpg	9	-1	0	0	outlet_10s.jpg	0	0	0	119.520634704691	119.570577153427	0.0499424487352371
160963	50	247	0	0	clasp	351	247	0	stimuli\clasp\clasp_05s.jpg	4	-1	0	0	clasp_05s.jpg	0	0	0	119.620502535494	119.670477654727	0.0499751192328404
161063	50	248	0	0	brownie	204	248	0	stimuli\brownie\brownie_05s.jpg	4	-1	0	0	brownie_05s.jpg	0	0	0	119.720533474938	119.770512251307	0.0499787763692439
161163	50	249	0	0	wrist	1842	249	0	stimuli\wrist\wrist_09s.jpg	8	-1	0	0	wrist_09s.jpg	0	0	0	119.820472985768	119.870493697395	0.0500207116274396
161263	50	250	0	0	handcuff	746	250	0	stimuli\handcuff\handcuff_08s.jpg	7	-1	0	0	handcuff_08s.jpg	0	0	0	119.920468085198	119.970448812048	0.0499807268497534
161363	50	251	0	0	icicle	824	251	0	stimuli\icicle\icicle_08s.jpg	7	-1	0	0	icicle_08s.jpg	0	0	0	120.020545836087	120.070517298169	0.049971462081885
161463	50	252	0	0	water_heater	1791	252	0	stimuli\water_heater\water_heater_08s.jpg	7	-1	0	0	water_heater_08s.jpg	0	0	0	120.12054093551	120.170537022364	0.0499960868546623
161563	50	253	0	0	hot-air_balloon	801	253	0	stimuli\hot-air_balloon\hot-air_balloon_03s.jpg	2	-1	0	0	hot-air_balloon_03s.jpg	0	0	0	120.220574313047	120.270570643712	0.049996330664726
161663	50	254	0	0	birthday_cake	132	254	0	stimuli\birthday_cake\birthday_cake_05s.jpg	4	-1	0	0	birthday_cake_05s.jpg	0	0	0	120.320597450576	120.370598169815	0.0500007192385965
161763	50	255	0	0	cuckoo_clock	456	255	0	stimuli\cuckoo_clock\cuckoo_clock_09s.jpg	8	-1	0	0	cuckoo_clock_09s.jpg	0	0	0	120.4205974262	120.470535486369	0.0499380601686426
161863	50	256	0	0	combination_lock	390	256	0	stimuli\combination_lock\combination_lock_05s.jpg	4	-1	0	0	combination_lock_05s.jpg	0	0	0	120.520556929419	120.570475728629	0.0499187992099905
161963	50	257	0	0	vial	1760	257	0	stimuli\vial\vial_08s.jpg	7	-1	0	0	vial_08s.jpg	0	0	0	120.620527891697	120.670639300501	0.0501114088037866
162063	50	258	0	0	cracker	429	258	0	stimuli\cracker\cracker_01b.jpg	0	-1	0	0	cracker_01b.jpg	0	0	0	120.720792644555	120.770780441882	0.0499877973270486
162163	50	259	0	0	sloth	1471	259	0	stimuli\sloth\sloth_02s.jpg	1	-1	0	0	sloth_02s.jpg	0	0	0	120.82077116493	120.870662901267	0.0498917363365763
162263	50	260	0	0	waffle	1770	260	0	stimuli\waffle\waffle_12s.jpg	11	-1	0	0	waffle_12s.jpg	0	0	0	120.920771384357	120.97059753591	0.049826151553134
162363	50	261	0	0	wind_chimes	1817	261	0	stimuli\wind_chimes\wind_chimes_10s.jpg	9	-1	0	0	wind_chimes_10s.jpg	0	0	0	121.020749417112	121.070620673447	0.0498712563348818
162463	50	262	0	0	aardvark	0	262	0	stimuli\aardvark\aardvark_08s.jpg	7	-1	0	0	aardvark_08s.jpg	0	0	0	121.120656257459	121.170655026217	0.049998768758087
162563	50	263	0	0	crystal1	453	263	0	stimuli\crystal1\crystal1_09s.jpg	8	-1	0	0	crystal1_09s.jpg	0	0	0	121.220620636872	121.270774468547	0.0501538316748338
162663	50	264	0	0	go-kart	682	264	0	stimuli\go-kart\go-kart_11s.jpg	10	-1	0	0	go-kart_11s.jpg	0	0	0	121.320660841076	121.370637179352	0.0499763382758829
162763	50	265	0	0	hubcap	809	265	0	stimuli\hubcap\hubcap_09s.jpg	8	-1	0	0	hubcap_09s.jpg	0	0	0	121.420665936697	121.470565231139	0.0498992944412748
162863	50	266	0	0	projector	1242	266	0	stimuli\projector\projector_01b.jpg	0	-1	0	0	projector_01b.jpg	0	0	0	121.520574239905	121.570492795305	0.0499185553999268
162963	50	267	0	0	rag	1276	267	0	stimuli\rag\rag_09s.jpg	8	-1	0	0	rag_09s.jpg	0	0	0	121.62058396791	121.670516908074	0.0499329401645809
163063	50	268	0	0	cornucopia	416	268	0	stimuli\cornucopia\cornucopia_11s.jpg	10	-1	0	0	cornucopia_11s.jpg	0	0	0	121.720576385429	121.770559794182	0.0499834087531781
163163	50	269	0	0	beer	113	269	0	stimuli\beer\beer_01s.jpg	0	-1	0	0	beer_01s.jpg	0	0	0	121.820584894384	121.870570009807	0.0499851154236239
163263	50	270	0	0	eggshell	551	270	0	stimuli\eggshell\eggshell_08s.jpg	7	-1	0	0	eggshell_08s.jpg	0	0	0	121.92058535762	121.970575593048	0.0499902354276855
163363	50	271	0	0	rifle	1311	271	0	stimuli\rifle\rifle_05s.jpg	4	-1	0	0	rifle_05s.jpg	0	0	0	122.020550224654	122.070492917206	0.0499426925525768
163463	50	272	0	0	vegetable	1754	272	0	stimuli\vegetable\vegetable_05s.jpg	4	-1	0	0	vegetable_05s.jpg	0	0	0	122.120512897403	122.170577494762	0.0500645973588689
163563	50	273	0	0	hood	791	273	0	stimuli\hood\hood_01b.jpg	0	-1	0	0	hood_01b.jpg	0	0	0	122.220606495917	122.270644518023	0.0500380221055821
163663	50	274	0	0	raisin	1280	274	0	stimuli\raisin\raisin_10s.jpg	9	-1	0	0	raisin_10s.jpg	0	0	0	122.320724475387	122.370602802199	0.049878326812177
163763	50	275	0	0	belt	118	275	0	stimuli\belt\belt_12s.jpg	11	-1	0	0	belt_12s.jpg	0	0	0	122.420524039502	122.470503059689	0.0499790201865835
163863	50	276	0	0	train	1698	276	0	stimuli\train\train_02s.jpg	1	-1	0	0	train_02s.jpg	0	0	0	122.52055790466	122.570596658195	0.0500387535357731
163963	50	277	0	0	sauerkraut	1364	277	0	stimuli\sauerkraut\sauerkraut_06s.jpg	5	-1	0	0	sauerkraut_06s.jpg	0	0	0	122.620591038387	122.670509837597	0.0499187992099905
164063	50	278	0	0	paint	1096	278	0	stimuli\paint\paint_11s.jpg	10	-1	0	0	paint_11s.jpg	0	0	0	122.720604423535	122.770545165607	0.0499407420720672
164163	50	279	0	0	shelf	1416	279	0	stimuli\shelf\shelf_05s.jpg	4	-1	0	0	shelf_05s.jpg	0	0	0	122.820596841055	122.870582687909	0.049985846853815
164263	50	280	0	0	wrapping_paper	1838	280	0	stimuli\wrapping_paper\wrapping_paper_04s.jpg	3	-1	0	0	wrapping_paper_04s.jpg	0	0	0	122.920571460476	122.970591684483	0.0500202240073122
164363	50	281	0	0	cougar	423	281	0	stimuli\cougar\cougar_12s.jpg	11	-1	0	0	cougar_12s.jpg	0	0	0	123.020614346584	123.070640665836	0.0500263192516286
164463	50	282	0	0	mouth	1031	282	0	stimuli\mouth\mouth_03s.jpg	2	-1	0	0	mouth_03s.jpg	0	0	0	123.120608226964	123.170671849082	0.0500636221186141
164563	50	283	0	0	ratchet	1286	283	0	stimuli\ratchet\ratchet_06s.jpg	5	-1	0	0	ratchet_06s.jpg	0	0	0	123.220621368302	123.270602582772	0.0499812144698808
164663	50	284	0	0	uniform	1747	284	0	stimuli\uniform\uniform_04s.jpg	3	-1	0	0	uniform_04s.jpg	0	0	0	123.320686197279	123.370665705079	0.0499795077994349
164763	50	285	0	0	sandwich	1357	285	0	stimuli\sandwich\sandwich_01b.jpg	0	-1	0	0	sandwich_01b.jpg	0	0	0	123.420718599577	123.470631059732	0.0499124601556105
164863	50	286	0	0	tricycle	1711	286	0	stimuli\tricycle\tricycle_11s.jpg	10	-1	0	0	tricycle_11s.jpg	0	0	0	123.520594719914	123.570542288653	0.0499475687392987
164963	50	287	0	0	snowplow	1484	287	0	stimuli\snowplow\snowplow_02s.jpg	1	-1	0	0	snowplow_02s.jpg	0	0	0	123.620668082222	123.670585174768	0.0499170925468206
165063	50	288	0	0	spout	1520	288	0	stimuli\spout\spout_07s.jpg	6	-1	0	0	spout_07s.jpg	0	0	0	123.720734861679	123.770598316099	0.0498634544201195
165163	50	289	0	0	trailer	1697	289	0	stimuli\trailer\trailer_01b.jpg	0	-1	0	0	trailer_01b.jpg	0	0	0	123.820619027727	123.870545872654	0.0499268449275405
165263	50	290	0	0	navel	1052	290	0	stimuli\navel\navel_10s.jpg	9	-1	0	0	navel_10s.jpg	0	0	0	123.920703849093	123.970655318793	0.0499514697003178
165363	50	291	0	0	baklava	57	291	0	stimuli\baklava\baklava_07s.jpg	6	-1	0	0	baklava_07s.jpg	0	0	0	124.020643359931	124.070715759197	0.0500723992663552
165463	50	292	0	0	purse	1259	292	0	stimuli\purse\purse_03s.jpg	2	-1	0	0	purse_03s.jpg	0	0	0	124.120645529838	124.170591879527	0.0499463496889803
165563	50	293	0	0	punch1	1254	293	0	stimuli\punch1\punch1_02s.jpg	1	-1	0	0	punch1_02s.jpg	0	0	0	124.220650869262	124.270629401828	0.0499785325664561
165663	50	294	0	0	nacho	1045	294	0	stimuli\nacho\nacho_09s.jpg	8	-1	0	0	nacho_09s.jpg	0	0	0	124.320605008674	124.370637910783	0.0500329021087964
165763	50	295	0	0	crowbar	447	295	0	stimuli\crowbar\crowbar_03s.jpg	2	-1	0	0	crowbar_03s.jpg	0	0	0	124.4205974262	124.47064129974	0.0500438735398347
165863	50	296	0	0	mandolin	965	296	0	stimuli\mandolin\mandolin_07s.jpg	6	-1	0	0	mandolin_07s.jpg	0	0	0	124.520642018979	124.570715637288	0.0500736183093977
165963	50	297	0	0	pistachio	1188	297	0	stimuli\pistachio\pistachio_11s.jpg	10	-1	0	0	pistachio_11s.jpg	0	0	0	124.620717575577	124.670738774825	0.050021199247567
166063	50	298	0	0	mattress	985	298	0	stimuli\mattress\mattress_02s.jpg	1	-1	0	0	mattress_02s.jpg	0	0	0	124.720657330217	124.770618064678	0.0499607344609103
166163	50	299	0	0	grille	715	299	0	stimuli\grille\grille_04s.jpg	3	-1	0	0	grille_04s.jpg	0	0	0	124.820662669648	124.870661926034	0.0499992563854903
166263	50	300	0	0	cash_machine	279	300	0	stimuli\cash_machine\cash_machine_01b.jpg	0	-1	0	0	cash_machine_01b.jpg	0	0	0	124.920661913842	124.970649711169	0.0499877973270486
166363	50	301	0	0	sleeping_bag	1462	301	0	stimuli\sleeping_bag\sleeping_bag_07s.jpg	6	-1	0	0	sleeping_bag_07s.jpg	0	0	0	125.020667740893	125.070682357276	0.0500146163831232
166463	50	302	0	0	totem_pole	1689	302	0	stimuli\totem_pole\totem_pole_12s.jpg	11	-1	0	0	totem_pole_12s.jpg	0	0	0	125.120716234625	125.170704519573	0.049988284947176
166563	50	303	0	0	stair	1532	303	0	stimuli\stair\stair_12s.jpg	11	-1	0	0	stair_12s.jpg	0	0	0	125.220775455979	125.270763740926	0.049988284947176
166663	50	304	0	0	sweeper	1594	304	0	stimuli\sweeper\sweeper_09s.jpg	8	-1	0	0	sweeper_09s.jpg	0	0	0	125.320752025873	125.370674726037	0.0499227001637337
166763	50	305	0	0	cleat	353	305	0	stimuli\cleat\cleat_08s.jpg	7	-1	0	0	cleat_08s.jpg	0	0	0	125.420718111956	125.470656903555	0.0499387915988336
166863	50	306	0	0	bunkbed	222	306	0	stimuli\bunkbed\bunkbed_07s.jpg	6	-1	0	0	bunkbed_07s.jpg	0	0	0	125.52068492947	125.570642250597	0.0499573211272946
166963	50	307	0	0	column	388	307	0	stimuli\column\column_10s.jpg	9	-1	0	0	column_10s.jpg	0	0	0	125.62064687079	125.670663437653	0.0500165668636328
167063	50	308	0	0	suitcase	1581	308	0	stimuli\suitcase\suitcase_05s.jpg	4	-1	0	0	suitcase_05s.jpg	0	0	0	125.720697314995	125.770748015202	0.0500507002070663
177680	50	309	0	0	bracelet2	188	0	1	stimuli\bracelet2\bracelet2_06s.jpg	5	-1	1	0	bracelet2_06s.jpg	0	0	0	136.337624626329	136.387613398896	0.0499887725673034
177780	50	310	0	0	headlight	765	1	1	stimuli\headlight\headlight_06s.jpg	5	-1	1	0	headlight_06s.jpg	0	0	0	136.437664586723	136.487620688808	0.0499561020842521
177880	50	311	0	0	touchpad	1691	2	1	stimuli\touchpad\touchpad_09s.jpg	8	-1	1	0	touchpad_09s.jpg	0	0	0	136.537642131858	136.587629929192	0.0499877973343246
177980	50	312	0	0	filter	587	3	1	stimuli\filter\filter_12s.jpg	11	-1	1	0	filter_12s.jpg	0	0	0	136.637699646548	136.68760844956	0.049908803011931
178080	50	313	0	0	ruby	1338	4	1	stimuli\ruby\ruby_03s.jpg	2	-1	1	0	ruby_03s.jpg	0	0	0	136.737669145965	136.78779225763	0.050123111665016
178180	50	314	0	0	weasel	1797	5	1	stimuli\weasel\weasel_06s.jpg	5	-1	1	0	weasel_06s.jpg	0	0	0	136.837841738787	136.887792233247	0.0499504944600631
178280	50	315	0	0	breathalyzer	198	6	1	stimuli\breathalyzer\breathalyzer_12s.jpg	11	-1	1	0	breathalyzer_12s.jpg	0	0	0	136.937586445747	136.987552787825	0.0499663420778234
178380	50	316	0	0	chessboard	318	7	1	stimuli\chessboard\chessboard_11s.jpg	10	-1	1	0	chessboard_11s.jpg	0	0	0	137.03767589949	137.087825098781	0.0501491992908996
178480	50	317	0	0	barrette	77	8	1	stimuli\barrette\barrette_05s.jpg	4	-1	1	0	barrette_05s.jpg	0	0	0	137.137705863694	137.187816784877	0.0501109211836592
178580	50	318	0	0	coffee_pot	380	9	1	stimuli\coffee_pot\coffee_pot_11s.jpg	10	-1	1	0	coffee_pot_11s.jpg	0	0	0	137.237702182167	137.287679739493	0.0499775573262013
178680	50	319	0	0	vent	1758	10	1	stimuli\vent\vent_02s.jpg	1	-1	1	0	vent_02s.jpg	0	0	0	137.337686310158	137.387653383674	0.0499670735152904
178780	50	320	0	0	shaving_cream	1410	11	1	stimuli\shaving_cream\shaving_cream_09s.jpg	8	-1	1	0	shaving_cream_09s.jpg	0	0	0	137.437650933389	137.487661892628	0.0500109592394438
178880	50	321	0	0	sheep	1414	12	1	stimuli\sheep\sheep_04n.jpg	3	-1	1	0	sheep_04n.jpg	0	0	0	137.53790764053	137.587781091148	0.049873450618179
178980	50	322	0	0	calculator	240	13	1	stimuli\calculator\calculator_08s.jpg	7	-1	1	0	calculator_08s.jpg	0	0	0	137.637687943687	137.687811299162	0.0501233554750797
179080	50	323	0	0	snail	1476	14	1	stimuli\snail\snail_12s.jpg	11	-1	1	0	snail_12s.jpg	0	0	0	137.737828353645	137.787842726219	0.0500143725730595
179180	50	324	0	0	daisy	470	15	1	stimuli\daisy\daisy_08s.jpg	7	-1	1	0	daisy_08s.jpg	0	0	0	137.837840763554	137.887826366597	0.0499856030437513
179280	50	325	0	0	grass	705	16	1	stimuli\grass\grass_02s.jpg	1	-1	1	0	grass_02s.jpg	0	0	0	137.937857562036	137.987707363121	0.0498498010856565
179380	50	326	0	0	sunglasses	1585	17	1	stimuli\sunglasses\sunglasses_12s.jpg	11	-1	1	0	sunglasses_12s.jpg	0	0	0	138.03783486336	138.087777312103	0.0499424487425131
179480	50	327	0	0	phone	1161	18	1	stimuli\phone\phone_05s.jpg	4	-1	1	0	phone_05s.jpg	0	0	0	138.137714640841	138.187816541067	0.0501019002258545
179580	50	328	0	0	lampshade	893	19	1	stimuli\lampshade\lampshade_03s.jpg	2	-1	1	0	lampshade_03s.jpg	0	0	0	138.237758258379	138.287741667133	0.0499834087531781
179680	50	329	0	0	bra	185	20	1	stimuli\bra\bra_02s.jpg	1	-1	1	0	bra_02s.jpg	0	0	0	138.337803094968	138.387741886567	0.0499387915988336
179780	50	330	0	0	cockatoo	372	21	1	stimuli\cockatoo\cockatoo_02s.jpg	1	-1	1	0	cockatoo_02s.jpg	0	0	0	138.437866217275	138.487841336508	0.0499751192328404
179880	50	331	0	0	boxing_gloves	183	22	1	stimuli\boxing_gloves\boxing_gloves_05s.jpg	4	-1	1	0	boxing_gloves_05s.jpg	0	0	0	138.537946650067	138.587676740637	0.0497300905699376
179980	50	332	0	0	lollipop	945	23	1	stimuli\lollipop\lollipop_01b.jpg	0	-1	1	0	lollipop_01b.jpg	0	0	0	138.637890793281	138.687805447727	0.0499146544461837
180080	50	333	0	0	bone	161	24	1	stimuli\bone\bone_08s.jpg	7	-1	1	0	bone_08s.jpg	0	0	0	138.737812993633	138.787908311002	0.0500953173686867
180180	50	334	0	0	bandage	66	25	1	stimuli\bandage\bandage_10s.jpg	9	-1	1	0	bandage_10s.jpg	0	0	0	138.837744946373	138.887868301848	0.0501233554750797
180280	50	335	0	0	pillbox	1175	26	1	stimuli\pillbox\pillbox_10s.jpg	9	-1	1	0	pillbox_10s.jpg	0	0	0	138.937920221106	138.987827073644	0.0499068525386974
180380	50	336	0	0	charger	308	27	1	stimuli\charger\charger_03s.jpg	2	-1	1	0	charger_03s.jpg	0	0	0	139.037663952819	139.087648580622	0.0499846278034966
180480	50	337	0	0	cheese	312	28	1	stimuli\cheese\cheese_07s.jpg	6	-1	1	0	cheese_07s.jpg	0	0	0	139.137728781796	139.187722430557	0.0499936487613013
180580	50	338	0	0	screwdriver	1391	29	1	stimuli\screwdriver\screwdriver_05s.jpg	4	-1	1	0	screwdriver_05s.jpg	0	0	0	139.237789709819	139.287733621415	0.0499439115956193
180680	50	339	0	0	snowsuit	1486	30	1	stimuli\snowsuit\snowsuit_03s.jpg	2	-1	1	0	snowsuit_03s.jpg	0	0	0	139.337746774945	139.387752614188	0.0500058392426581
180780	50	340	0	0	chicken2	323	31	1	stimuli\chicken2\chicken2_07s.jpg	6	-1	1	0	chicken2_07s.jpg	0	0	0	139.437734316278	139.48780183935	0.0500675230723573
180880	50	341	0	0	cot	420	32	1	stimuli\cot\cot_11s.jpg	10	-1	1	0	cot_11s.jpg	0	0	0	139.537701133784	139.602833896657	0.0651327628729632
180980	50	342	0	0	juicer1	855	33	1	stimuli\juicer1\juicer1_01s.jpg	0	-1	1	0	juicer1_01s.jpg	0	0	0	139.637708911316	139.687653554342	0.0499446430258104
181080	50	343	0	0	bat1	87	34	1	stimuli\bat1\bat1_09s.jpg	8	-1	1	0	bat1_09s.jpg	0	0	0	139.737734974558	139.78763597567	0.0499010011117207
181180	50	344	0	0	gumball	725	35	1	stimuli\gumball\gumball_01b.jpg	0	-1	1	0	gumball_01b.jpg	0	0	0	139.837730317799	139.887625711286	0.0498953934875317
181280	50	345	0	0	cactus	235	36	1	stimuli\cactus\cactus_07s.jpg	6	-1	1	0	cactus_07s.jpg	0	0	0	139.937705912453	139.987668109774	0.0499621973212925
181380	50	346	0	0	seahorse	1396	37	1	stimuli\seahorse\seahorse_07s.jpg	6	-1	1	0	seahorse_07s.jpg	0	0	0	140.037682969967	140.087700755881	0.0500177859139512
181480	50	347	0	0	iguana	825	38	1	stimuli\iguana\iguana_02s.jpg	1	-1	1	0	iguana_02s.jpg	0	0	0	140.137678800827	140.187886758235	0.0502079574071104
181580	50	348	0	0	jam	839	39	1	stimuli\jam\jam_02s.jpg	1	-1	1	0	jam_02s.jpg	0	0	0	140.237910883196	140.287802619539	0.0498917363438522
181680	50	349	0	0	wrench	1841	40	1	stimuli\wrench\wrench_01b.jpg	0	-1	1	0	wrench_01b.jpg	0	0	0	140.337682409205	140.387714823693	0.050032414488669
181780	50	350	0	0	videocassette	1761	41	1	stimuli\videocassette\videocassette_10n.jpg	9	-1	1	0	videocassette_10n.jpg	0	0	0	140.437740655325	140.487726502179	0.049985846853815
181880	50	351	0	0	pulpit	1251	42	1	stimuli\pulpit\pulpit_06s.jpg	5	-1	1	0	pulpit_06s.jpg	0	0	0	140.537745507136	140.587641388243	0.0498958811076591
181980	50	352	0	0	hoe	784	43	1	stimuli\hoe\hoe_03s.jpg	2	-1	1	0	hoe_03s.jpg	0	0	0	140.637749627516	140.687737668653	0.0499880411371123
182080	50	353	0	0	pom-pom	1218	44	1	stimuli\pom-pom\pom-pom_12s.jpg	11	-1	1	0	pom-pom_12s.jpg	0	0	0	140.737764231715	140.787720821412	0.0499565896971035
182180	50	354	0	0	confetti	396	45	1	stimuli\confetti\confetti_03s.jpg	2	-1	1	0	confetti_03s.jpg	0	0	0	140.837764694952	140.887736644654	0.0499719497020124
182280	50	355	0	0	gum	724	46	1	stimuli\gum\gum_12s.jpg	11	-1	1	1	gum_12s.jpg	0	0	0	140.93771347055	140.987713214556	0.0499997440056177
182380	50	356	0	0	lava	903	47	1	stimuli\lava\lava_06s.jpg	5	-1	1	0	lava_06s.jpg	0	0	0	141.037891670996	141.087728306367	0.0498366353713209
182480	50	357	0	0	headphones	766	48	1	stimuli\headphones\headphones_07s.jpg	6	-1	1	0	headphones_07s.jpg	1	0.243031616504595	1	141.137963326641	141.18788139442	0.0499180677797995
182580	50	358	0	0	tile	1660	49	1	stimuli\tile\tile_05s.jpg	4	-1	1	0	tile_05s.jpg	0	0	0	141.237858464126	141.287804570013	0.0499461058861925
182680	50	359	0	0	aquarium	34	50	1	stimuli\aquarium\aquarium_02s.jpg	1	-1	1	0	aquarium_02s.jpg	0	0	0	141.337841129265	141.387825757069	0.0499846278034966
182780	50	360	0	0	grapevine	704	51	1	stimuli\grapevine\grapevine_12s.jpg	11	-1	1	0	grapevine_12s.jpg	0	0	0	141.437687748636	141.487745031707	0.05005728307151
182880	50	361	0	0	computer	394	52	1	stimuli\computer\computer_10n.jpg	9	-1	1	0	computer_10n.jpg	0	0	0	141.53769698902	141.587791087346	0.0500940983256442
182980	50	362	0	0	tadpole	1614	53	1	stimuli\tadpole\tadpole_08s.jpg	7	-1	1	0	tadpole_08s.jpg	0	0	0	141.637927364725	141.687831779171	0.0499044144453364
183080	50	363	0	0	crayon	435	54	1	stimuli\crayon\crayon_06s.jpg	5	-1	1	0	crayon_06s.jpg	0	0	0	141.738015355615	141.78776105	0.0497456943849102
183180	50	364	0	0	hole	785	55	1	stimuli\hole\hole_11s.jpg	10	-1	1	0	hole_11s.jpg	0	0	0	141.837763475902	141.887768096094	0.0500046201923396
183280	50	365	0	0	jeans	842	56	1	stimuli\jeans\jeans_08s.jpg	7	-1	1	0	jeans_08s.jpg	0	0	0	141.9378085563	141.987783675533	0.0499751192328404
183380	50	366	0	0	beehive	112	57	1	stimuli\beehive\beehive_01b.jpg	0	-1	1	0	beehive_01b.jpg	0	0	0	142.038033080571	142.087922135011	0.0498890544404276
183480	50	367	0	0	polisher	1215	58	1	stimuli\polisher\polisher_04s.jpg	3	-1	1	0	polisher_04s.jpg	0	0	0	142.137941627589	142.187937714443	0.0499960868546623
183580	50	368	0	0	crate	433	59	1	stimuli\crate\crate_11s.jpg	10	-1	1	0	crate_11s.jpg	0	0	0	142.23798890227	142.287867229083	0.049878326812177
183680	50	369	0	0	jelly_bean	844	60	1	stimuli\jelly_bean\jelly_bean_08s.jpg	7	-1	1	0	jelly_bean_08s.jpg	0	0	0	142.337949380737	142.387950587588	0.0500012068514479
183780	50	370	0	0	saxophone	1368	61	1	stimuli\saxophone\saxophone_08s.jpg	7	-1	1	0	saxophone_08s.jpg	0	0	0	142.437908883956	142.487936909871	0.0500280259147985
183880	50	371	0	0	peanut_butter	1132	62	1	stimuli\peanut_butter\peanut_butter_01s.jpg	0	-1	1	0	peanut_butter_01s.jpg	0	0	0	142.53803466534	142.5879295712	0.0498949058601283
183980	50	372	0	0	gramophone	699	63	1	stimuli\gramophone\gramophone_04s.jpg	3	-1	1	0	gramophone_04s.jpg	0	0	0	142.637972957127	142.687853965843	0.0498810087156016
184080	50	373	0	0	bathmat	89	64	1	stimuli\bathmat\bathmat_06s.jpg	5	-1	1	0	bathmat_06s.jpg	0	0	0	142.738008041328	142.788009004376	0.0500009630486602
184180	50	374	0	0	net	1057	65	1	stimuli\net\net_12s.jpg	11	-1	1	0	net_12s.jpg	0	0	0	142.837902935004	142.887828073261	0.0499251382570947
184280	50	375	0	0	vacuum	1750	66	1	stimuli\vacuum\vacuum_09s.jpg	8	-1	1	0	vacuum_09s.jpg	0	0	0	142.938010674472	142.987948490831	0.0499378163585789
184380	50	376	0	0	grill	714	67	1	stimuli\grill\grill_05s.jpg	4	-1	1	0	grill_05s.jpg	0	0	0	143.037949210069	143.087957487405	0.0500082773360191
184480	50	377	0	0	avocado	43	68	1	stimuli\avocado\avocado_10s.jpg	9	-1	1	0	avocado_10s.jpg	0	0	0	143.137946259973	143.187826293448	0.0498800334753469
184580	50	378	0	0	rose	1334	69	1	stimuli\rose\rose_05s.jpg	4	-1	1	0	rose_05s.jpg	0	0	0	143.237741923134	143.287802619539	0.0500606964051258
184680	50	379	0	0	chair	300	70	1	stimuli\chair\chair_04s.jpg	3	-1	1	0	chair_04s.jpg	0	0	0	143.337755795903	143.387773094197	0.0500172982938238
184780	50	380	0	0	yoke	1849	71	1	stimuli\yoke\yoke_10s.jpg	9	-1	1	0	yoke_10s.jpg	0	0	0	143.437867923945	143.48776892505	0.0499010011044447
184880	50	381	0	0	detonator	482	72	1	stimuli\detonator\detonator_04s.jpg	3	-1	1	0	detonator_04s.jpg	0	0	0	143.537786710964	143.587801814967	0.0500151040032506
184980	50	382	0	0	garter	659	73	1	stimuli\garter\garter_02s.jpg	1	-1	1	0	garter_02s.jpg	0	0	0	143.637845932317	143.687803497254	0.0499575649373583
185080	50	383	0	0	christmas_tree	341	74	1	stimuli\christmas_tree\christmas_tree_06s.jpg	5	-1	1	0	christmas_tree_06s.jpg	0	0	0	143.737797146016	143.787753979523	0.0499568335071672
185180	50	384	0	0	inhaler	828	75	1	stimuli\inhaler\inhaler_12s.jpg	11	-1	1	0	inhaler_12s.jpg	0	0	0	143.837844420697	143.887812957066	0.0499685363683966
185280	50	385	0	0	beetle	115	76	1	stimuli\beetle\beetle_07n.jpg	6	-1	1	0	beetle_07n.jpg	0	0	0	143.937826598216	143.987780018389	0.0499534201735514
185380	50	386	0	0	hearing_aid	770	77	1	stimuli\hearing_aid\hearing_aid_04s.jpg	3	-1	1	0	hearing_aid_04s.jpg	0	0	0	144.037846566222	144.087875323567	0.0500287573449896
185480	50	387	0	0	spear	1510	78	1	stimuli\spear\spear_07s.jpg	6	-1	1	0	spear_07s.jpg	0	0	0	144.137843372315	144.187818247738	0.0499748754227767
185580	50	388	0	0	umbrella	1743	79	1	stimuli\umbrella\umbrella_12s.jpg	11	-1	1	0	umbrella_12s.jpg	0	0	0	144.237829206977	144.287735084275	0.0499058772984426
185680	50	389	0	0	rhinoceros	1306	80	1	stimuli\rhinoceros\rhinoceros_11s.jpg	10	-1	1	0	rhinoceros_11s.jpg	0	0	0	144.337851613076	144.387781383717	0.0499297706410289
185780	50	390	0	0	lens	916	81	1	stimuli\lens\lens_04s.jpg	3	-1	1	0	lens_04s.jpg	0	0	0	144.437816236306	144.487859378416	0.0500431421096437
185880	50	391	0	0	snack	1475	82	1	stimuli\snack\snack_10s.jpg	9	-1	1	0	snack_10s.jpg	0	0	0	144.537928608159	144.587905677858	0.049977069698798
185980	50	392	0	0	bark	74	83	1	stimuli\bark\bark_12s.jpg	11	-1	1	0	bark_12s.jpg	0	0	0	144.637938092346	144.68786079251	0.0499227001637337
186080	50	393	0	0	cellphone	293	84	1	stimuli\cellphone\cellphone_09s.jpg	8	-1	1	0	cellphone_09s.jpg	0	0	0	144.737898327003	144.787908798622	0.0500104716193164
186180	50	394	0	0	swan	1591	85	1	stimuli\swan\swan_11s.jpg	10	-1	1	0	swan_11s.jpg	0	0	0	144.837971445508	144.887931692349	0.0499602468407829
186280	50	395	0	0	cigar	343	86	1	stimuli\cigar\cigar_04n.jpg	3	-1	1	0	cigar_04n.jpg	0	0	0	144.937954842069	144.987847066033	0.0498922239639796
186380	50	396	0	0	cooker	399	87	1	stimuli\cooker\cooker_10s.jpg	9	-1	1	0	cooker_10s.jpg	0	0	0	145.037921171963	145.087898973099	0.049977801136265
186480	50	397	0	0	saucer	1363	88	1	stimuli\saucer\saucer_02s.jpg	1	-1	1	0	saucer_02s.jpg	0	0	0	145.137904812334	145.187804106776	0.0498992944412748
186580	50	398	0	0	treadmill	1706	89	1	stimuli\treadmill\treadmill_11s.jpg	10	-1	1	0	treadmill_11s.jpg	0	0	0	145.237874067941	145.287862109086	0.0499880411443883
186680	50	399	0	0	fishhook	602	90	1	stimuli\fishhook\fishhook_02s.jpg	1	-1	1	0	fishhook_02s.jpg	0	0	0	145.337865266418	145.387840873263	0.0499756068456918
186780	50	400	0	0	puppet	1257	91	1	stimuli\puppet\puppet_05s.jpg	4	-1	1	0	puppet_05s.jpg	0	0	0	145.437869630608	145.487860109846	0.0499904792377492
186880	50	401	0	0	snowmobile	1483	92	1	stimuli\snowmobile\snowmobile_11s.jpg	10	-1	1	0	snowmobile_11s.jpg	0	0	0	145.537993705322	145.588100237932	0.0501065326097887
186980	50	402	0	0	pogo_stick	1208	93	1	stimuli\pogo_stick\pogo_stick_01s.jpg	0	-1	1	0	pogo_stick_01s.jpg	0	0	0	145.637976370461	145.688104602123	0.0501282316618017
187080	50	403	0	0	jeep	843	94	1	stimuli\jeep\jeep_10s.jpg	9	-1	1	0	jeep_10s.jpg	0	0	0	145.73802949657	145.78801314914	0.0499836525705177
187180	50	404	0	0	badger	53	95	1	stimuli\badger\badger_07s.jpg	6	-1	1	0	badger_07s.jpg	0	0	0	145.838045076009	145.888066519066	0.0500214430576307
187280	50	405	0	0	bear	105	96	1	stimuli\bear\bear_09s.jpg	8	-1	1	0	bear_09s.jpg	0	0	0	145.937917539202	145.988008467997	0.0500909287948161
187380	50	406	0	0	stained_glass	1531	97	1	stimuli\stained_glass\stained_glass_10s.jpg	9	-1	1	0	stained_glass_10s.jpg	0	0	0	146.037908250051	146.088065007447	0.0501567573955981
187480	50	407	0	0	noodle	1061	98	1	stimuli\noodle\noodle_09s.jpg	8	-1	1	0	noodle_09s.jpg	0	0	0	146.137940896158	146.1880303621	0.0500894659417099
187580	50	408	0	0	palette	1100	99	1	stimuli\palette\palette_03s.jpg	2	-1	1	0	palette_03s.jpg	0	0	0	146.237990608941	146.288013271042	0.0500226621006732
187680	50	409	0	0	accordion	2	100	1	stimuli\accordion\accordion_11s.jpg	10	-1	1	0	accordion_11s.jpg	0	0	0	146.338126630326	146.388132713371	0.0500060830454458
187780	50	410	0	0	candy_bar	256	101	1	stimuli\candy_bar\candy_bar_03s.jpg	2	-1	1	0	candy_bar_03s.jpg	0	0	0	146.43800787066	146.487938860351	0.0499309896913473
187880	50	411	0	0	french_horn	642	102	1	stimuli\french_horn\french_horn_04s.jpg	3	-1	1	0	french_horn_04s.jpg	0	0	0	146.538006627234	146.587817174972	0.0498105477381614
187980	50	412	0	0	windowsill	1819	103	1	stimuli\windowsill\windowsill_08s.jpg	7	-1	1	0	windowsill_08s.jpg	0	0	0	146.637864705655	146.687879078236	0.0500143725803355
188080	50	413	0	0	ski_boots	1453	104	1	stimuli\ski_boots\ski_boots_01b.jpg	0	-1	1	0	ski_boots_01b.jpg	0	0	0	146.737857123175	146.787866863371	0.0500097401964013
188180	50	414	0	0	bonnet	163	105	1	stimuli\bonnet\bonnet_09s.jpg	8	-1	1	0	bonnet_09s.jpg	0	0	0	146.837924877866	146.887913650433	0.0499887725673034
188280	50	415	0	0	pliers	1201	106	1	stimuli\pliers\pliers_07s.jpg	6	-1	1	0	pliers_07s.jpg	0	0	0	146.937907786814	146.987857793654	0.0499500068399357
188380	50	416	0	0	teapot	1634	107	1	stimuli\teapot\teapot_01b.jpg	0	-1	1	0	teapot_01b.jpg	0	0	0	147.037919221482	147.088081830305	0.0501626088225748
188480	50	417	0	0	flower	619	108	1	stimuli\flower\flower_04s.jpg	3	-1	1	0	flower_04s.jpg	0	0	0	147.138113757173	147.187980868744	0.0498671115710749
188580	50	418	0	0	lemonade	915	109	1	stimuli\lemonade\lemonade_12s.jpg	11	-1	1	0	lemonade_12s.jpg	0	0	0	147.237891866047	147.28784382336	0.0499519573131693
188680	50	419	0	0	smoothie	1474	110	1	stimuli\smoothie\smoothie_05s.jpg	4	-1	1	0	smoothie_05s.jpg	0	0	0	147.337935239775	147.387906945674	0.0499717058992246
188780	50	420	0	0	popcorn	1223	111	1	stimuli\popcorn\popcorn_01b.jpg	0	-1	1	0	popcorn_01b.jpg	0	0	0	147.437934240159	147.487940079394	0.0500058392353822
188880	50	421	0	0	knife	879	112	1	stimuli\knife\knife_06s.jpg	5	-1	1	0	knife_06s.jpg	0	0	0	147.538023693902	147.587953464543	0.0499297706410289
188980	50	422	0	0	swizzle_stick	1601	113	1	stimuli\swizzle_stick\swizzle_stick_10s.jpg	9	-1	1	0	swizzle_stick_10s.jpg	0	0	0	147.638030983813	147.687919550626	0.0498885668130242
189080	50	423	0	0	wax	1795	114	1	stimuli\wax\wax_06s.jpg	5	-1	1	0	wax_06s.jpg	0	0	0	147.737921001295	147.78785613575	0.0499351344551542
189180	50	424	0	0	pug	1249	115	1	stimuli\pug\pug_04s.jpg	3	-1	1	0	pug_04s.jpg	0	0	0	147.837885380708	147.887979966654	0.0500945859457715
189280	50	425	0	0	jacket	836	116	1	stimuli\jacket\jacket_01b.jpg	0	-1	1	0	jacket_01b.jpg	0	0	0	147.937989706843	147.988003347993	0.0500136411501444
189380	50	426	0	0	shredder	1437	117	1	stimuli\shredder\shredder_03s.jpg	2	-1	1	0	shredder_03s.jpg	0	0	0	148.038065751061	148.087978455034	0.0499127039729501
189480	50	427	0	0	boomerang	168	118	1	stimuli\boomerang\boomerang_02s.jpg	1	-1	1	0	boomerang_02s.jpg	0	0	0	148.138036713339	148.187987695412	0.0499509820729145
189580	50	428	0	0	shears	1412	119	1	stimuli\shears\shears_07s.jpg	6	-1	1	0	shears_07s.jpg	0	0	0	148.238036688956	148.288003518661	0.0499668297052267
189680	50	429	0	0	chalkboard	303	120	1	stimuli\chalkboard\chalkboard_09s.jpg	8	-1	1	0	chalkboard_09s.jpg	0	0	0	148.338002043609	148.387957414263	0.049955370654061
189780	50	430	0	0	quill	1263	121	1	stimuli\quill\quill_02s.jpg	1	-1	1	0	quill_02s.jpg	0	0	0	148.437991779225	148.487953732736	0.0499619535112288
189880	50	431	0	0	sling	1466	122	1	stimuli\sling\sling_02s.jpg	1	-1	1	0	sling_02s.jpg	0	0	0	148.537975175794	148.587958340737	0.0499831649431144
189980	50	432	0	0	flan	609	123	1	stimuli\flan\flan_08s.jpg	7	-1	1	0	flan_08s.jpg	0	0	0	148.637990267605	148.688047306867	0.0500570392614463
190080	50	433	0	0	eagle	537	124	1	stimuli\eagle\eagle_10s.jpg	9	-1	1	0	eagle_10s.jpg	0	0	0	148.738045588005	148.788025339622	0.0499797516167746
190180	50	434	0	0	flute	620	125	1	stimuli\flute\flute_08s.jpg	7	-1	1	0	flute_08s.jpg	0	0	0	148.83805604744	148.887928766635	0.0498727191952639
190280	50	435	0	0	router	1336	126	1	stimuli\router\router_07s.jpg	6	-1	1	0	router_07s.jpg	0	0	0	148.937910712528	148.987952879404	0.0500421668766649
190380	50	436	0	0	leech	909	127	1	stimuli\leech\leech_02s.jpg	1	-1	1	0	leech_02s.jpg	0	0	0	149.037967008167	149.087996740753	0.0500297325852443
190480	50	437	0	0	fruitcake	646	128	1	stimuli\fruitcake\fruitcake_10s.jpg	9	-1	1	0	fruitcake_10s.jpg	0	0	0	149.137906031385	149.188023047805	0.0501170164206997
190580	50	438	0	0	board	152	129	1	stimuli\board\board_07s.jpg	6	-1	1	0	board_07s.jpg	0	0	0	149.238081062307	149.288028874857	0.0499478125493624
190680	50	439	0	0	rattle	1287	130	1	stimuli\rattle\rattle_04s.jpg	3	-1	1	0	rattle_04s.jpg	0	0	0	149.337914759766	149.387967654264	0.0500528944976395
190780	50	440	0	0	duster	534	131	1	stimuli\duster\duster_11s.jpg	10	-1	1	0	duster_11s.jpg	0	0	0	149.438028594479	149.488039553718	0.0500109592394438
190880	50	441	0	0	heater	772	132	1	stimuli\heater\heater_01b.jpg	0	-1	1	0	heater_01b.jpg	0	0	0	149.538026863433	149.588007346472	0.0499804830396897
190980	50	442	0	0	foot	628	133	1	stimuli\foot\foot_11s.jpg	10	-1	1	0	foot_11s.jpg	0	0	0	149.638044637148	149.687992693514	0.0499480563667021
191080	50	443	0	0	undershirt	1744	134	1	stimuli\undershirt\undershirt_10s.jpg	9	-1	1	0	undershirt_10s.jpg	0	0	0	149.738039005148	149.787923671014	0.049884665866557
191180	50	444	0	0	pesto	1156	135	1	stimuli\pesto\pesto_06s.jpg	5	-1	1	0	pesto_06s.jpg	0	0	0	149.837996070273	149.888018000951	0.0500219306777581
191280	50	445	0	0	waffle_iron	1771	136	1	stimuli\waffle_iron\waffle_iron_08s.jpg	7	-1	1	0	waffle_iron_08s.jpg	0	0	0	149.938011405902	149.988074784211	0.0500633783085505
191380	50	446	0	0	thermos	1647	137	1	stimuli\thermos\thermos_06s.jpg	5	-1	1	0	thermos_06s.jpg	0	0	0	150.038055511061	150.088116695078	0.0500611840179772
191480	50	447	0	0	candlestick	254	138	1	stimuli\candlestick\candlestick_04s.jpg	3	-1	1	0	candlestick_04s.jpg	0	0	0	150.138152766711	150.188021341142	0.0498685744314571
191580	50	448	0	0	spatula	1508	139	1	stimuli\spatula\spatula_01b.jpg	0	-1	1	0	spatula_01b.jpg	0	0	0	150.238107881363	150.288152973953	0.0500450925901532
191680	50	449	0	0	table	1608	140	1	stimuli\table\table_02s.jpg	1	-1	1	0	table_02s.jpg	0	0	0	150.338048611244	150.388112477172	0.0500638659286778
191780	50	450	0	0	icepick	822	141	1	stimuli\icepick\icepick_03s.jpg	2	-1	1	0	icepick_03s.jpg	0	0	0	150.438171223104	150.488035165145	0.0498639420402469
191880	50	451	0	0	eraser	559	142	1	stimuli\eraser\eraser_07s.jpg	6	-1	1	0	eraser_07s.jpg	0	0	0	150.538169492051	150.588147049377	0.0499775573262013
191980	50	452	0	0	license_plate	921	143	1	stimuli\license_plate\license_plate_10s.jpg	9	-1	1	0	license_plate_10s.jpg	0	0	0	150.638152157189	150.688005127806	0.0498529706164845
192080	50	453	0	0	fire_pit	593	144	1	stimuli\fire_pit\fire_pit_03s.jpg	2	-1	1	0	fire_pit_03s.jpg	0	0	0	150.738111416606	150.788205758734	0.0500943421284319
192180	50	454	0	0	stirrup	1558	145	1	stimuli\stirrup\stirrup_09s.jpg	8	-1	1	0	stirrup_09s.jpg	0	0	0	150.837948771208	150.887999715233	0.0500509440244059
192280	50	455	0	0	engine	557	146	1	stimuli\engine\engine_01b.jpg	0	-1	1	0	engine_01b.jpg	0	0	0	150.938027741147	150.988014807044	0.0499870658968575
192380	50	456	0	0	appetizer	29	147	1	stimuli\appetizer\appetizer_06s.jpg	5	-1	1	0	appetizer_06s.jpg	0	0	0	151.037962619594	151.088057449342	0.0500948297485593
192480	50	457	0	0	maple_syrup	971	148	1	stimuli\maple_syrup\maple_syrup_01b.jpg	0	-1	1	0	maple_syrup_01b.jpg	0	0	0	151.138010381903	151.18806059449	0.0500502125869389
192580	50	458	0	0	airboat	8	149	1	stimuli\airboat\airboat_01s.jpg	0	-1	1	0	airboat_01s.jpg	0	0	0	151.238122022318	151.288030825337	0.049908803019207
192680	50	459	0	0	torch	1683	150	1	stimuli\torch\torch_06s.jpg	5	-1	1	0	torch_06s.jpg	0	0	0	151.338100298883	151.388131494328	0.0500311954456265
192780	50	460	0	0	shoelace	1426	151	1	stimuli\shoelace\shoelace_12s.jpg	11	-1	1	0	shoelace_12s.jpg	0	0	0	151.438292884101	151.488142197566	0.0498493134655291
192880	50	461	0	0	jukebox	857	152	1	stimuli\jukebox\jukebox_07s.jpg	6	-1	1	0	jukebox_07s.jpg	0	0	0	151.538025400572	151.587958828357	0.0499334277847083
192980	50	462	0	0	staple	1537	153	1	stimuli\staple\staple_10s.jpg	9	-1	1	0	staple_10s.jpg	0	0	0	151.638025619999	151.687967824932	0.0499422049324494
193080	50	463	0	0	police_car	1214	154	1	stimuli\police_car\police_car_04s.jpg	3	-1	1	0	police_car_04s.jpg	0	0	0	151.738004384184	151.80316908611	0.0651647019258235
193180	50	464	0	0	cufflink	458	155	1	stimuli\cufflink\cufflink_05s.jpg	4	-1	1	0	cufflink_05s.jpg	0	0	0	151.838108954129	151.888266930568	0.0501579764386406
193280	50	465	0	0	goldfish	688	156	1	stimuli\goldfish\goldfish_07s.jpg	6	-1	1	0	goldfish_07s.jpg	0	0	0	151.938083329733	151.988118182322	0.050034852589306
193380	50	466	0	0	jackhammer	837	157	1	stimuli\jackhammer\jackhammer_09s.jpg	8	-1	1	0	jackhammer_09s.jpg	0	0	0	152.038217888265	152.088163018911	0.0499451306459378
193480	50	467	0	0	pig	1170	158	1	stimuli\pig\pig_08n.jpg	7	-1	1	0	pig_08n.jpg	0	0	0	152.138063288585	152.188048647819	0.0499853592336876
193580	50	468	0	0	toilet_paper	1671	159	1	stimuli\toilet_paper\toilet_paper_10s.jpg	9	-1	1	0	toilet_paper_10s.jpg	0	0	0	152.237997923228	152.288021316759	0.0500233935308643
193680	50	469	0	0	egg_roll	547	160	1	stimuli\egg_roll\egg_roll_06s.jpg	5	-1	1	0	egg_roll_06s.jpg	0	0	0	152.338071041733	152.388051280963	0.049980239229626
193780	50	470	0	0	vest	1759	161	1	stimuli\vest\vest_12s.jpg	11	-1	1	0	vest_12s.jpg	0	0	0	152.438056876395	152.487983721316	0.0499268449202646
193880	50	471	0	0	funnel	649	162	1	stimuli\funnel\funnel_06s.jpg	5	-1	1	0	funnel_06s.jpg	0	0	0	152.538079770115	152.588090729354	0.0500109592394438
193980	50	472	0	0	cilantro	347	163	1	stimuli\cilantro\cilantro_01b.jpg	0	-1	1	0	cilantro_01b.jpg	0	0	0	152.638140210518	152.688208708831	0.0500684983126121
194080	50	473	0	0	statue	1543	164	1	stimuli\statue\statue_10s.jpg	9	-1	1	0	statue_10s.jpg	0	0	0	152.73828305857	152.788208928258	0.0499258696872857
194180	50	474	0	0	juicer2	856	165	1	stimuli\juicer2\juicer2_10s.jpg	9	-1	1	0	juicer2_10s.jpg	0	0	0	152.838140161759	152.888145757184	0.0500055954253185
194280	50	475	0	0	plug	1202	166	1	stimuli\plug\plug_10s.jpg	9	-1	1	0	plug_10s.jpg	0	0	0	152.938086255454	152.988060887059	0.049974631605437
194380	50	476	0	0	fireplace	595	167	1	stimuli\fireplace\fireplace_08s.jpg	7	-1	1	0	fireplace_08s.jpg	0	0	0	153.038093789168	153.088060375063	0.049966585895163
194480	50	477	0	0	turtle	1736	168	1	stimuli\turtle\turtle_03s.jpg	2	-1	1	0	turtle_03s.jpg	0	0	0	153.138156911475	153.188132518328	0.0499756068529678
194580	50	478	0	0	creme_brulee	439	169	1	stimuli\creme_brulee\creme_brulee_05s.jpg	4	-1	1	0	creme_brulee_05s.jpg	0	0	0	153.238090814688	153.288024730093	0.0499339154048357
194680	50	479	0	0	chicken1	322	170	1	stimuli\chicken1\chicken1_09s.jpg	8	-1	1	0	chicken1_09s.jpg	0	0	0	153.338104687457	153.388149780047	0.0500450925901532
194780	50	480	0	0	ruler	1341	171	1	stimuli\ruler\ruler_07s.jpg	6	-1	1	0	ruler_07s.jpg	0	0	0	153.438246560268	153.488219241408	0.0499726811394794
194880	50	481	0	0	cornmeal	415	172	1	stimuli\cornmeal\cornmeal_05s.jpg	4	-1	1	0	cornmeal_05s.jpg	0	0	0	153.538301880675	153.588037822672	0.0497359419969143
194980	50	482	0	0	oil	1072	173	1	stimuli\oil\oil_11s.jpg	10	-1	1	0	oil_11s.jpg	0	0	0	153.638280157233	153.688087535455	0.0498073782218853
195080	50	483	0	0	baseball_glove	80	174	1	stimuli\baseball_glove\baseball_glove_05s.jpg	4	-1	1	0	baseball_glove_05s.jpg	0	0	0	153.738142624235	153.788321812106	0.0501791878705262
195180	50	484	0	0	owl	1091	175	1	stimuli\owl\owl_01b.jpg	0	-1	1	0	owl_01b.jpg	0	0	0	153.838114074126	153.888216949592	0.0501028754661093
195280	50	485	0	0	water_fountain	1790	176	1	stimuli\water_fountain\water_fountain_01b.jpg	0	-1	1	0	water_fountain_01b.jpg	0	0	0	153.938145988803	153.98810452898	0.049958540177613
195380	50	486	0	0	face_mask	570	177	1	stimuli\face_mask\face_mask_04s.jpg	3	-1	1	0	face_mask_04s.jpg	0	0	0	154.038192288252	154.088133274134	0.0499409858821309
195480	50	487	0	0	skunk	1459	178	1	stimuli\skunk\skunk_11s.jpg	10	-1	1	0	skunk_11s.jpg	0	0	0	154.138189094345	154.188109600218	0.0499205058731604
195580	50	488	0	0	arugula	40	179	1	stimuli\arugula\arugula_04s.jpg	3	-1	1	0	arugula_04s.jpg	0	0	0	154.238154936618	154.288130299661	0.0499753630429041
195680	50	489	0	0	pea	1128	180	1	stimuli\pea\pea_05s.jpg	4	-1	1	0	pea_05s.jpg	0	0	0	154.338114683655	154.388316545825	0.0502018621700699
195780	50	490	0	0	broccoli	201	181	1	stimuli\broccoli\broccoli_09s.jpg	8	-1	1	0	broccoli_09s.jpg	0	0	0	154.438172685957	154.488111965176	0.049939279218961
195880	50	491	0	0	eggplant	550	182	1	stimuli\eggplant\eggplant_12s.jpg	11	-1	1	0	eggplant_12s.jpg	0	0	0	154.538061484396	154.588193373202	0.0501318888054811
195980	50	492	0	0	skirt	1457	183	1	stimuli\skirt\skirt_08s.jpg	7	-1	1	0	skirt_08s.jpg	0	0	0	154.638328187728	154.688370110794	0.0500419230666012
196080	50	493	0	0	bulletproof_vest	218	184	1	stimuli\bulletproof_vest\bulletproof_vest_10s.jpg	9	-1	1	0	bulletproof_vest_10s.jpg	0	0	0	154.738154083287	154.788329857824	0.0501757745369105
196180	50	494	0	0	camcorder	244	185	1	stimuli\camcorder\camcorder_09n.jpg	8	-1	1	0	camcorder_09n.jpg	0	0	0	154.838095544597	154.888106260027	0.0500107154293801
196280	50	495	0	0	mop	1019	186	1	stimuli\mop\mop_07s.jpg	6	-1	1	0	mop_07s.jpg	0	0	0	154.938132823088	154.988086243262	0.0499534201735514
196380	50	496	0	0	modem	1011	187	1	stimuli\modem\modem_01b.jpg	0	-1	1	0	modem_01b.jpg	0	0	0	155.038338330211	155.088222020837	0.0498836906263023
196480	50	497	0	0	hail	732	188	1	stimuli\hail\hail_08s.jpg	7	-1	1	0	hail_08s.jpg	0	0	0	155.138245414368	155.188126666893	0.0498812525256653
196580	50	498	0	0	wing	1827	189	1	stimuli\wing\wing_01b.jpg	0	-1	1	0	wing_01b.jpg	0	0	0	155.238148597571	155.288068615824	0.049920018253033
196680	50	499	0	0	airbag	7	190	1	stimuli\airbag\airbag_02s.jpg	1	-1	1	0	airbag_02s.jpg	0	0	0	155.338295834197	155.388289482951	0.0499936487540253
196780	50	500	0	0	wallet	1776	191	1	stimuli\wallet\wallet_10s.jpg	9	-1	1	0	wallet_10s.jpg	0	0	0	155.438305318392	155.48824264713	0.0499373287384515
196880	50	501	0	0	wine	1823	192	1	stimuli\wine\wine_04s.jpg	3	-1	1	0	wine_04s.jpg	0	0	0	155.538271404468	155.588155095094	0.0498836906263023
196980	50	502	0	0	jumpsuit	859	193	1	stimuli\jumpsuit\jumpsuit_03s.jpg	2	-1	1	0	jumpsuit_03s.jpg	0	0	0	155.638174831482	155.688161897386	0.0499870659041335
197080	50	503	0	0	calf1	241	194	1	stimuli\calf1\calf1_12s.jpg	11	-1	1	0	calf1_12s.jpg	0	0	0	155.738229664268	155.788196006346	0.0499663420778234
197180	50	504	0	0	gift	672	195	1	stimuli\gift\gift_02s.jpg	1	-1	1	0	gift_02s.jpg	0	0	0	155.838203308449	155.888159898146	0.0499565896971035
197280	50	505	0	0	sand	1351	196	1	stimuli\sand\sand_03s.jpg	2	-1	1	0	sand_03s.jpg	0	0	0	155.93818621739	155.988241793792	0.0500555764010642
197380	50	506	0	0	poodle	1221	197	1	stimuli\poodle\poodle_07s.jpg	6	-1	1	0	poodle_07s.jpg	0	0	0	156.038234711123	156.088166188434	0.0499314773114747
197480	50	507	0	0	meatloaf	990	198	1	stimuli\meatloaf\meatloaf_06s.jpg	5	-1	1	0	meatloaf_06s.jpg	0	0	0	156.138083280974	156.188130811657	0.0500475306835142
197580	50	508	0	0	headscarf	768	199	1	stimuli\headscarf\headscarf_11s.jpg	10	-1	1	0	headscarf_11s.jpg	0	0	0	156.238129092802	156.288150535853	0.0500214430503547
197680	50	509	0	0	toad	1664	200	1	stimuli\toad\toad_03s.jpg	2	-1	1	0	toad_03s.jpg	0	0	0	156.3381717351	156.388149048616	0.0499773135161377
197780	50	510	0	0	puddle	1247	201	1	stimuli\puddle\puddle_06s.jpg	5	-1	1	0	puddle_06s.jpg	0	0	0	156.438170247864	156.488233869983	0.0500636221186141
197880	50	511	0	0	corn	412	202	1	stimuli\corn\corn_06s.jpg	5	-1	1	0	corn_06s.jpg	0	0	0	156.538166322527	156.588080245543	0.0499139230159926
197980	50	512	0	0	telegraph	1638	203	1	stimuli\telegraph\telegraph_10s.jpg	9	-1	1	0	telegraph_10s.jpg	0	0	0	156.638119974319	156.688092655451	0.0499726811322034
198080	50	513	0	0	chihuahua	326	204	1	stimuli\chihuahua\chihuahua_09s.jpg	8	-1	1	0	chihuahua_09s.jpg	0	0	0	156.738179927102	156.788197469206	0.0500175421038875
198180	50	514	0	0	swing	1598	205	1	stimuli\swing\swing_09s.jpg	8	-1	1	0	swing_09s.jpg	0	0	0	156.838381045651	156.888182816248	0.0498017705976963
198280	50	515	0	0	cockroach	373	206	1	stimuli\cockroach\cockroach_02s.jpg	1	-1	1	0	cockroach_02s.jpg	0	0	0	156.938266918376	156.988306403342	0.0500394849659642
198380	50	516	0	0	cleaver	354	207	1	stimuli\cleaver\cleaver_03s.jpg	2	-1	1	0	cleaver_03s.jpg	0	0	0	157.038325652109	157.088089876022	0.0497642239133711
198480	50	517	0	0	hoodie	792	208	1	stimuli\hoodie\hoodie_04s.jpg	3	-1	1	0	hoodie_04s.jpg	0	0	0	157.13814374576	157.18809107069	0.049947324929235
198580	50	518	0	0	guitar	723	209	1	stimuli\guitar\guitar_12s.jpg	11	-1	1	0	guitar_12s.jpg	0	0	0	157.238214182355	157.288179061579	0.0499648792247172
198680	50	519	0	0	blueberry	149	210	1	stimuli\blueberry\blueberry_07s.jpg	6	-1	1	0	blueberry_07s.jpg	0	0	0	157.33819343416	157.388131006708	0.0499375725485152
198780	50	520	0	0	shoe_polish	1424	211	1	stimuli\shoe_polish\shoe_polish_03s.jpg	2	-1	1	0	shoe_polish_03s.jpg	0	0	0	157.438263383134	157.488247767127	0.0499843839934329
198880	50	521	0	0	wig	1816	212	1	stimuli\wig\wig_08s.jpg	7	-1	1	0	wig_08s.jpg	0	0	0	157.538214109212	157.588191178918	0.049977069706074
198980	50	522	0	0	rocket	1320	213	1	stimuli\rocket\rocket_10s.jpg	9	-1	1	0	rocket_10s.jpg	0	0	0	157.638325993445	157.688202125966	0.0498761325216037
199080	50	523	0	0	corsage	417	214	1	stimuli\corsage\corsage_04s.jpg	3	-1	1	0	corsage_04s.jpg	0	0	0	157.738294273811	157.788306695911	0.0500124220998259
199180	50	524	0	0	centerpiece	295	215	1	stimuli\centerpiece\centerpiece_07s.jpg	6	-1	1	0	centerpiece_07s.jpg	0	0	0	157.838333990396	157.888435159199	0.0501011688029394
199280	50	525	0	0	record_player	1296	216	1	stimuli\record_player\record_player_05s.jpg	4	-1	1	0	record_player_05s.jpg	0	0	0	157.938267893616	157.988308353815	0.050040460198943
199380	50	526	0	0	jellyfish	845	217	1	stimuli\jellyfish\jellyfish_03s.jpg	2	-1	1	0	jellyfish_03s.jpg	0	0	0	158.038340768304	158.088280291333	0.0499395230290247
199480	50	527	0	0	brace	186	218	1	stimuli\brace\brace_09s.jpg	8	-1	1	0	brace_09s.jpg	0	0	0	158.138222740075	158.188392906995	0.0501701669199974
199580	50	528	0	0	earring	540	219	1	stimuli\earring\earring_03n.jpg	2	-1	1	0	earring_03n.jpg	0	0	0	158.238449458629	158.288404829284	0.049955370654061
199680	50	529	0	0	fire_hydrant	592	220	1	stimuli\fire_hydrant\fire_hydrant_10s.jpg	9	-1	1	0	fire_hydrant_10s.jpg	0	0	0	158.338367026605	158.388281924854	0.0499148982489714
199780	50	530	0	0	kiwi	876	221	1	stimuli\kiwi\kiwi_08s.jpg	7	-1	1	0	kiwi_08s.jpg	0	0	0	158.438467939399	158.488320178585	0.0498522391862934
199880	50	531	0	0	golf_cart	689	222	1	stimuli\golf_cart\golf_cart_11s.jpg	10	-1	1	0	golf_cart_11s.jpg	0	0	0	158.538372341653	158.588405487571	0.0500331459188601
199980	50	532	0	0	gazelle	666	223	1	stimuli\gazelle\gazelle_09s.jpg	8	-1	1	1	gazelle_09s.jpg	0	0	0	158.638325018204	158.688354263169	0.050029244965117
200080	50	533	0	0	ticktacktoe	1657	224	1	stimuli\ticktacktoe\ticktacktoe_01b.jpg	0	-1	1	0	ticktacktoe_01b.jpg	0	0	0	158.738413252904	158.788179671101	0.0497664181966684
200180	50	534	0	0	cookie_cutter	401	225	1	stimuli\cookie_cutter\cookie_cutter_12s.jpg	11	-1	1	0	cookie_cutter_12s.jpg	0	0	0	158.83827547609	158.888245475318	0.0499699992287788
200280	50	535	0	0	wood	1833	226	1	stimuli\wood\wood_01b.jpg	0	-1	1	0	wood_01b.jpg	1	0.29264516607509	1	158.93824009932	158.98825252142	0.0500124220998259
200380	50	536	0	0	doormat	511	227	1	stimuli\doormat\doormat_06s.jpg	5	-1	1	0	doormat_06s.jpg	0	0	0	159.038321263535	159.08828833705	0.0499670735152904
200480	50	537	0	0	locker	941	228	1	stimuli\locker\locker_09s.jpg	8	-1	1	0	locker_09s.jpg	0	0	0	159.138301734391	159.188275146946	0.0499734125551186
200580	50	538	0	0	backscratcher	50	229	1	stimuli\backscratcher\backscratcher_09s.jpg	8	-1	1	0	backscratcher_09s.jpg	0	0	0	159.238343889068	159.28843164834	0.0500877592712641
200680	50	539	0	0	palm_tree	1102	230	1	stimuli\palm_tree\palm_tree_02s.jpg	1	-1	1	0	palm_tree_02s.jpg	0	0	0	159.338301929434	159.38824803532	0.0499461058861925
200780	50	540	0	0	artichoke	39	231	1	stimuli\artichoke\artichoke_12s.jpg	11	-1	1	0	artichoke_12s.jpg	0	0	0	159.438257044087	159.488270197617	0.050013153530017
200880	50	541	0	0	grinder	716	232	1	stimuli\grinder\grinder_03s.jpg	2	-1	1	0	grinder_03s.jpg	0	0	0	159.538354543547	159.588274561807	0.049920018260309
200980	50	542	0	0	sewing_machine	1407	233	1	stimuli\sewing_machine\sewing_machine_01b.jpg	0	-1	1	0	sewing_machine_01b.jpg	0	0	0	159.638442534437	159.688405219378	0.0499626849414199
201080	50	543	0	0	lasagna	898	234	1	stimuli\lasagna\lasagna_05s.jpg	4	-1	1	0	lasagna_05s.jpg	0	0	0	159.738369123363	159.788271099707	0.0499019763446995
201180	50	544	0	0	straw2	1569	235	1	stimuli\straw2\straw2_12s.jpg	11	-1	1	0	straw2_12s.jpg	0	0	0	159.838382020891	159.888338610588	0.0499565896971035
201280	50	545	0	0	tractor	1695	236	1	stimuli\tractor\tractor_09n.jpg	8	-1	1	0	tractor_09n.jpg	0	0	0	159.93826984409	159.988270807138	0.0500009630486602
201380	50	546	0	0	mustard	1044	237	1	stimuli\mustard\mustard_04s.jpg	3	-1	1	0	mustard_04s.jpg	0	0	0	160.038288593052	160.088327346588	0.0500387535357731
201480	50	547	0	0	spareribs	1505	238	1	stimuli\spareribs\spareribs_08n.jpg	7	-1	1	0	spareribs_08n.jpg	0	0	0	160.13823566198	160.188184449769	0.0499487877896172
201580	50	548	0	0	taxi	1630	239	1	stimuli\taxi\taxi_05s.jpg	4	-1	1	0	taxi_05s.jpg	0	0	0	160.238195652826	160.288246840653	0.0500511878271936
201680	50	549	0	0	boxer_shorts	182	240	1	stimuli\boxer_shorts\boxer_shorts_11s.jpg	10	-1	1	0	boxer_shorts_11s.jpg	0	0	0	160.338230249406	160.388305574386	0.0500753249798436
201780	50	550	0	0	organ	1082	241	1	stimuli\organ\organ_12s.jpg	11	-1	1	0	organ_12s.jpg	0	0	0	160.438337257445	160.488326273822	0.0499890163773671
201880	50	551	0	0	turtleneck	1737	242	1	stimuli\turtleneck\turtleneck_05s.jpg	4	-1	1	0	turtleneck_05s.jpg	0	0	0	160.538305294009	160.588328199919	0.0500229059107369
201980	50	552	0	0	tree	1708	243	1	stimuli\tree\tree_06s.jpg	5	-1	1	0	tree_06s.jpg	0	0	0	160.638316484867	160.688315009822	0.0499985249552992
202080	50	553	0	0	oven	1089	244	1	stimuli\oven\oven_10s.jpg	9	-1	1	0	oven_10s.jpg	0	0	0	160.738257946177	160.78826378542	0.0500058392426581
202180	50	554	0	0	domino	503	245	1	stimuli\domino\domino_02s.jpg	1	-1	1	0	domino_02s.jpg	0	0	0	160.838196481775	160.888264980087	0.0500684983126121
202280	50	555	0	0	ring	1313	246	1	stimuli\ring\ring_12s.jpg	11	-1	1	0	ring_12s.jpg	0	0	0	160.938321775538	160.988389298611	0.0500675230723573
202380	50	556	0	0	rubber_band	1337	247	1	stimuli\rubber_band\rubber_band_12s.jpg	11	-1	1	1	rubber_band_12s.jpg	0	0	0	161.038427564527	161.088433891389	0.0500063268627855
202480	50	557	0	0	unicycle	1746	248	1	stimuli\unicycle\unicycle_05s.jpg	4	-1	1	0	unicycle_05s.jpg	0	0	0	161.138510191609	161.188262712662	0.0497525210521417
202580	50	558	0	0	cinnamon	348	249	1	stimuli\cinnamon\cinnamon_12s.jpg	11	-1	1	0	cinnamon_12s.jpg	0	0	0	161.23829366429	161.288386543558	0.0500928792680497
202680	50	559	0	0	ear	538	250	1	stimuli\ear\ear_01b.jpg	0	-1	1	0	ear_01b.jpg	1	0.343039150218829	1	161.338538424759	161.388504279224	0.0499658544649719
202780	50	560	0	0	crown	448	251	1	stimuli\crown\crown_02s.jpg	1	-1	1	0	crown_02s.jpg	0	0	0	161.438347741263	161.488465489114	0.0501177478508907
202880	50	561	0	0	ham	739	252	1	stimuli\ham\ham_10s.jpg	9	-1	1	0	ham_10s.jpg	0	0	0	161.538335282588	161.588339171351	0.0500038887621486
202980	50	562	0	0	melon	994	253	1	stimuli\melon\melon_03s.jpg	2	-1	1	0	melon_03s.jpg	0	0	0	161.638327943918	161.688314034582	0.0499860906638787
203080	50	563	0	0	barbell	72	254	1	stimuli\barbell\barbell_10s.jpg	9	-1	1	0	barbell_10s.jpg	0	0	0	161.738352788117	161.788255008272	0.0499022201547632
203180	50	564	0	0	moose	1018	255	1	stimuli\moose\moose_12s.jpg	11	-1	1	0	moose_12s.jpg	0	0	0	161.83824695037	161.888325201064	0.0500782506933319
203280	50	565	0	0	car	267	256	1	stimuli\car\car_05s.jpg	4	-1	1	0	car_05s.jpg	0	0	0	161.93840588985	161.988336879542	0.0499309896913473
203380	50	566	0	0	dolly	501	257	1	stimuli\dolly\dolly_02s.jpg	1	-1	1	0	dolly_02s.jpg	0	0	0	162.038496075031	162.088236893222	0.0497408181909123
203480	50	567	0	0	frog	644	258	1	stimuli\frog\frog_06s.jpg	5	-1	1	0	frog_06s.jpg	0	0	0	162.138275890567	162.188276853616	0.0500009630486602
203580	50	568	0	0	zipper	1852	259	1	stimuli\zipper\zipper_04s.jpg	3	-1	1	0	zipper_04s.jpg	0	0	0	162.238329016684	162.288281705427	0.0499526887433603
203680	50	569	0	0	kangaroo	862	260	1	stimuli\kangaroo\kangaroo_04s.jpg	3	-1	1	0	kangaroo_04s.jpg	0	0	0	162.33829632181	162.388329955349	0.0500336335389875
203780	50	570	0	0	headdress	763	261	1	stimuli\headdress\headdress_06s.jpg	5	-1	1	0	headdress_06s.jpg	0	0	0	162.438306293625	162.488314083341	0.0500077897158917
203880	50	571	0	0	goat	684	262	1	stimuli\goat\goat_03s.jpg	2	-1	1	0	goat_03s.jpg	0	0	0	162.538302855908	162.588331125633	0.0500282697248622
203980	50	572	0	0	doll	499	263	1	stimuli\doll\doll_05s.jpg	4	-1	1	0	doll_05s.jpg	0	0	0	162.638377924894	162.688345486022	0.0499675611281418
204080	50	573	0	0	firetruck	596	264	1	stimuli\firetruck\firetruck_10s.jpg	9	-1	1	0	firetruck_10s.jpg	0	0	0	162.738390822422	162.7883571645	0.0499663420778234
204180	50	574	0	0	jet	847	265	1	stimuli\jet\jet_02s.jpg	1	-1	1	0	jet_02s.jpg	0	0	0	162.838364466603	162.888358115357	0.0499936487540253
204280	50	575	0	0	wrap	1837	266	1	stimuli\wrap\wrap_07s.jpg	6	-1	1	0	wrap_07s.jpg	0	0	0	162.938399306993	162.98828372905	0.0498844220564933
204380	50	576	0	0	iron	832	267	1	stimuli\iron\iron_07s.jpg	6	-1	1	0	iron_07s.jpg	0	0	0	163.038369781651	163.088281510383	0.0499117287326953
204480	50	577	0	0	air_pump	6	268	1	stimuli\air_pump\air_pump_07s.jpg	6	-1	1	0	air_pump_07s.jpg	0	0	0	163.138341962971	163.188210049782	0.0498680868113297
204580	50	578	0	0	costume	419	269	1	stimuli\costume\costume_03s.jpg	2	-1	1	0	costume_03s.jpg	0	0	0	163.238336087161	163.288388737848	0.0500526506875758
204680	50	579	0	0	koala	884	270	1	stimuli\koala\koala_09s.jpg	8	-1	1	0	koala_09s.jpg	0	0	0	163.338427491384	163.388358968696	0.0499314773114747
204780	50	580	0	0	checkbook	310	271	1	stimuli\checkbook\checkbook_07s.jpg	6	-1	1	0	checkbook_07s.jpg	0	0	0	163.438392114607	163.488346510021	0.0499543954138062
204880	50	581	0	0	alpaca	15	272	1	stimuli\alpaca\alpaca_03s.jpg	2	-1	1	0	alpaca_03s.jpg	0	0	0	163.538392821662	163.588336245637	0.0499434239754919
204980	50	582	0	0	cream	436	273	1	stimuli\cream\cream_05s.jpg	4	-1	1	0	cream_05s.jpg	0	0	0	163.638306244866	163.688353044119	0.0500467992533231
205080	50	583	0	0	prune	1244	274	1	stimuli\prune\prune_06s.jpg	5	-1	1	0	prune_06s.jpg	0	0	0	163.738382776704	163.788363503554	0.0499807268497534
205180	50	584	0	0	pool_table	1222	275	1	stimuli\pool_table\pool_table_05s.jpg	4	-1	1	0	pool_table_05s.jpg	0	0	0	163.838376657084	163.888368111555	0.0499914544707281
205280	50	585	0	0	sticker	1553	276	1	stimuli\sticker\sticker_10s.jpg	9	-1	1	0	sticker_10s.jpg	0	0	0	163.938401745094	163.988477557687	0.050075812592695
205380	50	586	0	0	stopwatch	1562	277	1	stimuli\stopwatch\stopwatch_12s.jpg	11	-1	1	0	stopwatch_12s.jpg	0	0	0	164.038433172151	164.088346851357	0.0499136792059289
205480	50	587	0	0	school_bus	1378	278	1	stimuli\school_bus\school_bus_08s.jpg	7	-1	1	0	school_bus_08s.jpg	0	0	0	164.138375852512	164.188329760305	0.0499539077936788
205580	50	588	0	0	breakfast	197	279	1	stimuli\breakfast\breakfast_02s.jpg	1	-1	1	0	breakfast_02s.jpg	0	0	0	164.238316338582	164.288377034987	0.0500606964051258
205680	50	589	0	0	mushroom	1040	280	1	stimuli\mushroom\mushroom_06n.jpg	5	-1	1	0	mushroom_06n.jpg	0	0	0	164.338330698971	164.388362625839	0.0500319268685416
205780	50	590	0	0	turnstile	1734	281	1	stimuli\turnstile\turnstile_03s.jpg	2	-1	1	0	turnstile_03s.jpg	0	0	0	164.438389676514	164.488374060507	0.0499843839934329
205880	50	591	0	0	stool	1561	282	1	stimuli\stool\stool_01b.jpg	0	-1	1	0	stool_01b.jpg	0	0	0	164.538335282588	164.588304062767	0.0499687801784603
205980	50	592	0	0	dessert	481	283	1	stimuli\dessert\dessert_07s.jpg	6	-1	1	0	dessert_07s.jpg	0	0	0	164.638349642977	164.688334026971	0.0499843839934329
206095	50	593	0	0	ice	816	284	1	stimuli\ice\ice_06s.jpg	5	-1	1	0	ice_06s.jpg	0	0	0	164.753182751636	164.805031791555	0.0518490399190341
206197	50	594	0	0	espresso	560	285	1	stimuli\espresso\espresso_06s.jpg	5	-1	1	0	espresso_06s.jpg	0	0	0	164.855071032711	164.905048102417	0.049977069706074
206297	50	595	0	0	apple_tree	31	286	1	stimuli\apple_tree\apple_tree_07s.jpg	6	-1	1	0	apple_tree_07s.jpg	0	0	0	164.954985187345	165.005105129487	0.050119942141464
206397	50	596	0	0	locket	942	287	1	stimuli\locket\locket_09s.jpg	8	-1	1	0	locket_09s.jpg	0	0	0	165.055130717301	165.105047322228	0.0499166049266933
206497	50	597	0	0	wineglass	1826	288	1	stimuli\wineglass\wineglass_06s.jpg	5	-1	1	0	wineglass_06s.jpg	0	0	0	165.15501902812	165.205052174038	0.0500331459188601
206597	50	598	0	0	gargoyle	657	289	1	stimuli\gargoyle\gargoyle_07s.jpg	6	-1	1	0	gargoyle_07s.jpg	0	0	0	165.255078005663	165.305073848715	0.0499958430518745
206697	50	599	0	0	footrest	633	290	1	stimuli\footrest\footrest_09s.jpg	8	-1	1	0	footrest_09s.jpg	0	0	0	165.355087246047	165.405059439567	0.049972193519352
206797	50	600	0	0	freezer	640	291	1	stimuli\freezer\freezer_02s.jpg	1	-1	1	0	freezer_02s.jpg	0	0	0	165.455076737853	165.505063559947	0.0499868220940698
206897	50	601	0	0	goalpost	683	292	1	stimuli\goalpost\goalpost_09s.jpg	8	-1	1	0	goalpost_09s.jpg	0	0	0	165.55503624108	165.605064266994	0.0500280259147985
206997	50	602	0	0	donut	505	293	1	stimuli\donut\donut_03s.jpg	2	-1	1	0	donut_03s.jpg	0	0	0	165.655091805289	165.705063023568	0.0499712182790972
207097	50	603	0	0	safety_pin	1344	294	1	stimuli\safety_pin\safety_pin_07s.jpg	6	-1	1	0	safety_pin_07s.jpg	0	0	0	165.755166874267	165.805233422107	0.0500665478393785
207197	50	604	0	0	basketball	83	295	1	stimuli\basketball\basketball_10s.jpg	9	-1	1	0	basketball_10s.jpg	0	0	0	165.85521756229	165.905185123418	0.0499675611281418
207297	50	605	0	0	scale	1371	296	1	stimuli\scale\scale_04s.jpg	3	-1	1	0	scale_04s.jpg	0	0	0	165.955194132184	166.005221670479	0.0500275382946711
207397	50	606	0	0	fencepost	576	297	1	stimuli\fencepost\fencepost_03s.jpg	2	-1	1	0	fencepost_03s.jpg	0	0	0	166.055207273523	166.105193851799	0.0499865782767301
207497	50	607	0	0	shower_cap	1434	298	1	stimuli\shower_cap\shower_cap_11s.jpg	10	-1	1	0	shower_cap_11s.jpg	0	0	0	166.155280392028	166.205082894048	0.0498025020206114
207597	50	608	0	0	duckling	526	299	1	stimuli\duckling\duckling_06s.jpg	5	-1	1	0	duckling_06s.jpg	0	0	0	166.255124573305	166.305002656307	0.0498780830021133
207697	50	609	0	0	gauge	663	300	1	stimuli\gauge\gauge_08s.jpg	7	-1	1	0	gauge_08s.jpg	0	0	0	166.355028000311	166.405098692914	0.0500706926031853
207797	50	610	0	0	groundhog	718	301	1	stimuli\groundhog\groundhog_08s.jpg	7	-1	1	0	groundhog_08s.jpg	0	0	0	166.455092829288	166.505096961861	0.0500041325722123
207897	50	611	0	0	camera1	246	302	1	stimuli\camera1\camera1_11s.jpg	10	-1	1	0	camera1_11s.jpg	0	0	0	166.555209833525	166.605323924232	0.0501140907072113
207997	50	612	0	0	donkey	504	303	1	stimuli\donkey\donkey_04s.jpg	3	-1	1	0	donkey_04s.jpg	0	0	0	166.655222974863	166.705228570288	0.0500055954253185
208097	50	613	0	0	soda_fountain	1491	304	1	stimuli\soda_fountain\soda_fountain_05s.jpg	4	-1	1	0	soda_fountain_05s.jpg	0	0	0	166.755358996241	166.805116881107	0.049757884866267
208197	50	614	0	0	sarcophagus	1358	305	1	stimuli\sarcophagus\sarcophagus_01b.jpg	0	-1	1	0	sarcophagus_01b.jpg	0	0	0	166.855120769869	166.905101252909	0.0499804830396897
208297	50	615	0	0	torpedo	1684	306	1	stimuli\torpedo\torpedo_03s.jpg	2	-1	1	0	torpedo_03s.jpg	0	0	0	166.955112943586	167.005119026631	0.0500060830454458
208397	50	616	0	0	flatiron	613	307	1	stimuli\flatiron\flatiron_05s.jpg	4	-1	1	0	flatiron_05s.jpg	0	0	0	167.055086100147	167.105103886053	0.0500177859066753
208497	50	617	0	0	dolphin	502	308	1	stimuli\dolphin\dolphin_01b.jpg	0	-1	1	0	dolphin_01b.jpg	0	0	0	167.155135812922	167.205096547383	0.0499607344609103
218931	50	618	0	0	sauce	1362	0	2	stimuli\sauce\sauce_11s.jpg	10	-1	2	0	sauce_11s.jpg	0	0	0	177.588754135315	177.638785086943	0.0500309516282869
219031	50	619	0	0	hydrant	814	1	2	stimuli\hydrant\hydrant_02s.jpg	1	-1	2	0	hydrant_02s.jpg	0	0	0	177.688723634732	177.738779211133	0.0500555764010642
219131	50	620	0	0	nut	1066	2	2	stimuli\nut\nut_12s.jpg	11	-1	2	0	nut_12s.jpg	0	0	0	177.788731899876	177.838805030573	0.0500731306965463
219231	50	621	0	0	spinach	1515	3	2	stimuli\spinach\spinach_06s.jpg	5	-1	2	0	spinach_06s.jpg	0	0	0	177.888808675525	177.938749417597	0.0499407420720672
219331	50	622	0	0	film	586	4	2	stimuli\film\film_08s.jpg	7	-1	2	0	film_08s.jpg	0	0	0	177.988765740651	178.038779625611	0.0500138849602081
219431	50	623	0	0	mustache	1043	5	2	stimuli\mustache\mustache_01b.jpg	0	-1	2	0	mustache_01b.jpg	0	0	0	178.088726219117	178.138785452662	0.0500592335447436
219531	50	624	0	0	bib	122	6	2	stimuli\bib\bib_08s.jpg	7	-1	2	0	bib_08s.jpg	0	0	0	178.188724000443	178.238684734912	0.0499607344681863
219631	50	625	0	0	wedge	1801	7	2	stimuli\wedge\wedge_10s.jpg	9	-1	2	0	wedge_10s.jpg	0	0	0	178.288701301768	178.338717868632	0.0500165668636328
219731	50	626	0	0	hockey_stick	783	8	2	stimuli\hockey_stick\hockey_stick_10s.jpg	9	-1	2	0	hockey_stick_10s.jpg	0	0	0	178.388765155512	178.438671276621	0.0499061211085063
219831	50	627	0	0	puppy	1258	9	2	stimuli\puppy\puppy_01b.jpg	0	-1	2	0	puppy_01b.jpg	0	0	0	178.488769763513	178.538676128432	0.04990636491857
219931	50	628	0	0	seatbelt	1399	10	2	stimuli\seatbelt\seatbelt_07s.jpg	6	-1	2	0	seatbelt_07s.jpg	0	0	0	178.58876998294	178.638709993582	0.0499400106418761
220031	50	629	0	0	guinea_pig	722	11	2	stimuli\guinea_pig\guinea_pig_10s.jpg	9	-1	2	0	guinea_pig_10s.jpg	0	0	0	178.688712907111	178.738667790138	0.0499548830266576
220131	50	630	0	0	tape_recorder	1624	12	2	stimuli\tape_recorder\tape_recorder_02s.jpg	1	-1	2	0	tape_recorder_02s.jpg	0	0	0	178.78876627703	178.838817708674	0.0500514316445333
220231	50	631	0	0	garlic	658	13	2	stimuli\garlic\garlic_11s.jpg	10	-1	2	0	garlic_11s.jpg	0	0	0	178.888816233622	178.938728693778	0.0499124601556105
220331	50	632	0	0	gondola	691	14	2	stimuli\gondola\gondola_07s.jpg	6	-1	2	0	gondola_07s.jpg	0	0	0	178.988861801641	179.038923717089	0.0500619154481683
220431	50	633	0	0	handprint	750	15	2	stimuli\handprint\handprint_10s.jpg	9	-1	2	0	handprint_10s.jpg	0	0	0	179.088956375388	179.138904187937	0.0499478125493624
220531	50	634	0	0	kneepad	878	16	2	stimuli\kneepad\kneepad_02s.jpg	1	-1	2	0	kneepad_02s.jpg	0	0	0	179.188883939554	179.238916110233	0.0500321706786053
220631	50	635	0	0	nail_file	1048	17	2	stimuli\nail_file\nail_file_10s.jpg	9	-1	2	0	nail_file_10s.jpg	0	0	0	179.288899031366	179.338929982994	0.0500309516282869
220731	50	636	0	0	fondue	626	18	2	stimuli\fondue\fondue_11n.jpg	10	-1	2	0	fondue_11n.jpg	0	0	0	179.388867799353	179.438975063393	0.0501072640399798
220831	50	637	0	0	sickle	1441	19	2	stimuli\sickle\sickle_12s.jpg	11	-1	2	0	sickle_12s.jpg	0	0	0	179.488889474029	179.538805347525	0.0499158734965022
220931	50	638	0	0	button1	230	20	2	stimuli\button1\button1_07s.jpg	6	-1	2	0	button1_07s.jpg	0	0	0	179.58901988779	179.639024995602	0.050005107812467
221031	50	639	0	0	comic_book	391	21	2	stimuli\comic_book\comic_book_12s.jpg	11	-1	2	0	comic_book_12s.jpg	0	0	0	179.689020838647	179.738929397856	0.0499085592091433
221131	50	640	0	0	bracket	189	22	2	stimuli\bracket\bracket_12s.jpg	11	-1	2	0	bracket_12s.jpg	0	0	0	179.788898909464	179.838877929644	0.0499790201793076
221231	50	641	0	0	poker	1210	23	2	stimuli\poker\poker_08s.jpg	7	-1	2	0	poker_08s.jpg	0	0	0	179.888892302224	179.93880622524	0.0499139230159926
221331	50	642	0	0	caramel	270	24	2	stimuli\caramel\caramel_06s.jpg	5	-1	2	0	caramel_06s.jpg	0	0	0	179.988954449291	180.038797911329	0.0498434620385524
221431	50	643	0	0	knee	877	25	2	stimuli\knee\knee_08s.jpg	7	-1	2	0	knee_08s.jpg	0	0	0	180.088997823026	180.138901018414	0.049903195387742
221531	50	644	0	0	peanut	1131	26	2	stimuli\peanut\peanut_11n.jpg	10	-1	2	0	peanut_11n.jpg	0	0	0	180.188898080509	180.238949999766	0.0500519192573847
221631	50	645	0	0	stamp1	1535	27	2	stimuli\stamp1\stamp1_11s.jpg	10	-1	2	0	stamp1_11s.jpg	0	0	0	180.288955107579	180.339019948748	0.0500648411689326
221731	50	646	0	0	penguin	1145	28	2	stimuli\penguin\penguin_11s.jpg	10	-1	2	0	penguin_11s.jpg	0	0	0	180.389045292752	180.438877295739	0.0498320029873867
221831	50	647	0	0	cannon	260	29	2	stimuli\cannon\cannon_10n.jpg	9	-1	2	0	cannon_10n.jpg	0	0	0	180.48893238452	180.538943343767	0.0500109592467197
221931	50	648	0	0	cork	409	30	2	stimuli\cork\cork_06s.jpg	5	-1	2	0	cork_06s.jpg	0	0	0	180.588923095376	180.639044256561	0.0501211611845065
222031	50	649	0	0	chili	327	31	2	stimuli\chili\chili_04s.jpg	3	-1	2	0	chili_04s.jpg	0	0	0	180.688811406195	180.738730936828	0.0499195306329057
222131	50	650	0	0	crow	446	32	2	stimuli\crow\crow_02s.jpg	1	-1	2	0	crow_02s.jpg	0	0	0	180.788795046567	180.83874871055	0.0499536639836151
222231	50	651	0	0	spring_roll	1521	33	2	stimuli\spring_roll\spring_roll_12s.jpg	11	-1	2	0	spring_roll_12s.jpg	0	0	0	180.88882379172	180.938824510959	0.0500007192385965
222331	50	652	0	0	ottoman	1086	34	2	stimuli\ottoman\ottoman_10s.jpg	9	-1	2	0	ottoman_10s.jpg	0	0	0	180.988819622573	181.038903724701	0.0500841021275846
222431	50	653	0	0	doorhandle	508	35	2	stimuli\doorhandle\doorhandle_03s.jpg	2	-1	2	0	doorhandle_03s.jpg	0	0	0	181.088902249656	181.138891753653	0.0499895039974945
222531	50	654	0	0	corset	418	36	2	stimuli\corset\corset_01b.jpg	0	-1	2	0	corset_01b.jpg	0	0	0	181.188938552907	181.238900262608	0.0499617097011651
222631	50	655	0	0	wolf	1831	37	2	stimuli\wolf\wolf_06n.jpg	5	-1	2	0	wolf_06n.jpg	0	0	0	181.28890366375	181.338890729647	0.0499870658968575
