onset	duration	eventnumber	blocksequencenumber	isteststim	object	objectnumber	presentationnumber	sequencenumber	stim	stimnumber	teststimnumber	withinsequencenumber	istarget	stimname	response	rt	correct	time_stimon	time_stimoff	stimdur
102264	50	0	0	0	cracker	429	0	0	stimuli\cracker\cracker_05s.jpg	4	-1	0	0	cracker_05s.jpg	1	0	0	159.935079626972	159.98503936184	0.0499597348680254
102364	50	1	0	0	dumbwaiter	531	1	0	stimuli\dumbwaiter\dumbwaiter_05s.jpg	4	-1	0	0	dumbwaiter_05s.jpg	0	0	0	160.035065412871	160.085058793455	0.0499933805840556
102464	50	2	0	0	honeycomb	789	2	0	stimuli\honeycomb\honeycomb_07n.jpg	6	-1	0	0	honeycomb_07n.jpg	0	0	0	160.135073385463	160.185053844121	0.0499804586579558
102564	50	3	0	0	badger	53	3	0	stimuli\badger\badger_03s.jpg	2	-1	0	0	badger_03s.jpg	0	0	0	160.235079407546	160.285044750024	0.0499653424776625
102664	50	4	0	0	cooker	399	4	0	stimuli\cooker\cooker_04s.jpg	3	-1	0	0	cooker_04s.jpg	0	0	0	160.335064462037	160.385046139738	0.0499816777009983
102764	50	5	0	0	crumb	451	5	0	stimuli\crumb\crumb_08s.jpg	7	-1	0	0	crumb_08s.jpg	0	0	0	160.435065607919	160.485697037948	0.0506314300291706
102864	50	6	0	0	hula_hoop	810	6	0	stimuli\hula_hoop\hula_hoop_12s.jpg	11	-1	0	0	hula_hoop_12s.jpg	0	0	0	160.535069191916	160.585050382011	0.0499811900954228
102964	50	7	0	0	sofa_bed	1492	7	0	stimuli\sofa_bed\sofa_bed_11s.jpg	10	-1	0	0	sofa_bed_11s.jpg	0	0	0	160.635069850221	160.685057379364	0.0499875291425269
103064	50	8	0	0	peppermint	1152	8	0	stimuli\peppermint\peppermint_06s.jpg	5	-1	0	0	peppermint_06s.jpg	0	0	0	160.735078066587	160.785057306202	0.0499792396149132
103164	50	9	0	0	airplane	10	9	0	stimuli\airplane\airplane_01b.jpg	0	-1	0	0	airplane_01b.jpg	0	0	0	160.835075311537	160.885059427354	0.0499841158161871
103264	50	10	0	0	rocking_horse	1322	10	0	stimuli\rocking_horse\rocking_horse_06s.jpg	5	-1	0	0	rocking_horse_06s.jpg	0	0	0	160.935079139366	160.985062523745	0.0499833843787201
103364	50	11	0	0	tee	1636	11	0	stimuli\tee\tee_01b.jpg	0	-1	0	0	tee_01b.jpg	0	0	0	161.035081016686	161.085066107742	0.0499850910564419
103464	50	12	0	0	drink	521	12	0	stimuli\drink\drink_07s.jpg	6	-1	0	0	drink_07s.jpg	0	0	0	161.135086794966	161.185068472696	0.0499816777301021
103564	50	13	0	0	scrabble	1385	13	0	stimuli\scrabble\scrabble_07s.jpg	6	-1	0	0	scrabble_07s.jpg	1	0	0	161.23508915992	161.285071081453	0.0499819215328898
103664	50	14	0	0	gutter	729	14	0	stimuli\gutter\gutter_08s.jpg	7	-1	0	0	gutter_08s.jpg	0	0	0	161.335089330591	161.385071739729	0.0499824091384653
103764	50	15	0	0	ski_lift	1454	15	0	stimuli\ski_lift\ski_lift_10s.jpg	9	-1	0	0	ski_lift_10s.jpg	0	0	0	161.435091451742	161.485078005644	0.0499865539022721
103864	50	16	0	0	clove	365	16	0	stimuli\clove\clove_08s.jpg	7	-1	0	0	clove_08s.jpg	0	0	0	161.535124049056	161.585078176315	0.0499541272583883
103964	50	17	0	0	toe	1668	17	0	stimuli\toe\toe_09s.jpg	8	-1	0	0	toe_09s.jpg	0	0	0	161.635099351173	161.685082004115	0.049982652941253
104064	50	18	0	0	bagel	55	18	0	stimuli\bagel\bagel_01s.jpg	0	-1	0	0	bagel_01s.jpg	0	0	0	161.735101228493	161.785082174785	0.0499809462926351
104164	50	19	0	0	fishhook	602	19	0	stimuli\fishhook\fishhook_02s.jpg	1	-1	0	0	fishhook_02s.jpg	0	0	0	161.835118709627	161.885071130208	0.0499524205806665
104264	50	20	0	0	scoop	1381	20	0	stimuli\scoop\scoop_08s.jpg	7	-1	0	0	scoop_08s.jpg	0	0	0	161.935132533632	161.985097388504	0.049964854872087
104364	50	21	0	0	wheelbarrow	1807	21	0	stimuli\wheelbarrow\wheelbarrow_06s.jpg	5	-1	0	0	wheelbarrow_06s.jpg	0	0	0	162.035131241457	162.0850960963	0.0499648548429832
104464	50	22	0	0	turntable	1735	22	0	stimuli\turntable\turntable_09s.jpg	8	-1	0	0	turntable_09s.jpg	0	0	0	162.135124097811	162.185106750781	0.0499826529703569
104564	50	23	0	0	boa	150	23	0	stimuli\boa\boa_08s.jpg	7	-1	0	0	boa_08s.jpg	0	0	0	162.235127438005	162.285110090976	0.0499826529703569
104664	50	24	0	0	handprint	750	24	0	stimuli\handprint\handprint_04s.jpg	3	-1	0	0	handprint_04s.jpg	0	0	0	162.335148332495	162.385109286406	0.0499609539110679
104764	50	25	0	0	aluminum_foil	17	25	0	stimuli\aluminum_foil\aluminum_foil_02s.jpg	1	-1	0	0	aluminum_foil_02s.jpg	0	0	0	162.435134849831	162.485112382768	0.0499775329371914
104864	50	26	0	0	bungee	221	26	0	stimuli\bungee\bungee_03s.jpg	2	-1	0	0	bungee_03s.jpg	0	0	0	162.535139165266	162.585120599164	0.0499814338982105
104964	50	27	0	0	kettle	868	27	0	stimuli\kettle\kettle_01b.jpg	0	-1	0	0	kettle_01b.jpg	0	0	0	162.635139579739	162.685121501243	0.049981921503786
105064	50	28	0	0	green_beans	712	28	0	stimuli\green_beans\green_beans_10s.jpg	9	-1	0	0	green_beans_10s.jpg	0	0	0	162.735143407539	162.785121184308	0.049977776769083
105164	50	29	0	0	kazoo	864	29	0	stimuli\kazoo\kazoo_05s.jpg	4	-1	0	0	kazoo_05s.jpg	0	0	0	162.83514650393	162.885127694026	0.0499811900954228
105264	50	30	0	0	tamale	1618	30	0	stimuli\tamale\tamale_09s.jpg	8	-1	0	0	tamale_09s.jpg	0	0	0	162.935153501254	162.985125182779	0.0499716815247666
105364	50	31	0	0	star_fruit	1540	31	0	stimuli\star_fruit\star_fruit_07s.jpg	6	-1	0	0	star_fruit_07s.jpg	0	0	0	163.03514757668	163.085106580111	0.0499590034305584
105464	50	32	0	0	breathalyzer	198	32	0	stimuli\breathalyzer\breathalyzer_09s.jpg	8	-1	0	0	breathalyzer_09s.jpg	0	0	0	163.135155061638	163.185133813648	0.0499787520093378
105564	50	33	0	0	wallet	1776	33	0	stimuli\wallet\wallet_09s.jpg	8	-1	0	0	wallet_09s.jpg	0	0	0	163.235154744674	163.285139104293	0.0499843596189748
105664	50	34	0	0	hot-water_bottle	802	34	0	stimuli\hot-water_bottle\hot-water_bottle_01s.jpg	0	-1	0	0	hot-water_bottle_01s.jpg	0	0	0	163.335155890585	163.385141956882	0.0499860662966967
105764	50	35	0	0	napkin_ring	1051	35	0	stimuli\napkin_ring\napkin_ring_03s.jpg	2	-1	0	0	napkin_ring_03s.jpg	0	0	0	163.435160449822	163.485142371355	0.0499819215328898
105864	50	36	0	0	pistachio	1188	36	0	stimuli\pistachio\pistachio_11s.jpg	10	-1	0	0	pistachio_11s.jpg	0	0	0	163.535160132858	163.585112553439	0.0499524205806665
105964	50	37	0	0	flatiron	613	37	0	stimuli\flatiron\flatiron_07s.jpg	6	-1	0	0	flatiron_07s.jpg	0	0	0	163.635164692096	163.685148564109	0.0499838720133994
106064	50	38	0	0	egg	546	38	0	stimuli\egg\egg_07s.jpg	6	-1	0	0	egg_07s.jpg	1	0	0	163.73516803229	163.785150197626	0.0499821653356776
106164	50	39	0	0	sling	1466	39	0	stimuli\sling\sling_09s.jpg	8	-1	0	0	sling_09s.jpg	0	0	0	163.835173322965	163.885152074974	0.0499787520093378
106264	50	40	0	0	blanket	136	40	0	stimuli\blanket\blanket_08s.jpg	7	-1	0	0	blanket_08s.jpg	0	0	0	163.935170811717	163.985152001813	0.0499811900954228
106364	50	41	0	0	locket	942	41	0	stimuli\locket\locket_11s.jpg	10	-1	0	0	locket_11s.jpg	0	0	0	164.035175127152	164.085158267728	0.0499831405759323
106464	50	42	0	0	knob	882	42	0	stimuli\knob\knob_05s.jpg	4	-1	0	0	knob_05s.jpg	0	0	0	164.135186025436	164.185170141252	0.0499841158161871
106564	50	43	0	0	duct	527	43	0	stimuli\duct\duct_11s.jpg	10	-1	0	0	duct_11s.jpg	0	0	0	164.235179125622	164.285161047155	0.0499819215328898
106664	50	44	0	0	pinecone	1183	44	0	stimuli\pinecone\pinecone_08s.jpg	7	-1	0	0	pinecone_08s.jpg	0	0	0	164.335187098186	164.385167069238	0.0499799710523803
106764	50	45	0	0	garbage_truck	656	45	0	stimuli\garbage_truck\garbage_truck_09s.jpg	8	-1	0	0	garbage_truck_09s.jpg	0	0	0	164.43518946314	164.48516919039	0.0499797272495925
106864	50	46	0	0	pet_food	1157	46	0	stimuli\pet_food\pet_food_12s.jpg	11	-1	0	0	pet_food_12s.jpg	0	0	0	164.535189146205	164.585170823906	0.0499816777009983
106964	50	47	0	0	abacus	1	47	0	stimuli\abacus\abacus_02s.jpg	1	-1	0	0	abacus_02s.jpg	0	0	0	164.635192974005	164.685170506971	0.0499775329662953
107064	50	48	0	0	snowmobile	1483	48	0	stimuli\snowmobile\snowmobile_04s.jpg	3	-1	0	0	snowmobile_04s.jpg	0	0	0	164.735192169435	164.785178235732	0.0499860662966967
107164	50	49	0	0	skewer	1451	49	0	stimuli\skewer\skewer_05s.jpg	4	-1	0	0	skewer_05s.jpg	0	0	0	164.835202092479	164.885186695901	0.0499846034217626
107264	50	50	0	0	waffle	1770	50	0	stimuli\waffle\waffle_01b.jpg	0	-1	0	0	waffle_01b.jpg	0	0	0	164.935202019347	164.985181015159	0.0499789958121255
107364	50	51	0	0	baton2	93	51	0	stimuli\baton2\baton2_11s.jpg	10	-1	0	0	baton2_11s.jpg	0	0	0	165.035206334782	165.085183623916	0.0499772891344037
107464	50	52	0	0	rose	1334	52	0	stimuli\rose\rose_04s.jpg	3	-1	0	0	rose_04s.jpg	0	0	0	165.135205042578	165.185184769827	0.0499797272495925
107564	50	53	0	0	coin	385	53	0	stimuli\coin\coin_05s.jpg	4	-1	0	0	coin_05s.jpg	0	0	0	165.235207407532	165.285192986194	0.0499855786620174
107664	50	54	0	0	rack2	1269	54	0	stimuli\rack2\rack2_07s.jpg	6	-1	0	0	rack2_07s.jpg	0	0	0	165.335211722966	165.385195351148	0.0499836281815078
107764	50	55	0	0	webcam	1799	55	0	stimuli\webcam\webcam_08s.jpg	7	-1	0	0	webcam_08s.jpg	0	0	0	165.435217013612	165.485194058972	0.0499770453607198
107864	50	56	0	0	mattress	985	56	0	stimuli\mattress\mattress_05s.jpg	4	-1	0	0	mattress_05s.jpg	0	0	0	165.535215965239	165.585196911532	0.0499809462926351
107964	50	57	0	0	racehorse	1267	57	0	stimuli\racehorse\racehorse_02s.jpg	1	-1	0	0	racehorse_02s.jpg	0	0	0	165.635218817828	165.685200739332	0.049981921503786
108064	50	58	0	0	windsock	1822	58	0	stimuli\windsock\windsock_07s.jpg	6	-1	0	0	windsock_07s.jpg	0	0	0	165.735220207542	165.785203348089	0.0499831405468285
108164	50	59	0	0	recorder	1297	59	0	stimuli\recorder\recorder_04s.jpg	3	-1	0	0	recorder_04s.jpg	0	0	0	165.835222328664	165.885206932115	0.0499846034508664
108264	50	60	0	0	hip	780	60	0	stimuli\hip\hip_03s.jpg	2	-1	0	0	hip_03s.jpg	0	0	0	165.935227375536	165.985191742773	0.0499643672374077
108364	50	61	0	0	telescope	1640	61	0	stimuli\telescope\telescope_06s.jpg	5	-1	0	0	telescope_06s.jpg	0	0	0	166.035216087155	166.085189231526	0.0499731443705969
108464	50	62	0	0	french_fries	641	62	0	stimuli\french_fries\french_fries_01b.jpg	0	-1	0	0	french_fries_01b.jpg	0	0	0	166.135206017818	166.185202324094	0.0499963062757161
108564	50	63	0	0	tick	1656	63	0	stimuli\tick\tick_03s.jpg	2	-1	0	0	tick_03s.jpg	0	0	0	166.235208870377	166.285223706189	0.0500148358114529
108664	50	64	0	0	ferret	578	64	0	stimuli\ferret\ferret_01b.jpg	0	-1	0	0	ferret_01b.jpg	0	0	0	166.335244881047	166.385228509229	0.0499836281815078
108764	50	65	0	0	hook1	793	65	0	stimuli\hook1\hook1_10s.jpg	9	-1	0	0	hook1_10s.jpg	0	0	0	166.435249196482	166.485213076114	0.0499638796318322
108864	50	66	0	0	router	1336	66	0	stimuli\router\router_09s.jpg	8	-1	0	0	router_09s.jpg	0	0	0	166.535251073801	166.585226656287	0.0499755824857857
108964	50	67	0	0	groundhog	718	67	0	stimuli\groundhog\groundhog_11s.jpg	10	-1	0	0	groundhog_11s.jpg	0	0	0	166.635249537823	166.685214636469	0.0499650986457709
109064	50	68	0	0	mask	980	68	0	stimuli\mask\mask_02s.jpg	1	-1	0	0	mask_02s.jpg	0	0	0	166.735251902748	166.785233336675	0.0499814339273144
109164	50	69	0	0	cart	278	69	0	stimuli\cart\cart_12s.jpg	11	-1	0	0	cart_12s.jpg	0	0	0	166.835283524852	166.885237895913	0.0499543710611761
109264	50	70	0	0	ottoman	1086	70	0	stimuli\ottoman\ottoman_03s.jpg	2	-1	0	0	ottoman_03s.jpg	0	0	0	166.935261021223	166.985237091343	0.049976070120465
109364	50	71	0	0	koala	884	71	0	stimuli\koala\koala_08s.jpg	7	-1	0	0	koala_08s.jpg	0	0	0	167.03525997285	167.085242138186	0.0499821653356776
109464	50	72	0	0	blouse	144	72	0	stimuli\blouse\blouse_01b.jpg	0	-1	0	0	blouse_01b.jpg	0	0	0	167.135267457808	167.185248404101	0.0499809462926351
109564	50	73	0	0	cleat	353	73	0	stimuli\cleat\cleat_03s.jpg	2	-1	0	0	cleat_03s.jpg	0	0	0	167.235248123703	167.285248087137	0.0499999634339474
109664	50	74	0	0	flan	609	74	0	stimuli\flan\flan_05s.jpg	4	-1	0	0	flan_05s.jpg	0	0	0	167.335267311515	167.385251671134	0.0499843596189748
109764	50	75	0	0	screw	1390	75	0	stimuli\screw\screw_03s.jpg	2	-1	0	0	screw_03s.jpg	0	0	0	167.435277478391	167.485251841805	0.0499743634136394
109864	50	76	0	0	statue	1543	76	0	stimuli\statue\statue_05s.jpg	4	-1	0	0	statue_05s.jpg	0	0	0	167.53527838047	167.585237383901	0.0499590034305584
109964	50	77	0	0	fire	590	77	0	stimuli\fire\fire_05s.jpg	4	-1	0	0	fire_05s.jpg	0	0	0	167.635246612102	167.685230484087	0.0499838719842955
110064	50	78	0	0	detonator	482	78	0	stimuli\detonator\detonator_01s.jpg	0	-1	0	0	detonator_01s.jpg	0	0	0	167.73525117134	167.785233092873	0.0499819215328898
110164	50	79	0	0	tape_measure	1623	79	0	stimuli\tape_measure\tape_measure_05s.jpg	4	-1	0	0	tape_measure_05s.jpg	0	0	0	167.835251585813	167.885234482586	0.0499828967731446
110264	50	80	0	0	shelf	1416	80	0	stimuli\shelf\shelf_06s.jpg	5	-1	0	0	shelf_06s.jpg	0	0	0	167.935256632656	167.985237822752	0.0499811900954228
110364	50	81	0	0	soccer_ball	1488	81	0	stimuli\soccer_ball\soccer_ball_10s.jpg	9	-1	0	0	soccer_ball_10s.jpg	0	0	0	168.035277527146	168.085257742001	0.049980214855168
110464	50	82	0	0	shorts	1430	82	0	stimuli\shorts\shorts_08s.jpg	7	-1	0	0	shorts_08s.jpg	0	0	0	168.13528086734	168.185264495522	0.0499836281815078
110564	50	83	0	0	tuba	1723	83	0	stimuli\tuba\tuba_09s.jpg	8	-1	0	0	tuba_09s.jpg	0	0	0	168.235262752278	168.285246868094	0.0499841158161871
110664	50	84	0	0	broom	203	84	0	stimuli\broom\broom_12s.jpg	11	-1	0	0	broom_12s.jpg	0	0	0	168.335295593424	168.385274833039	0.0499792396149132
110764	50	85	0	0	humvee	813	85	0	stimuli\humvee\humvee_12s.jpg	11	-1	0	0	humvee_12s.jpg	0	0	0	168.4352962517	168.48527695419	0.0499807024898473
110864	50	86	0	0	ticktacktoe	1657	86	0	stimuli\ticktacktoe\ticktacktoe_06s.jpg	5	-1	0	0	ticktacktoe_06s.jpg	0	0	0	168.535285450955	168.58528078199	0.0499953310354613
110964	50	87	0	0	space_shuttle	1501	87	0	stimuli\space_shuttle\space_shuttle_10s.jpg	9	-1	0	0	space_shuttle_10s.jpg	0	0	0	168.635302688286	168.685288998386	0.0499863100994844
111064	50	88	0	0	manhole	967	88	0	stimuli\manhole\manhole_04n.jpg	3	-1	0	0	manhole_04n.jpg	0	0	0	168.735276771331	168.78526015571	0.0499833843787201
111164	50	89	0	0	napkin	1050	89	0	stimuli\napkin\napkin_12s.jpg	11	-1	0	0	napkin_12s.jpg	0	0	0	168.835282793414	168.885262520664	0.0499797272495925
111264	50	90	0	0	bowtie	180	90	0	stimuli\bowtie\bowtie_05s.jpg	4	-1	0	0	bowtie_05s.jpg	0	0	0	168.935282720282	168.985276100866	0.0499933805840556
111364	50	91	0	0	juice	854	91	0	stimuli\juice\juice_09s.jpg	8	-1	0	0	juice_09s.jpg	0	0	0	169.035301420459	169.085294313438	0.0499928929784801
111464	50	92	0	0	bank	69	92	0	stimuli\bank\bank_10s.jpg	9	-1	0	0	bank_10s.jpg	0	0	0	169.135316463507	169.185272785049	0.0499563215416856
111564	50	93	0	0	apron	33	93	0	stimuli\apron\apron_11s.jpg	10	-1	0	0	apron_11s.jpg	0	0	0	169.235290546552	169.285273199523	0.0499826529703569
111664	50	94	0	0	snowboard	1481	94	0	stimuli\snowboard\snowboard_06s.jpg	5	-1	0	0	snowboard_06s.jpg	0	0	0	169.335311928648	169.385294581618	0.0499826529703569
111764	50	95	0	0	solar_panel	1493	95	0	stimuli\solar_panel\solar_panel_03s.jpg	2	-1	0	0	solar_panel_03s.jpg	0	0	0	169.435314049799	169.485297190375	0.0499831405759323
111864	50	96	0	0	saucer	1363	96	0	stimuli\saucer\saucer_01b.jpg	0	-1	0	0	saucer_01b.jpg	0	0	0	169.535321290954	169.585299799131	0.0499785081774462
111964	50	97	0	0	juicer2	856	97	0	stimuli\juicer2\juicer2_06s.jpg	5	-1	0	0	juicer2_06s.jpg	0	0	0	169.635323899711	169.685302164085	0.0499782643746585
112064	50	98	0	0	airboat	8	98	0	stimuli\airboat\airboat_07s.jpg	6	-1	0	0	airboat_07s.jpg	0	0	0	169.73532675227	169.785304285237	0.0499775329662953
112164	50	99	0	0	printer	1240	99	0	stimuli\printer\printer_08s.jpg	7	-1	0	0	printer_08s.jpg	0	0	0	169.835329361027	169.885306893993	0.0499775329662953
112264	50	100	0	0	pine_needle	1180	100	0	stimuli\pine_needle\pine_needle_08s.jpg	7	-1	0	0	pine_needle_08s.jpg	0	0	0	169.935330263135	169.985292192287	0.0499619291513227
112364	50	101	0	0	poinsettia	1209	101	0	stimuli\poinsettia\poinsettia_03s.jpg	2	-1	0	0	poinsettia_03s.jpg	0	0	0	170.035310685227	170.085317962948	0.0500072777213063
112464	50	102	0	0	roof_rack	1329	102	0	stimuli\roof_rack\roof_rack_11s.jpg	10	-1	0	0	roof_rack_11s.jpg	0	0	0	170.135333774	170.185323497426	0.0499897234258242
112564	50	103	0	0	helicopter	775	103	0	stimuli\helicopter\helicopter_06s.jpg	5	-1	0	0	helicopter_06s.jpg	0	0	0	170.235345403693	170.285321473813	0.049976070120465
112664	50	104	0	0	shoe_polish	1424	104	0	stimuli\shoe_polish\shoe_polish_06s.jpg	5	-1	0	1	shoe_polish_06s.jpg	0	0	0	170.335342892475	170.385326033051	0.0499831405759323
112764	50	105	0	0	canister	259	105	0	stimuli\canister\canister_07s.jpg	6	-1	0	0	canister_07s.jpg	0	0	0	170.435345988837	170.485327178932	0.0499811900954228
112864	50	106	0	0	tongue	1675	106	0	stimuli\tongue\tongue_03s.jpg	2	-1	0	0	tongue_03s.jpg	0	0	0	170.535349085229	170.585308332462	0.0499592472333461
112964	50	107	0	0	sprinkler	1523	107	0	stimuli\sprinkler\sprinkler_03s.jpg	2	-1	0	0	sprinkler_03s.jpg	0	0	0	170.63532853208	170.68531020981	0.0499816777301021
113064	50	108	0	0	pedometer	1137	108	0	stimuli\pedometer\pedometer_10s.jpg	9	-1	0	0	pedometer_10s.jpg	0	0	0	170.73535040181	170.78532817855	0.0499777767399792
113164	50	109	0	0	rag	1276	109	0	stimuli\rag\rag_09s.jpg	8	-1	0	0	rag_09s.jpg	0	0	0	170.835362519138	170.885341027315	0.0499785081774462
113264	50	110	0	0	crutch	452	110	0	stimuli\crutch\crutch_10s.jpg	9	-1	0	0	crutch_10s.jpg	0	0	0	170.935365127894	170.985329007526	0.0499638796318322
113364	50	111	0	0	calf1	241	111	0	stimuli\calf1\calf1_05s.jpg	4	-1	0	0	calf1_05s.jpg	0	0	0	171.035349207144	171.085347707703	0.0499985005590133
113464	50	112	0	0	pantsuit	1109	112	0	stimuli\pantsuit\pantsuit_01b.jpg	0	-1	0	0	pantsuit_01b.jpg	0	0	0	171.135370589211	171.185350560263	0.0499799710523803
113564	50	113	0	0	lava	903	113	0	stimuli\lava\lava_08s.jpg	7	-1	0	0	lava_08s.jpg	0	0	0	171.235373929405	171.285336589994	0.0499626605887897
113664	50	114	0	0	roll	1323	114	0	stimuli\roll\roll_11s.jpg	10	-1	0	0	roll_11s.jpg	0	0	0	171.33537922008	171.385360653978	0.0499814338982105
113764	50	115	0	0	cornmeal	415	115	0	stimuli\cornmeal\cornmeal_08s.jpg	7	-1	0	0	cornmeal_08s.jpg	0	0	0	171.435361105046	171.485358874168	0.0499977691215463
113864	50	116	0	0	nightshirt	1058	116	0	stimuli\nightshirt\nightshirt_05s.jpg	4	-1	0	0	nightshirt_05s.jpg	0	0	0	171.535378829984	171.585363433405	0.0499846034217626
113964	50	117	0	0	terrarium	1644	117	0	stimuli\terrarium\terrarium_11s.jpg	10	-1	0	0	terrarium_11s.jpg	0	0	0	171.635385095899	171.685367017402	0.049981921503786
114064	50	118	0	0	toilet_paper	1671	118	0	stimuli\toilet_paper\toilet_paper_06s.jpg	5	-1	0	0	toilet_paper_06s.jpg	0	0	0	171.735388923698	171.785365725227	0.0499768015288282
114164	50	119	0	0	curry	464	119	0	stimuli\curry\curry_09s.jpg	8	-1	0	0	curry_09s.jpg	0	0	0	171.835389094369	171.885352974001	0.0499638796318322
114264	50	120	0	0	slot_machine	1470	120	0	stimuli\slot_machine\slot_machine_06s.jpg	5	-1	0	0	slot_machine_06s.jpg	0	0	0	171.93539121552	171.985374112264	0.0499828967440408
114364	50	121	0	0	diving_board	494	121	0	stimuli\diving_board\diving_board_08s.jpg	7	-1	0	0	diving_board_08s.jpg	0	0	0	172.03537236902	172.085350389621	0.0499780206009746
114464	50	122	0	0	car_door	268	122	0	stimuli\car_door\car_door_07s.jpg	6	-1	0	0	car_door_07s.jpg	0	0	0	172.135366932082	172.185371527885	0.0500045958033297
114564	50	123	0	0	pantyhose	1110	123	0	stimuli\pantyhose\pantyhose_10s.jpg	9	-1	0	0	pantyhose_10s.jpg	0	0	0	172.235371003713	172.285352681414	0.0499816777009983
114664	50	124	0	0	boxing_gloves	183	124	0	stimuli\boxing_gloves\boxing_gloves_04s.jpg	3	-1	0	0	boxing_gloves_04s.jpg	0	0	0	172.335361178179	172.385384791123	0.0500236129446421
114764	50	125	0	0	quiche	1262	125	0	stimuli\quiche\quiche_09s.jpg	8	-1	0	0	quiche_09s.jpg	0	0	0	172.435403040261	172.485368138936	0.0499650986748748
114864	50	126	0	0	sweatsuit	1593	126	0	stimuli\sweatsuit\sweatsuit_08s.jpg	7	-1	0	0	sweatsuit_08s.jpg	0	0	0	172.535390532837	172.58538659531	0.0499960624729283
114964	50	127	0	0	milk	1001	127	0	stimuli\milk\milk_11s.jpg	10	-1	0	0	milk_11s.jpg	0	0	0	172.635408501606	172.685399444075	0.0499909424688667
115064	50	128	0	0	glass	677	128	0	stimuli\glass\glass_01b.jpg	0	-1	0	0	glass_01b.jpg	0	0	0	172.735413304646	172.785394007136	0.0499807024898473
115164	50	129	0	0	mussel	1042	129	0	stimuli\mussel\mussel_04s.jpg	3	-1	0	0	mussel_04s.jpg	0	0	0	172.835397383897	172.885370528267	0.0499731443705969
115264	50	130	0	0	fence	575	130	0	stimuli\fence\fence_12s.jpg	11	-1	0	0	fence_12s.jpg	0	0	0	172.935387558362	172.98538605895	0.0499985005881172
115364	50	131	0	0	spinach	1515	131	0	stimuli\spinach\spinach_01b.jpg	0	-1	0	0	spinach_01b.jpg	0	0	0	173.035393336642	173.085373795329	0.0499804586870596
115464	50	132	0	0	crouton	445	132	0	stimuli\crouton\crouton_03s.jpg	2	-1	0	0	crouton_03s.jpg	0	0	0	173.135417400656	173.185379329807	0.0499619291513227
115564	50	133	0	0	trigger	1713	133	0	stimuli\trigger\trigger_12s.jpg	11	-1	0	0	trigger_12s.jpg	0	0	0	173.235398797988	173.285381207126	0.0499824091384653
115664	50	134	0	0	mouse1	1026	134	0	stimuli\mouse1\mouse1_10s.jpg	9	-1	0	0	mouse1_10s.jpg	0	0	0	173.335398968658	173.385383084475	0.0499841158161871
115764	50	135	0	0	collar	387	135	0	stimuli\collar\collar_12s.jpg	11	-1	0	0	collar_12s.jpg	0	0	0	173.435404259304	173.485394226562	0.0499899672577158
115864	50	136	0	0	teddy_bear	1635	136	0	stimuli\teddy_bear\teddy_bear_07s.jpg	6	-1	0	0	teddy_bear_07s.jpg	0	0	0	173.535416376661	173.585435601039	0.0500192243780475
115964	50	137	0	0	plaster_cast	1195	137	0	stimuli\plaster_cast\plaster_cast_09s.jpg	8	-1	0	0	plaster_cast_09s.jpg	0	0	0	173.635441415885	173.685417973611	0.0499765577260405
116064	50	138	0	0	celery	291	138	0	stimuli\celery\celery_02n.jpg	1	-1	0	0	celery_02n.jpg	0	0	0	173.735436954157	173.78541692521	0.0499799710523803
116164	50	139	0	0	coal	367	139	0	stimuli\coal\coal_10s.jpg	9	-1	0	0	coal_10s.jpg	0	0	0	173.835450778162	173.88542367873	0.0499729005678091
116264	50	140	0	0	clasp	351	140	0	stimuli\clasp\clasp_12s.jpg	11	-1	0	0	clasp_12s.jpg	0	0	0	173.935424373602	173.98540019989	0.0499758262885734
116364	50	141	0	0	hamburger	740	141	0	stimuli\hamburger\hamburger_10s.jpg	9	-1	0	0	hamburger_10s.jpg	0	0	0	174.035419911874	174.085401833407	0.0499819215328898
116464	50	142	0	0	garlic	658	142	0	stimuli\garlic\garlic_07s.jpg	6	-1	0	0	garlic_07s.jpg	0	0	0	174.135420570179	174.185403466923	0.0499828967440408
116564	50	143	0	0	filing_cabinet	585	143	0	stimuli\filing_cabinet\filing_cabinet_03s.jpg	2	-1	0	0	filing_cabinet_03s.jpg	0	0	0	174.235453167494	174.285427774739	0.0499746072455309
116664	50	144	0	0	clover	366	144	0	stimuli\clover\clover_03s.jpg	2	-1	0	0	clover_03s.jpg	0	0	0	174.335451143881	174.385436234938	0.0499850910564419
116764	50	145	0	0	basil	81	145	0	stimuli\basil\basil_12s.jpg	11	-1	0	0	basil_12s.jpg	0	0	0	174.435455215513	174.485437137017	0.049981921503786
116864	50	146	0	0	camera_lens	248	146	0	stimuli\camera_lens\camera_lens_08s.jpg	7	-1	0	0	camera_lens_08s.jpg	0	0	0	174.53545977475	174.585437795322	0.0499780205718707
116964	50	147	0	0	crank	432	147	0	stimuli\crank\crank_08s.jpg	7	-1	0	0	crank_08s.jpg	0	0	0	174.635459701589	174.685439185036	0.0499794834468048
117064	50	148	0	0	woman	1832	148	0	stimuli\woman\woman_10s.jpg	9	-1	0	0	woman_10s.jpg	0	0	0	174.735436954157	174.785422532848	0.0499855786911212
117164	50	149	0	0	birdbath	129	149	0	stimuli\birdbath\birdbath_07s.jpg	6	-1	0	0	birdbath_07s.jpg	0	0	0	174.83544395151	174.885424410168	0.0499804586579558
117264	50	150	0	0	crystal_ball	455	150	0	stimuli\crystal_ball\crystal_ball_12s.jpg	11	-1	0	0	crystal_ball_12s.jpg	0	0	0	174.93547045358	174.985450912267	0.0499804586870596
117364	50	151	0	0	bazooka	98	151	0	stimuli\bazooka\bazooka_06s.jpg	5	-1	0	0	bazooka_06s.jpg	0	0	0	175.035483546177	175.085458641028	0.0499750948511064
117464	50	152	0	0	buffet	211	152	0	stimuli\buffet\buffet_01b.jpg	0	-1	0	0	buffet_01b.jpg	0	0	0	175.135478596843	175.18544198884	0.0499633919971529
117564	50	153	0	0	rust	1342	153	0	stimuli\rust\rust_01b.jpg	0	-1	0	0	rust_01b.jpg	0	0	0	175.235478767485	175.285438014747	0.0499592472624499
117664	50	154	0	0	cake	237	154	0	stimuli\cake\cake_03s.jpg	2	-1	0	0	cake_03s.jpg	0	0	0	175.335482839117	175.385462322534	0.049979483417701
117764	50	155	0	0	bulletproof_vest	218	155	0	stimuli\bulletproof_vest\bulletproof_vest_05s.jpg	4	-1	0	0	bulletproof_vest_05s.jpg	0	0	0	175.43547008789	175.485464443685	0.0499943557952065
117864	50	156	0	0	tea	1631	156	0	stimuli\tea\tea_09s.jpg	8	-1	0	0	tea_09s.jpg	0	0	0	175.535505367123	175.585454374348	0.0499490072252229
117964	50	157	0	0	lock	940	157	0	stimuli\lock\lock_06s.jpg	5	-1	0	0	lock_06s.jpg	0	0	0	175.635489446344	175.685456983105	0.0499675367609598
118064	50	158	0	0	pedal	1136	158	0	stimuli\pedal\pedal_06s.jpg	5	-1	0	0	pedal_06s.jpg	0	0	0	175.735480108444	175.785479584272	0.0499994758283719
118164	50	159	0	0	lightning_bug	929	159	0	stimuli\lightning_bug\lightning_bug_09s.jpg	8	-1	0	0	lightning_bug_09s.jpg	0	0	0	175.835480279115	175.885477560631	0.0499972815159708
118264	50	160	0	0	wreath	1839	160	0	stimuli\wreath\wreath_06s.jpg	5	-1	0	0	wreath_06s.jpg	0	0	0	175.935482156434	175.985482851305	0.0500006948714145
118364	50	161	0	0	eel	545	161	0	stimuli\eel\eel_10s.jpg	9	-1	0	0	eel_10s.jpg	0	0	0	176.035485009023	176.085484241019	0.0499992319964804
118464	50	162	0	0	vending_machine	1757	162	0	stimuli\vending_machine\vending_machine_11s.jpg	10	-1	0	0	vending_machine_11s.jpg	0	0	0	176.135487617779	176.185483924055	0.0499963062757161
118564	50	163	0	0	corsage	417	163	0	stimuli\corsage\corsage_06s.jpg	5	-1	0	0	corsage_06s.jpg	0	0	0	176.235504367505	176.285483363317	0.0499789958121255
118664	50	164	0	0	candy_bar	256	164	0	stimuli\candy_bar\candy_bar_08s.jpg	7	-1	0	0	candy_bar_08s.jpg	0	0	0	176.335505513387	176.385487191117	0.0499816777301021
118764	50	165	0	0	fungus	648	165	0	stimuli\fungus\fungus_08s.jpg	7	-1	0	0	fungus_08s.jpg	0	0	0	176.435506171692	176.485488093196	0.049981921503786
118864	50	166	0	0	coffee	377	166	0	stimuli\coffee\coffee_07s.jpg	6	-1	0	0	coffee_07s.jpg	0	0	0	176.535514875693	176.585491921025	0.049977045331616
118964	50	167	0	0	flag	605	167	0	stimuli\flag\flag_09s.jpg	8	-1	0	0	flag_09s.jpg	0	0	0	176.635516265407	176.685477950727	0.0499616853194311
119064	50	168	0	0	outlet	1088	168	0	stimuli\outlet\outlet_12s.jpg	11	-1	0	0	outlet_12s.jpg	0	0	0	176.735489129409	176.785474708071	0.0499855786620174
119164	50	169	0	0	blazer	137	169	0	stimuli\blazer\blazer_04s.jpg	3	-1	0	0	blazer_04s.jpg	0	0	0	176.835495639127	176.885476829222	0.0499811900954228
119264	50	170	0	0	bowl	177	170	0	stimuli\bowl\bowl_01b.jpg	0	-1	0	0	bowl_01b.jpg	0	0	0	176.935494834528	176.985477731301	0.0499828967731446
119364	50	171	0	0	loveseat	947	171	0	stimuli\loveseat\loveseat_12s.jpg	11	-1	0	0	loveseat_12s.jpg	0	0	0	177.035497687117	177.085481559101	0.0499838719842955
119464	50	172	0	0	whiteboard	1813	172	0	stimuli\whiteboard\whiteboard_01b.jpg	0	-1	0	0	whiteboard_01b.jpg	0	0	0	177.135501758719	177.185485143127	0.0499833844078239
119564	50	173	0	0	fire_hydrant	592	173	0	stimuli\fire_hydrant\fire_hydrant_05s.jpg	4	-1	0	0	fire_hydrant_05s.jpg	0	0	0	177.235503879871	177.285487751884	0.0499838720133994
119664	50	174	0	0	workbench	1835	174	0	stimuli\workbench\workbench_01b.jpg	0	-1	0	0	workbench_01b.jpg	0	0	0	177.335508439108	177.385489141598	0.0499807024898473
119764	50	175	0	0	pajamas	1099	175	0	stimuli\pajamas\pajamas_02s.jpg	1	-1	0	0	pajamas_02s.jpg	0	0	0	177.435508122173	177.485493457032	0.0499853348592296
119864	50	176	0	0	breakfast	197	176	0	stimuli\breakfast\breakfast_08s.jpg	7	-1	0	0	breakfast_08s.jpg	0	0	0	177.53551268141	177.585497528635	0.0499848472245503
119964	50	177	0	0	watering_can	1792	177	0	stimuli\watering_can\watering_can_07s.jpg	6	-1	0	0	watering_can_07s.jpg	0	0	0	177.635512852052	177.685497211671	0.0499843596189748
120064	50	178	0	0	coffeemaker	382	178	0	stimuli\coffeemaker\coffeemaker_03s.jpg	2	-1	0	0	coffeemaker_03s.jpg	0	0	0	177.735548618919	177.785529809014	0.0499811900954228
120164	50	179	0	0	counter	424	179	0	stimuli\counter\counter_04s.jpg	3	-1	0	0	counter_04s.jpg	0	0	0	177.835551227676	177.885514619673	0.0499633919971529
120264	50	180	0	0	hinge	779	180	0	stimuli\hinge\hinge_11s.jpg	10	-1	0	0	hinge_11s.jpg	0	0	0	177.935527017398	177.985507476056	0.0499804586579558
120364	50	181	0	0	chaps	306	181	0	stimuli\chaps\chaps_04s.jpg	3	-1	0	0	chaps_04s.jpg	0	0	0	178.035525481391	178.085511060053	0.0499855786620174
120464	50	182	0	0	scallop	1373	182	0	stimuli\scallop\scallop_01b.jpg	0	-1	0	0	scallop_01b.jpg	0	0	0	178.13552833398	178.185511474527	0.0499831405468285
120564	50	183	0	0	mosquito_net	1021	183	0	stimuli\mosquito_net\mosquito_net_06s.jpg	5	-1	0	0	mosquito_net_06s.jpg	0	0	0	178.235532649385	178.285515546158	0.0499828967731446
120664	50	184	0	0	totem_pole	1689	184	0	stimuli\totem_pole\totem_pole_08s.jpg	7	-1	0	0	totem_pole_08s.jpg	0	0	0	178.335533307691	178.385515960632	0.049982652941253
120764	50	185	0	0	graffiti	697	185	0	stimuli\graffiti\graffiti_05s.jpg	4	-1	0	0	graffiti_05s.jpg	0	0	0	178.435534941207	178.485519544629	0.0499846034217626
120864	50	186	0	0	chain	298	186	0	stimuli\chain\chain_01b.jpg	0	-1	0	0	chain_01b.jpg	0	0	0	178.535570708045	178.58553385624	0.0499631481943652
120964	50	187	0	0	retainer	1303	187	0	stimuli\retainer\retainer_05s.jpg	4	-1	0	0	retainer_05s.jpg	0	0	0	178.635555031098	178.685550118331	0.0499950872326735
121064	50	188	0	0	crayfish	434	188	0	stimuli\crayfish\crayfish_09s.jpg	8	-1	0	0	crayfish_09s.jpg	0	0	0	178.73557324367	178.785536879499	0.0499636358290445
121164	50	189	0	0	leech	909	189	0	stimuli\leech\leech_06s.jpg	5	-1	0	0	leech_06s.jpg	0	0	0	178.835575364821	178.885542170145	0.0499668053234927
121264	50	190	0	0	shoulder	1431	190	0	stimuli\shoulder\shoulder_03s.jpg	2	-1	0	0	shoulder_03s.jpg	0	0	0	178.935579924058	178.985546973214	0.0499670491553843
121364	50	191	0	0	cornbread	413	191	0	stimuli\cornbread\cornbread_04s.jpg	3	-1	0	0	cornbread_04s.jpg	0	0	0	179.035553519498	179.085537391482	0.0499838719842955
121464	50	192	0	0	gift	672	192	0	stimuli\gift\gift_01b.jpg	0	-1	0	0	gift_01b.jpg	0	0	0	179.135554665379	179.185547802161	0.0499931367812678
121564	50	193	0	0	gorilla	695	193	0	stimuli\gorilla\gorilla_08s.jpg	7	-1	0	0	gorilla_08s.jpg	0	0	0	179.23558701892	179.285566258535	0.0499792396149132
121664	50	194	0	0	pillbox	1175	194	0	stimuli\pillbox\pillbox_09s.jpg	8	-1	0	0	pillbox_09s.jpg	0	0	0	179.335587433394	179.385570086335	0.049982652941253
121764	50	195	0	0	lens	916	195	0	stimuli\lens\lens_04s.jpg	3	-1	0	0	lens_04s.jpg	0	0	0	179.435595162155	179.485555628431	0.0499604662763886
121864	50	196	0	0	headband	762	196	0	stimuli\headband\headband_10s.jpg	9	-1	0	0	headband_10s.jpg	0	0	0	179.535593382345	179.58557554768	0.0499821653356776
121964	50	197	0	0	syrup	1605	197	0	stimuli\syrup\syrup_05s.jpg	4	-1	0	0	syrup_05s.jpg	0	0	0	179.635596966342	179.685557920253	0.0499609539110679
122064	50	198	0	0	beet	114	198	0	stimuli\beet\beet_07s.jpg	6	-1	0	0	beet_07s.jpg	0	0	0	179.735573487473	179.785566868057	0.0499933805840556
122164	50	199	0	0	mast	981	199	0	stimuli\mast\mast_03s.jpg	2	-1	0	0	mast_03s.jpg	0	0	0	179.835601940053	179.885566063487	0.04996412343462
122264	50	200	0	0	diamond	484	200	0	stimuli\diamond\diamond_03s.jpg	2	-1	0	0	diamond_03s.jpg	0	0	0	179.935603817372	179.985586226539	0.0499824091675691
122364	50	201	0	0	lollipop	945	201	0	stimuli\lollipop\lollipop_11s.jpg	10	-1	0	0	lollipop_11s.jpg	0	0	0	180.035607645201	180.085588103859	0.0499804586579558
122464	50	202	0	0	gourd	696	202	0	stimuli\gourd\gourd_04s.jpg	3	-1	0	0	gourd_04s.jpg	0	0	0	180.135613911087	180.185592663096	0.0499787520093378
122564	50	203	0	0	arm	36	203	0	stimuli\arm\arm_10s.jpg	9	-1	0	0	arm_10s.jpg	0	0	0	180.235619201761	180.285576010909	0.0499568091472611
122664	50	204	0	0	pothole	1233	204	0	stimuli\pothole\pothole_01b.jpg	0	-1	0	0	pothole_01b.jpg	0	0	0	180.335588408634	180.385569842532	0.0499814338982105
122764	50	205	0	0	water_cooler	1788	205	0	stimuli\water_cooler\water_cooler_06s.jpg	5	-1	0	0	water_cooler_06s.jpg	0	0	0	180.435589798348	180.48557440177	0.0499846034217626
122864	50	206	0	0	okra	1074	206	0	stimuli\okra\okra_07s.jpg	6	-1	0	0	okra_07s.jpg	0	0	0	180.535593138542	180.585599440994	0.0500063024519477
122964	50	207	0	0	piecrust	1169	207	0	stimuli\piecrust\piecrust_02s.jpg	1	-1	0	0	piecrust_02s.jpg	0	0	0	180.635592821578	180.685580106918	0.0499872853397392
123064	50	208	0	0	bok_choy	156	208	0	stimuli\bok_choy\bok_choy_07s.jpg	6	-1	0	0	bok_choy_07s.jpg	0	0	0	180.735598112253	180.785582715675	0.0499846034217626
123164	50	209	0	0	eyepiece	568	209	0	stimuli\eyepiece\eyepiece_03s.jpg	2	-1	0	1	eyepiece_03s.jpg	0	0	0	180.83560267149	180.885585324431	0.049982652941253
123264	50	210	0	0	crossbow	444	210	0	stimuli\crossbow\crossbow_10s.jpg	9	-1	0	0	crossbow_10s.jpg	0	0	0	180.935605036444	180.985589396063	0.0499843596189748
123364	50	211	0	0	tank2	1621	211	0	stimuli\tank2\tank2_12s.jpg	11	-1	0	0	tank2_12s.jpg	0	0	0	181.035608864244	181.085590541945	0.0499816777009983
123464	50	212	0	0	air_mattress	5	212	0	stimuli\air_mattress\air_mattress_03s.jpg	2	-1	0	0	air_mattress_03s.jpg	0	0	0	181.135608791112	181.185590712616	0.049981921503786
123564	50	213	0	0	notebook	1064	213	0	stimuli\notebook\notebook_12s.jpg	11	-1	0	0	notebook_12s.jpg	0	0	0	181.235595308448	181.285622090916	0.0500267824681941
123664	50	214	0	0	scuba	1392	214	0	stimuli\scuba\scuba_03s.jpg	2	-1	0	0	scuba_03s.jpg	0	0	0	181.3356418029	181.385623724433	0.0499819215328898
123764	50	215	0	0	mud	1033	215	0	stimuli\mud\mud_09s.jpg	8	-1	0	0	mud_09s.jpg	0	0	0	181.435643436416	181.485625845584	0.0499824091675691
123864	50	216	0	0	gumball	725	216	0	stimuli\gumball\gumball_08s.jpg	7	-1	0	0	gumball_08s.jpg	0	0	0	181.535654822335	181.585627966706	0.0499731443705969
123964	50	217	0	0	ball	59	217	0	stimuli\ball\ball_03s.jpg	2	-1	0	0	ball_03s.jpg	0	0	0	181.635650116805	181.68561521548	0.0499650986748748
124064	50	218	0	0	harmonica	753	218	0	stimuli\harmonica\harmonica_01b.jpg	0	-1	0	0	harmonica_01b.jpg	0	0	0	181.735652969393	181.785643668059	0.049990698666079
124164	50	219	0	0	jellyfish	845	219	0	stimuli\jellyfish\jellyfish_09s.jpg	8	-1	0	0	jellyfish_09s.jpg	0	0	0	181.835662892438	181.885635793005	0.0499729005678091
124264	50	220	0	0	turnstile	1734	220	0	stimuli\turnstile\turnstile_10s.jpg	9	-1	0	0	turnstile_10s.jpg	0	0	0	181.935656480229	181.98564108368	0.0499846034508664
124364	50	221	0	0	squash	1526	221	0	stimuli\squash\squash_01b.jpg	0	-1	0	0	squash_01b.jpg	0	0	0	182.035660551861	182.085643692437	0.0499831405759323
124464	50	222	0	0	viewfinder	1763	222	0	stimuli\viewfinder\viewfinder_08s.jpg	7	-1	0	0	viewfinder_08s.jpg	0	0	0	182.135663892055	182.185645813559	0.049981921503786
124564	50	223	0	0	perfume	1154	223	0	stimuli\perfume\perfume_12s.jpg	11	-1	0	0	perfume_12s.jpg	0	0	0	182.235665037937	182.285645740427	0.0499807024898473
124664	50	224	0	0	wasp	1785	224	0	stimuli\wasp\wasp_03s.jpg	2	-1	0	0	wasp_03s.jpg	0	0	0	182.335663501959	182.385646398703	0.0499828967440408
124764	50	225	0	0	quad	1260	225	0	stimuli\quad\quad_09s.jpg	8	-1	0	0	quad_09s.jpg	0	0	0	182.435667329759	182.48565095794	0.0499836281815078
124864	50	226	0	0	bib	122	226	0	stimuli\bib\bib_04s.jpg	3	-1	0	0	bib_04s.jpg	0	0	0	182.535674814717	182.585659661941	0.0499848472245503
124964	50	227	0	0	cardinal	274	227	0	stimuli\cardinal\cardinal_03s.jpg	2	-1	0	0	cardinal_03s.jpg	0	0	0	182.635674010147	182.6856539812	0.0499799710523803
125064	50	228	0	0	noose	1062	228	0	stimuli\noose\noose_01b.jpg	0	-1	0	0	noose_01b.jpg	0	0	0	182.73567710651	182.785656833759	0.0499797272495925
125164	50	229	0	0	skirt	1457	229	0	stimuli\skirt\skirt_10s.jpg	9	-1	0	0	skirt_10s.jpg	0	0	0	182.835678740055	182.88565895491	0.049980214855168
125264	50	230	0	0	basket	82	230	0	stimuli\basket\basket_04s.jpg	3	-1	0	0	basket_04s.jpg	0	0	0	182.935682567855	182.985662051273	0.049979483417701
125364	50	231	0	0	rake	1281	231	0	stimuli\rake\rake_01b.jpg	0	-1	0	0	rake_01b.jpg	0	0	0	183.035689808981	183.08566661051	0.0499768015288282
125464	50	232	0	0	elephant	554	232	0	stimuli\elephant\elephant_12n.jpg	11	-1	0	0	elephant_12n.jpg	0	0	0	183.13568510348	183.185668000224	0.0499828967440408
125564	50	233	0	0	wetsuit	1803	233	0	stimuli\wetsuit\wetsuit_11s.jpg	10	-1	0	0	wetsuit_11s.jpg	0	0	0	183.235688199842	183.285669633769	0.0499814339273144
125664	50	234	0	0	taxi	1630	234	0	stimuli\taxi\taxi_03s.jpg	2	-1	0	0	taxi_03s.jpg	0	0	0	183.335691052431	183.385674193007	0.0499831405759323
125764	50	235	0	0	bow2	175	235	0	stimuli\bow2\bow2_05s.jpg	4	-1	0	0	bow2_05s.jpg	0	0	0	183.435697562149	183.485673876043	0.0499763138941489
125864	50	236	0	0	leash	907	236	0	stimuli\leash\leash_02s.jpg	1	-1	0	0	leash_02s.jpg	0	0	0	183.535699683271	183.585680629563	0.0499809462926351
125964	50	237	0	0	straw1	1568	237	0	stimuli\straw1\straw1_01b.jpg	0	-1	0	0	straw1_01b.jpg	0	0	0	183.635700097744	183.685687139281	0.0499870415369514
126064	50	238	0	0	periscope	1155	238	0	stimuli\periscope\periscope_07s.jpg	6	-1	0	0	periscope_07s.jpg	0	0	0	183.73571026462	183.785683408991	0.0499731443705969
126164	50	239	0	0	target	1627	239	0	stimuli\target\target_02s.jpg	1	-1	0	0	target_02s.jpg	0	0	0	183.835705802892	183.885685042507	0.0499792396149132
126264	50	240	0	0	safety_pin	1344	240	0	stimuli\safety_pin\safety_pin_04s.jpg	3	-1	0	0	safety_pin_04s.jpg	0	0	0	183.935707436409	183.98569203986	0.0499846034508664
126364	50	241	0	0	candlestick	254	241	0	stimuli\candlestick\candlestick_09s.jpg	8	-1	0	0	candlestick_09s.jpg	0	0	0	184.035709801363	184.085691479093	0.0499816777301021
126464	50	242	0	0	cape	266	242	0	stimuli\cape\cape_04s.jpg	3	-1	0	0	cape_04s.jpg	0	0	0	184.13571533584	184.185696282133	0.0499809462926351
126564	50	243	0	0	rooster	1330	243	0	stimuli\rooster\rooster_12s.jpg	11	-1	0	0	rooster_12s.jpg	0	0	0	184.235717213189	184.28570084137	0.0499836281815078
126665	50	244	0	0	wheelchair	1808	244	0	stimuli\wheelchair\wheelchair_09n.jpg	8	-1	0	0	wheelchair_09n.jpg	0	0	0	184.335720065748	184.385700036801	0.0499799710523803
126765	50	245	0	0	sushi	1588	245	0	stimuli\sushi\sushi_04s.jpg	3	-1	0	0	sushi_04s.jpg	0	0	0	184.435719992616	184.485706790321	0.0499867977050599
126865	50	246	0	0	donut	505	246	0	stimuli\donut\donut_06s.jpg	5	-1	0	0	donut_06s.jpg	0	0	0	184.535724795656	184.585705498146	0.0499807024898473
126965	50	247	0	0	foot	628	247	0	stimuli\foot\foot_03s.jpg	2	-1	0	0	foot_03s.jpg	0	0	0	184.635730086331	184.685709082143	0.0499789958121255
127065	50	248	0	0	gauge	663	248	0	stimuli\gauge\gauge_12s.jpg	11	-1	0	0	gauge_12s.jpg	0	0	0	184.735727331281	184.785711447097	0.0499841158161871
127165	50	249	0	0	bulletin_board	217	249	0	stimuli\bulletin_board\bulletin_board_01b.jpg	0	-1	0	0	bulletin_board_01b.jpg	0	0	0	184.835733840999	184.885714299657	0.0499804586579558
127265	50	250	0	0	flipper	615	250	0	stimuli\flipper\flipper_09s.jpg	8	-1	0	0	flipper_09s.jpg	0	0	0	184.935734255472	184.985716177005	0.0499819215328898
127365	50	251	0	0	fencepost	576	251	0	stimuli\fencepost\fencepost_08s.jpg	7	-1	0	0	fencepost_08s.jpg	0	0	0	185.035742715641	185.085721467651	0.0499787520093378
127465	50	252	0	0	window	1818	252	0	stimuli\window\window_03s.jpg	2	-1	0	0	window_03s.jpg	0	0	0	185.135743373947	185.185723101167	0.0499797272204887
127565	50	253	0	0	measuring_cup	986	253	0	stimuli\measuring_cup\measuring_cup_04s.jpg	3	-1	0	0	measuring_cup_04s.jpg	0	0	0	185.235745007463	185.285724490881	0.049979483417701
127665	50	254	0	0	camera1	246	254	0	stimuli\camera1\camera1_05s.jpg	4	-1	0	0	camera1_05s.jpg	0	0	0	185.335745909571	185.385725149186	0.0499792396149132
127765	50	255	0	0	chalk	302	255	0	stimuli\chalk\chalk_11s.jpg	10	-1	0	0	chalk_11s.jpg	0	0	0	185.435747055453	185.485728976986	0.0499819215328898
127865	50	256	0	0	barcode	73	256	0	stimuli\barcode\barcode_11s.jpg	10	-1	0	0	barcode_11s.jpg	0	0	0	185.535753565171	185.58573134194	0.049977776769083
127965	50	257	0	0	test_tube	1645	257	0	stimuli\test_tube\test_tube_09s.jpg	8	-1	0	0	test_tube_09s.jpg	0	0	0	185.635758124408	185.685732000216	0.0499738758080639
128065	50	258	0	0	grass	705	258	0	stimuli\grass\grass_11s.jpg	10	-1	0	0	grass_11s.jpg	0	0	0	185.735767559847	185.785739485174	0.0499719253275543
128165	50	259	0	0	cornhusk	414	259	0	stimuli\cornhusk\cornhusk_10s.jpg	9	-1	0	0	cornhusk_10s.jpg	0	0	0	185.835761879076	185.885743069171	0.0499811900954228
128265	50	260	0	0	ram	1282	260	0	stimuli\ram\ram_04s.jpg	3	-1	0	0	ram_04s.jpg	0	0	0	185.935762293549	185.985740557953	0.0499782644037623
128365	50	261	0	0	oven	1089	261	0	stimuli\oven\oven_08s.jpg	7	-1	0	0	oven_08s.jpg	0	0	0	186.035764414701	186.085746580036	0.0499821653356776
128465	50	262	0	0	radio	1273	262	0	stimuli\radio\radio_04s.jpg	3	-1	0	0	radio_04s.jpg	0	0	0	186.1357682425	186.185749188793	0.0499809462926351
128565	50	263	0	0	daisy	470	263	0	stimuli\daisy\daisy_04s.jpg	3	-1	0	0	daisy_04s.jpg	0	0	0	186.235770851257	186.285755454708	0.0499846034508664
128665	50	264	0	0	rickshaw	1310	264	0	stimuli\rickshaw\rickshaw_02s.jpg	1	-1	0	0	rickshaw_02s.jpg	0	0	0	186.335778336215	186.38575757583	0.0499792396149132
128765	50	265	0	0	cigarette_holder	346	265	0	stimuli\cigarette_holder\cigarette_holder_05s.jpg	4	-1	0	0	cigarette_holder_05s.jpg	0	0	0	186.435776556405	186.485756527458	0.0499799710523803
128865	50	266	0	0	emerald	555	266	0	stimuli\emerald\emerald_06s.jpg	5	-1	0	0	emerald_06s.jpg	0	0	0	186.535776970879	186.585761818133	0.0499848472536542
128965	50	267	0	0	vacuum	1750	267	0	stimuli\vacuum\vacuum_01s.jpg	0	-1	0	0	vacuum_01s.jpg	0	0	0	186.635777385352	186.685763207846	0.0499858224939089
129065	50	268	0	0	accordion	2	268	0	stimuli\accordion\accordion_10s.jpg	9	-1	0	0	accordion_10s.jpg	0	0	0	186.735787552228	186.785767523281	0.0499799710523803
129165	50	269	0	0	necklace	1054	269	0	stimuli\necklace\necklace_07s.jpg	6	-1	0	0	necklace_07s.jpg	0	0	0	186.835789673351	186.885771107278	0.0499814339273144
129265	50	270	0	0	vial	1760	270	0	stimuli\vial\vial_03s.jpg	2	-1	0	0	vial_03s.jpg	0	0	0	186.935788137373	186.985770546511	0.0499824091384653
129365	50	271	0	0	arrow	38	271	0	stimuli\arrow\arrow_02s.jpg	1	-1	0	0	arrow_02s.jpg	0	0	0	187.035798791825	187.08577242383	0.0499736320052762
129465	50	272	0	0	pony	1220	272	0	stimuli\pony\pony_04s.jpg	3	-1	0	0	pony_04s.jpg	0	0	0	187.135795305367	187.185776007827	0.0499807024607435
129565	50	273	0	0	first-aid_kit	599	273	0	stimuli\first-aid_kit\first-aid_kit_11s.jpg	10	-1	0	0	first-aid_kit_11s.jpg	0	0	0	187.235797670321	187.285779348022	0.0499816777009983
129665	50	274	0	0	water_bottle	1787	274	0	stimuli\water_bottle\water_bottle_10s.jpg	9	-1	0	0	water_bottle_10s.jpg	0	0	0	187.335803692404	187.385778055846	0.0499743634427432
129765	50	275	0	0	smoke_alarm	1473	275	0	stimuli\smoke_alarm\smoke_alarm_10s.jpg	9	-1	0	0	smoke_alarm_10s.jpg	0	0	0	187.435799962113	187.48579163602	0.0499916739063337
129865	50	276	0	0	spark_plug	1506	276	0	stimuli\spark_plug\spark_plug_09s.jpg	8	-1	0	0	spark_plug_09s.jpg	0	0	0	187.535804521351	187.585784492403	0.0499799710523803
129965	50	277	0	0	meat	987	277	0	stimuli\meat\meat_05s.jpg	4	-1	0	0	meat_05s.jpg	0	0	0	187.635807130137	187.685788320232	0.0499811900954228
130065	50	278	0	0	cougar	423	278	0	stimuli\cougar\cougar_09s.jpg	8	-1	0	0	cougar_09s.jpg	0	0	0	187.735809495061	187.785791660397	0.0499821653356776
130165	50	279	0	0	hawk	760	279	0	stimuli\hawk\hawk_01b.jpg	0	-1	0	0	hawk_01b.jpg	0	0	0	187.835816736217	187.885797926312	0.0499811900954228
130265	50	280	0	0	chimney	329	280	0	stimuli\chimney\chimney_05s.jpg	4	-1	0	0	chimney_05s.jpg	0	0	0	187.93581715069	187.985772496992	0.0499553463014308
130365	50	281	0	0	lipstick	936	281	0	stimuli\lipstick\lipstick_11s.jpg	10	-1	0	0	lipstick_11s.jpg	0	0	0	188.035818296601	188.085800461937	0.0499821653356776
130465	50	282	0	0	pulpit	1251	282	0	stimuli\pulpit\pulpit_06s.jpg	5	-1	0	0	pulpit_06s.jpg	0	0	0	188.13581919868	188.185801364016	0.0499821653356776
130565	50	283	0	0	sorbet	1497	283	0	stimuli\sorbet\sorbet_05s.jpg	4	-1	0	0	sorbet_05s.jpg	0	0	0	188.235824001749	188.28580372897	0.0499797272204887
130665	50	284	0	0	cashew	281	284	0	stimuli\cashew\cashew_05s.jpg	4	-1	0	0	cashew_05s.jpg	0	0	0	188.335824660026	188.385807069164	0.0499824091384653
130765	50	285	0	0	gargoyle	657	285	0	stimuli\gargoyle\gargoyle_04s.jpg	3	-1	0	0	gargoyle_04s.jpg	0	0	0	188.435829219263	188.485809434118	0.049980214855168
130865	50	286	0	0	gyroscope	731	286	0	stimuli\gyroscope\gyroscope_02s.jpg	1	-1	0	0	gyroscope_02s.jpg	0	0	0	188.53583475374	188.585812530509	0.049977776769083
130965	50	287	0	0	coyote	427	287	0	stimuli\coyote\coyote_01b.jpg	0	-1	0	0	coyote_01b.jpg	0	0	0	188.63583199869	188.685815383069	0.0499833843787201
131065	50	288	0	0	leggings	912	288	0	stimuli\leggings\leggings_04s.jpg	3	-1	0	0	leggings_04s.jpg	0	0	0	188.73583582649	188.78581652898	0.0499807024898473
131165	50	289	0	0	headrest	767	289	0	stimuli\headrest\headrest_10s.jpg	9	-1	0	0	headrest_10s.jpg	0	0	0	188.835843555251	188.88582889011	0.0499853348592296
131265	50	290	0	0	grapevine	704	290	0	stimuli\grapevine\grapevine_08s.jpg	7	-1	0	0	grapevine_08s.jpg	0	0	0	188.935845188797	188.985824672214	0.049979483417701
131365	50	291	0	0	skin	1456	291	0	stimuli\skin\skin_10s.jpg	9	-1	0	0	skin_10s.jpg	0	0	0	189.03584657851	189.085826549563	0.0499799710523803
131465	50	292	0	0	bobsled	155	292	0	stimuli\bobsled\bobsled_05s.jpg	4	-1	0	0	bobsled_05s.jpg	0	0	0	189.135846992984	189.185826964036	0.0499799710523803
131565	50	293	0	0	squirt_gun	1530	293	0	stimuli\squirt_gun\squirt_gun_05s.jpg	4	-1	0	0	squirt_gun_05s.jpg	0	0	0	189.235851552221	189.285832498514	0.0499809462926351
131665	50	294	0	0	moccasin	1010	294	0	stimuli\moccasin\moccasin_01b.jpg	0	-1	0	0	moccasin_01b.jpg	0	0	0	189.3358524543	189.385833400593	0.0499809462926351
131765	50	295	0	0	pickle	1167	295	0	stimuli\pickle\pickle_03s.jpg	2	-1	0	0	pickle_03s.jpg	0	0	0	189.435855063057	189.485840641748	0.0499855786911212
131865	50	296	0	0	earplug	539	296	0	stimuli\earplug\earplug_02s.jpg	1	-1	0	0	earplug_02s.jpg	0	0	0	189.535858890886	189.585839593346	0.0499807024607435
131965	50	297	0	0	sundial	1583	297	0	stimuli\sundial\sundial_01b.jpg	0	-1	0	0	sundial_01b.jpg	0	0	0	189.635861987248	189.68584098306	0.0499789958121255
132065	50	298	0	0	anchor	21	298	0	stimuli\anchor\anchor_09s.jpg	8	-1	0	0	anchor_09s.jpg	0	0	0	189.735862645553	189.785846517538	0.0499838719842955
132165	50	299	0	0	seahorse	1396	299	0	stimuli\seahorse\seahorse_07s.jpg	6	-1	0	0	seahorse_07s.jpg	0	0	0	189.835867204791	189.885846932011	0.0499797272204887
132265	50	300	0	0	ladybug	888	300	0	stimuli\ladybug\ladybug_11s.jpg	10	-1	0	0	ladybug_11s.jpg	0	0	0	189.935869325913	189.985854904604	0.0499855786911212
132365	50	301	0	0	mango	966	301	0	stimuli\mango\mango_02s.jpg	1	-1	0	0	mango_02s.jpg	0	0	0	190.035870715627	190.085857513361	0.0499867977341637
132465	50	302	0	0	hay	761	302	0	stimuli\hay\hay_10s.jpg	9	-1	0	0	hay_10s.jpg	0	0	0	190.135876250104	190.185862316401	0.0499860662966967
132565	50	303	0	0	ladle	887	303	0	stimuli\ladle\ladle_10s.jpg	9	-1	0	0	ladle_10s.jpg	0	0	0	190.235875933169	190.285857367067	0.0499814338982105
132665	50	304	0	0	bagpipe	56	304	0	stimuli\bagpipe\bagpipe_10s.jpg	9	-1	0	0	bagpipe_10s.jpg	0	0	0	190.335880492406	190.38586338915	0.0499828967440408
132765	50	305	0	0	switch	1600	305	0	stimuli\switch\switch_04s.jpg	3	-1	0	0	switch_04s.jpg	0	0	0	190.435882125923	190.485862584581	0.0499804586579558
132865	50	306	0	0	lingerie	932	306	0	stimuli\lingerie\lingerie_03s.jpg	2	-1	0	0	lingerie_03s.jpg	0	0	0	190.535885953723	190.585872263822	0.0499863100994844
132965	50	307	0	0	tongs	1674	307	0	stimuli\tongs\tongs_02s.jpg	1	-1	0	0	tongs_02s.jpg	0	0	0	190.635888074874	190.68587219069	0.0499841158161871
133065	50	308	0	0	tulip	1726	308	0	stimuli\tulip\tulip_04s.jpg	3	-1	0	0	tulip_04s.jpg	1	0	0	190.735888489347	190.785871873726	0.0499833843787201
143198	50	309	0	0	place_mat	1193	0	1	stimuli\place_mat\place_mat_01b.jpg	0	-1	1	0	place_mat_01b.jpg	0	0	0	200.869499505439	200.919477282208	0.049977776769083
143298	50	310	0	0	ketchup	867	1	1	stimuli\ketchup\ketchup_06s.jpg	5	-1	1	0	ketchup_06s.jpg	0	0	0	200.969505527552	201.019479647162	0.0499741196108516
143398	50	311	0	0	veil	1755	2	1	stimuli\veil\veil_08s.jpg	7	-1	1	0	veil_08s.jpg	0	0	0	201.069498140103	201.119479086396	0.0499809462926351
143498	50	312	0	0	cello	292	3	1	stimuli\cello\cello_02s.jpg	1	-1	1	0	cello_02s.jpg	0	0	0	201.169501236494	201.21948242659	0.0499811900954228
143598	50	313	0	0	sardine	1359	4	1	stimuli\sardine\sardine_02s.jpg	1	-1	1	0	sardine_02s.jpg	0	0	0	201.269505308097	201.319484060106	0.0499787520093378
143698	50	314	0	0	washcloth	1783	5	1	stimuli\washcloth\washcloth_02s.jpg	1	-1	1	0	washcloth_02s.jpg	0	0	0	201.369508404488	201.419490569824	0.0499821653356776
143798	50	315	0	0	pencil	1142	6	1	stimuli\pencil\pencil_08s.jpg	7	-1	1	0	pencil_08s.jpg	0	0	0	201.469511988485	201.519495860499	0.0499838720133994
143898	50	316	0	0	guacamole	719	7	1	stimuli\guacamole\guacamole_10s.jpg	9	-1	1	0	guacamole_10s.jpg	0	0	0	201.56951532868	201.619493349252	0.0499780205718707
143998	50	317	0	0	mouth	1031	8	1	stimuli\mouth\mouth_02s.jpg	1	-1	1	0	mouth_02s.jpg	0	0	0	201.669527202204	201.719499858969	0.0499726567650214
144098	50	318	0	0	saxophone	1368	9	1	stimuli\saxophone\saxophone_12s.jpg	11	-1	1	0	saxophone_12s.jpg	0	0	0	201.769517620502	201.81950563725	0.0499880167481024
144198	50	319	0	0	brace	186	10	1	stimuli\brace\brace_05s.jpg	4	-1	1	0	brace_05s.jpg	0	0	0	201.869521204499	201.919500931719	0.0499797272204887
144298	50	320	0	0	piano	1165	11	1	stimuli\piano\piano_03n.jpg	2	-1	1	0	piano_03n.jpg	0	0	0	201.969525763736	202.019512805244	0.0499870415078476
144398	50	321	0	0	hatchet	759	12	1	stimuli\hatchet\hatchet_08s.jpg	7	-1	1	0	hatchet_08s.jpg	0	0	0	202.069530322973	202.119510294026	0.0499799710523803
144498	50	322	0	0	engine	557	13	1	stimuli\engine\engine_05s.jpg	4	-1	1	0	engine_05s.jpg	0	0	0	202.16953488221	202.219511927542	0.049977045331616
144598	50	323	0	0	taffy	1615	14	1	stimuli\taffy\taffy_03s.jpg	2	-1	1	0	taffy_03s.jpg	0	0	0	202.269534565246	202.319512098213	0.0499775329662953
144698	50	324	0	0	comic_book	391	15	1	stimuli\comic_book\comic_book_01b.jpg	0	-1	1	0	comic_book_01b.jpg	0	0	0	202.369538149243	202.419517388858	0.0499792396149132
144798	50	325	0	0	lunchbox	950	16	1	stimuli\lunchbox\lunchbox_09s.jpg	8	-1	1	0	lunchbox_09s.jpg	0	0	0	202.469542952284	202.519520729053	0.049977776769083
144898	50	326	0	0	phone	1161	17	1	stimuli\phone\phone_08s.jpg	7	-1	1	0	phone_08s.jpg	0	0	0	202.569559214375	202.619523094007	0.0499638796318322
144998	50	327	0	0	teepee	1637	18	1	stimuli\teepee\teepee_07s.jpg	6	-1	1	0	teepee_07s.jpg	0	0	0	202.6695447565	202.719525215158	0.0499804586579558
145098	50	328	0	0	easel	542	19	1	stimuli\easel\easel_06s.jpg	5	-1	1	0	easel_06s.jpg	0	0	0	202.769544927141	202.819527336309	0.0499824091675691
145198	50	329	0	0	xylophone	1843	20	1	stimuli\xylophone\xylophone_11s.jpg	10	-1	1	0	xylophone_11s.jpg	0	0	0	202.869550949254	202.919506295526	0.049955346272327
145298	50	330	0	0	papaya	1111	21	1	stimuli\papaya\papaya_11n.jpg	10	-1	1	0	papaya_11n.jpg	0	0	0	202.96955258277	203.019534991909	0.0499824091384653
145398	50	331	0	0	camcorder	244	22	1	stimuli\camcorder\camcorder_05s.jpg	4	-1	1	0	camcorder_05s.jpg	0	0	0	203.069557142007	203.119535162579	0.0499780205718707
145498	50	332	0	0	boy	184	23	1	stimuli\boy\boy_08s.jpg	7	-1	1	0	boy_08s.jpg	0	0	0	203.169560482202	203.219537527533	0.049977045331616
145598	50	333	0	0	cinnamon	348	24	1	stimuli\cinnamon\cinnamon_09s.jpg	8	-1	1	0	cinnamon_09s.jpg	0	0	0	203.269569673808	203.319543305814	0.0499736320052762
145698	50	334	0	0	nutcracker	1067	25	1	stimuli\nutcracker\nutcracker_06s.jpg	5	-1	1	0	nutcracker_06s.jpg	0	0	0	203.369561067346	203.419537625072	0.0499765577260405
145798	50	335	0	0	enchilada	556	26	1	stimuli\enchilada\enchilada_08s.jpg	7	-1	1	0	enchilada_08s.jpg	0	0	0	203.469566845626	203.519546816678	0.0499799710523803
145898	50	336	0	0	cookie	400	27	1	stimuli\cookie\cookie_10s.jpg	9	-1	1	0	cookie_10s.jpg	0	0	0	203.569567991537	203.619554789242	0.0499867977050599
145998	50	337	0	0	vise	1765	28	1	stimuli\vise\vise_02s.jpg	1	-1	1	0	vise_02s.jpg	0	0	0	203.669572550774	203.719554472307	0.0499819215328898
146098	50	338	0	0	dice	486	29	1	stimuli\dice\dice_01s.jpg	0	-1	1	0	dice_01s.jpg	0	0	0	203.769572721445	203.819550742017	0.0499780205718707
146198	50	339	0	0	mail	959	30	1	stimuli\mail\mail_09s.jpg	8	-1	1	0	mail_09s.jpg	0	0	0	203.869577280682	203.919558470778	0.0499811900954228
146298	50	340	0	0	stretcher	1572	31	1	stimuli\stretcher\stretcher_03s.jpg	2	-1	1	0	stretcher_03s.jpg	0	0	0	203.969577207521	204.019567418582	0.0499902110605035
146398	50	341	0	0	bracket	189	32	1	stimuli\bracket\bracket_02s.jpg	1	-1	1	0	bracket_02s.jpg	0	0	0	204.06958103535	204.119563932094	0.0499828967440408
146498	50	342	0	0	centerpiece	295	33	1	stimuli\centerpiece\centerpiece_06s.jpg	5	-1	1	0	centerpiece_06s.jpg	0	0	0	204.16958583839	204.21956556564	0.0499797272495925
146598	50	343	0	0	undershirt	1744	34	1	stimuli\undershirt\undershirt_12s.jpg	11	-1	1	0	undershirt_12s.jpg	0	0	0	204.26959161667	204.319566223916	0.0499746072455309
146698	50	344	0	0	punch1	1254	35	1	stimuli\punch1\punch1_08s.jpg	7	-1	1	0	punch1_08s.jpg	0	0	0	204.369589105423	204.419568832673	0.0499797272495925
146798	50	345	0	0	headset	769	36	1	stimuli\headset\headset_05s.jpg	4	-1	1	0	headset_05s.jpg	0	0	0	204.469593908492	204.519575829996	0.049981921503786
146898	50	346	0	0	bow3	176	37	1	stimuli\bow3\bow3_08s.jpg	7	-1	1	0	bow3_08s.jpg	0	0	0	204.569601149618	204.61957819495	0.049977045331616
146998	50	347	0	0	anteater	25	38	1	stimuli\anteater\anteater_09s.jpg	8	-1	1	0	anteater_09s.jpg	0	0	0	204.669597419328	204.719576658972	0.0499792396440171
147098	50	348	0	0	book	165	39	1	stimuli\book\book_10s.jpg	9	-1	1	0	book_10s.jpg	0	0	0	204.76960149096	204.819577804854	0.0499763138941489
147198	50	349	0	0	stockings	1559	40	1	stimuli\stockings\stockings_10s.jpg	9	-1	1	0	stockings_10s.jpg	0	0	0	204.869601905433	204.919582607923	0.0499807024898473
147298	50	350	0	0	confetti	396	41	1	stimuli\confetti\confetti_04s.jpg	3	-1	1	0	confetti_04s.jpg	0	0	0	204.969606708473	205.01958521668	0.04997850820655
147398	50	351	0	0	hairpin	737	42	1	stimuli\hairpin\hairpin_05s.jpg	4	-1	1	0	hairpin_05s.jpg	0	0	0	205.06961029247	205.119590751157	0.0499804586870596
147498	50	352	0	0	robot	1318	43	1	stimuli\robot\robot_01b.jpg	0	-1	1	0	robot_01b.jpg	0	0	0	205.169613388862	205.219597017043	0.0499836281815078
147598	50	353	0	0	slime	1465	44	1	stimuli\slime\slime_10s.jpg	9	-1	1	0	slime_10s.jpg	0	0	0	205.269613803335	205.319597187714	0.0499833843787201
147698	50	354	0	0	tile	1660	45	1	stimuli\tile\tile_02s.jpg	1	-1	1	0	tile_02s.jpg	0	0	0	205.369615193049	205.419597602187	0.0499824091384653
147798	50	355	0	0	margarita	973	46	1	stimuli\margarita\margarita_12s.jpg	11	-1	1	0	margarita_12s.jpg	0	0	0	205.469620727526	205.519598504296	0.049977776769083
147898	50	356	0	0	matchbox	984	47	1	stimuli\matchbox\matchbox_02s.jpg	1	-1	1	0	matchbox_02s.jpg	0	0	0	205.569621142	205.619602088293	0.0499809462926351
147998	50	357	0	0	trowel	1719	48	1	stimuli\trowel\trowel_11s.jpg	10	-1	1	0	trowel_11s.jpg	0	0	0	205.669624482194	205.719628590392	0.0500041081977542
148098	50	358	0	0	cake_mix	238	49	1	stimuli\cake_mix\cake_mix_08s.jpg	7	-1	1	0	cake_mix_08s.jpg	0	0	0	205.769627090951	205.819609987724	0.0499828967731446
148198	50	359	0	0	hedge	773	50	1	stimuli\hedge\hedge_08s.jpg	7	-1	1	0	hedge_08s.jpg	0	0	0	205.869632381626	205.91960869552	0.0499763138941489
148298	50	360	0	0	knot	883	51	1	stimuli\knot\knot_01b.jpg	0	-1	1	0	knot_01b.jpg	0	0	0	205.969630845619	206.01961544904	0.0499846034217626
148398	50	361	0	0	wafer	1769	52	1	stimuli\wafer\wafer_08s.jpg	7	-1	1	0	wafer_08s.jpg	0	0	0	206.069635161053	206.119614156865	0.0499789958121255
148498	50	362	0	0	otter	1085	53	1	stimuli\otter\otter_04n.jpg	3	-1	1	0	otter_04n.jpg	0	0	0	206.169635819329	206.2196184723	0.0499826529703569
148598	50	363	0	0	skull	1458	54	1	stimuli\skull\skull_02s.jpg	1	-1	1	0	skull_02s.jpg	0	0	0	206.269638428086	206.31962425058	0.0499858224939089
148698	50	364	0	0	desk	480	55	1	stimuli\desk\desk_02s.jpg	1	-1	1	0	desk_02s.jpg	0	0	0	206.369649082568	206.419623689813	0.0499746072455309
148798	50	365	0	0	iguana	825	56	1	stimuli\iguana\iguana_08s.jpg	7	-1	1	0	iguana_08s.jpg	0	0	0	206.469648034195	206.51962532333	0.0499772891344037
148898	50	366	0	0	fireplace	595	57	1	stimuli\fireplace\fireplace_02s.jpg	1	-1	1	0	fireplace_02s.jpg	0	0	0	206.569647961034	206.619628175918	0.0499802148842718
148998	50	367	0	0	tweezers	1739	58	1	stimuli\tweezers\tweezers_03s.jpg	2	-1	1	0	tweezers_03s.jpg	0	0	0	206.669652520271	206.719634685607	0.0499821653356776
149098	50	368	0	0	sarcophagus	1358	59	1	stimuli\sarcophagus\sarcophagus_03s.jpg	2	-1	1	0	sarcophagus_03s.jpg	0	0	0	206.76965439762	206.819637050561	0.049982652941253
149198	50	369	0	0	stamp1	1535	60	1	stimuli\stamp1\stamp1_07s.jpg	6	-1	1	0	stamp1_07s.jpg	0	0	0	206.869657006377	206.919637708867	0.0499807024898473
149298	50	370	0	0	stove1	1563	61	1	stimuli\stove1\stove1_12s.jpg	11	-1	1	0	stove1_12s.jpg	0	0	0	206.969659615133	207.019638367143	0.0499787520093378
149398	50	371	0	0	power_line	1237	62	1	stimuli\power_line\power_line_07s.jpg	6	-1	1	0	power_line_07s.jpg	0	0	0	207.06966124865	207.11964390162	0.0499826529703569
149498	50	372	0	0	tostada	1688	63	1	stimuli\tostada\tostada_10s.jpg	9	-1	1	0	tostada_10s.jpg	0	0	0	207.169665076479	207.219650655141	0.0499855786620174
149598	50	373	0	0	mitten	1008	64	1	stimuli\mitten\mitten_12s.jpg	11	-1	1	0	mitten_12s.jpg	0	0	0	207.269669391913	207.319652288657	0.0499828967440408
149698	50	374	0	0	biscuit	133	65	1	stimuli\biscuit\biscuit_06s.jpg	5	-1	1	0	biscuit_06s.jpg	0	0	0	207.369668099709	207.419651727891	0.0499836281815078
149798	50	375	0	0	crayon	435	66	1	stimuli\crayon\crayon_04s.jpg	3	-1	1	0	crayon_04s.jpg	0	0	0	207.469671683706	207.519653361436	0.0499816777301021
149898	50	376	0	0	flashlight	611	67	1	stimuli\flashlight\flashlight_01b.jpg	0	-1	1	0	flashlight_01b.jpg	0	0	0	207.569675511506	207.619656213996	0.0499807024898473
149998	50	377	0	0	blowfish	146	68	1	stimuli\blowfish\blowfish_07s.jpg	6	-1	1	0	blowfish_07s.jpg	0	0	0	207.669680314575	207.719659310387	0.0499789958121255
150098	50	378	0	0	cleaver	354	69	1	stimuli\cleaver\cleaver_04s.jpg	3	-1	1	0	cleaver_04s.jpg	0	0	0	207.769682191894	207.819660212466	0.0499780205718707
150198	50	379	0	0	brass_knuckles	193	70	1	stimuli\brass_knuckles\brass_knuckles_02s.jpg	1	-1	1	0	brass_knuckles_02s.jpg	0	0	0	207.869688214007	207.919663065055	0.0499748510483187
150298	50	380	0	0	chest2	320	71	1	stimuli\chest2\chest2_08s.jpg	7	-1	1	0	chest2_08s.jpg	0	0	0	207.969691554172	208.019671769056	0.0499802148842718
150398	50	381	0	0	pacifier	1093	72	1	stimuli\pacifier\pacifier_12s.jpg	11	-1	1	0	pacifier_12s.jpg	0	0	0	208.069678071508	208.119673646375	0.0499955748673528
150498	50	382	0	0	dandelion	472	73	1	stimuli\dandelion\dandelion_12s.jpg	11	-1	1	0	dandelion_12s.jpg	0	0	0	208.169679705054	208.219676498935	0.0499967938812915
150598	50	383	0	0	tree	1708	74	1	stimuli\tree\tree_08s.jpg	7	-1	1	0	tree_08s.jpg	0	0	0	208.269698892836	208.319678620086	0.0499797272495925
150698	50	384	0	0	scissors	1379	75	1	stimuli\scissors\scissors_04s.jpg	3	-1	1	0	scissors_04s.jpg	0	0	0	208.369702964468	208.419686348847	0.0499833843787201
150798	50	385	0	0	soup	1499	76	1	stimuli\soup\soup_03s.jpg	2	-1	1	0	soup_03s.jpg	0	0	0	208.469700940856	208.519683349994	0.0499824091384653
150898	50	386	0	0	pepperoni	1153	77	1	stimuli\pepperoni\pepperoni_11s.jpg	10	-1	1	0	pepperoni_11s.jpg	0	0	0	208.569702086766	208.619681082579	0.0499789958121255
150998	50	387	0	0	whipped_cream	1810	78	1	stimuli\whipped_cream\whipped_cream_01b.jpg	0	-1	1	0	whipped_cream_01b.jpg	0	0	0	208.669706889807	208.719684422744	0.0499775329371914
151098	50	388	0	0	tooth	1678	79	1	stimuli\tooth\tooth_10s.jpg	9	-1	1	0	tooth_10s.jpg	0	0	0	208.769707060477	208.819688006741	0.0499809462635312
151198	50	389	0	0	wig	1816	80	1	stimuli\wig\wig_09s.jpg	8	-1	1	0	wig_09s.jpg	0	0	0	208.869717227324	208.919691590767	0.0499743634427432
151298	50	390	0	0	praying_mantis	1238	81	1	stimuli\praying_mantis\praying_mantis_03s.jpg	2	-1	1	0	praying_mantis_03s.jpg	0	0	0	208.969718617038	209.019697369047	0.0499787520093378
151398	50	391	0	0	belt_buckle	119	82	1	stimuli\belt_buckle\belt_buckle_05s.jpg	4	-1	1	0	belt_buckle_05s.jpg	0	0	0	209.06971513055	209.119699002564	0.0499838720133994
151498	50	392	0	0	car_seat	269	83	1	stimuli\car_seat\car_seat_06s.jpg	5	-1	1	0	car_seat_06s.jpg	0	0	0	209.169718470745	209.219698441797	0.0499799710523803
151598	50	393	0	0	button1	230	84	1	stimuli\button1\button1_11s.jpg	10	-1	1	0	button1_11s.jpg	0	0	0	209.26971912905	209.319715191523	0.0499960624729283
151698	50	394	0	0	eggplant	550	85	1	stimuli\eggplant\eggplant_07s.jpg	6	-1	1	0	eggplant_07s.jpg	0	0	0	209.369721981609	209.419707804074	0.0499858224648051
151798	50	395	0	0	sloth	1471	86	1	stimuli\sloth\sloth_07n.jpg	6	-1	1	0	sloth_07n.jpg	0	0	0	209.469730441808	209.51971602047	0.0499855786620174
151898	50	396	0	0	mixer	1009	87	1	stimuli\mixer\mixer_11s.jpg	10	-1	1	0	mixer_11s.jpg	0	0	0	209.569731343887	209.619708145416	0.0499768015288282
151998	50	397	0	0	dashboard	475	88	1	stimuli\dashboard\dashboard_09s.jpg	8	-1	1	0	dashboard_09s.jpg	0	0	0	209.669731026952	209.71971343609	0.0499824091384653
152098	50	398	0	0	tomato	1672	89	1	stimuli\tomato\tomato_08s.jpg	7	-1	1	0	tomato_08s.jpg	0	0	0	209.769738024275	209.819713362929	0.0499753386538941
152198	50	399	0	0	bathmat	89	90	1	stimuli\bathmat\bathmat_07s.jpg	6	-1	1	0	bathmat_07s.jpg	0	0	0	209.869735269225	209.919719628844	0.0499843596189748
152298	50	400	0	0	mint	1004	91	1	stimuli\mint\mint_11s.jpg	10	-1	1	0	mint_11s.jpg	0	0	0	209.969741778943	210.019722969038	0.0499811900954228
152398	50	401	0	0	typewriter	1741	92	1	stimuli\typewriter\typewriter_05s.jpg	4	-1	1	0	typewriter_05s.jpg	0	0	0	210.069742193416	210.119722895906	0.0499807024898473
152498	50	402	0	0	sticker	1553	93	1	stimuli\sticker\sticker_11s.jpg	10	-1	1	0	sticker_11s.jpg	0	0	0	210.16974358313	210.219723554183	0.0499799710523803
152598	50	403	0	0	banana_split	65	94	1	stimuli\banana_split\banana_split_07s.jpg	6	-1	1	0	banana_split_07s.jpg	0	0	0	210.269748142367	210.31972811342	0.0499799710523803
152698	50	404	0	0	wax	1795	95	1	stimuli\wax\wax_03s.jpg	2	-1	1	0	wax_03s.jpg	0	0	0	210.369751238759	210.419733404095	0.0499821653356776
152798	50	405	0	0	root	1331	96	1	stimuli\root\root_01b.jpg	0	-1	1	0	root_01b.jpg	0	0	0	210.469752384641	210.519736256654	0.0499838720133994
152898	50	406	0	0	heater	772	97	1	stimuli\heater\heater_10s.jpg	9	-1	1	0	heater_10s.jpg	0	0	0	210.569754261989	210.619737158762	0.0499828967731446
152998	50	407	0	0	fishnet_stockings	604	98	1	stimuli\fishnet_stockings\fishnet_stockings_06s.jpg	5	-1	1	0	fishnet_stockings_06s.jpg	0	0	0	210.669761746947	210.719738548476	0.0499768015288282
153098	50	408	0	0	macaroni	952	99	1	stimuli\macaroni\macaroni_01b.jpg	0	-1	1	0	macaroni_01b.jpg	0	0	0	210.769762161421	210.819741157233	0.0499789958121255
153198	50	409	0	0	album	11	100	1	stimuli\album\album_09s.jpg	8	-1	1	0	album_09s.jpg	0	0	0	210.869764282543	210.919744497427	0.0499802148842718
153298	50	410	0	0	brownie	204	101	1	stimuli\brownie\brownie_09s.jpg	8	-1	1	0	brownie_09s.jpg	0	0	0	210.969772986544	211.019749056664	0.049976070120465
153398	50	411	0	0	kebab	865	102	1	stimuli\kebab\kebab_09n.jpg	8	-1	1	0	kebab_09n.jpg	0	0	0	211.069772425806	211.119748983503	0.0499765576969367
153498	50	412	0	0	food_processor	627	103	1	stimuli\food_processor\food_processor_06s.jpg	5	-1	1	0	food_processor_06s.jpg	0	0	0	211.169771865039	211.2197525675	0.0499807024607435
153598	50	413	0	0	bedpan	109	104	1	stimuli\bedpan\bedpan_04s.jpg	3	-1	1	0	bedpan_04s.jpg	0	0	0	211.269776180445	211.319759077218	0.0499828967731446
153698	50	414	0	0	fishbowl	601	105	1	stimuli\fishbowl\fishbowl_04s.jpg	3	-1	1	0	fishbowl_04s.jpg	0	0	0	211.369776594947	211.419757541211	0.0499809462635312
153798	50	415	0	0	slot	1469	106	1	stimuli\slot\slot_02s.jpg	1	-1	1	0	slot_02s.jpg	0	0	0	211.469782860833	211.519760881405	0.0499780205718707
153898	50	416	0	0	altar	16	107	1	stimuli\altar\altar_12s.jpg	11	-1	1	0	altar_12s.jpg	0	0	0	211.569784981984	211.619763002556	0.0499780205718707
153998	50	417	0	0	chipmunk	334	108	1	stimuli\chipmunk\chipmunk_09s.jpg	8	-1	1	0	chipmunk_09s.jpg	0	0	0	211.66978368978	211.719768293231	0.0499846034508664
154098	50	418	0	0	swordfish	1603	109	1	stimuli\swordfish\swordfish_03s.jpg	2	-1	1	0	swordfish_03s.jpg	0	0	0	211.769786054734	211.819767732464	0.0499816777301021
154198	50	419	0	0	pea	1128	110	1	stimuli\pea\pea_08s.jpg	7	-1	1	0	pea_08s.jpg	0	0	0	211.869792076846	211.919770828827	0.0499787519802339
154298	50	420	0	0	poster	1229	111	1	stimuli\poster\poster_03s.jpg	2	-1	1	0	poster_03s.jpg	0	0	0	211.969792978925	212.019772462372	0.0499794834468048
154398	50	421	0	0	grate	707	112	1	stimuli\grate\grate_03s.jpg	2	-1	1	1	grate_03s.jpg	0	0	0	212.069795100077	212.119781410176	0.0499863100994844
154499	50	422	0	0	strawberry	1570	113	1	stimuli\strawberry\strawberry_06n.jpg	5	-1	1	0	strawberry_06n.jpg	0	0	0	212.169803560275	212.21978279989	0.0499792396149132
154599	50	423	0	0	mole	1014	114	1	stimuli\mole\mole_04s.jpg	3	-1	1	0	mole_04s.jpg	0	0	0	212.269802511873	212.319780288643	0.049977776769083
154699	50	424	0	0	bassinet	85	115	1	stimuli\bassinet\bassinet_10s.jpg	9	-1	1	0	bassinet_10s.jpg	1	0.350166022079065	1	212.36980609587	212.41978484788	0.0499787520093378
154799	50	425	0	0	toothbrush	1679	116	1	stimuli\toothbrush\toothbrush_08s.jpg	7	-1	1	0	toothbrush_08s.jpg	0	0	0	212.469807485584	212.519786725228	0.0499792396440171
154899	50	426	0	0	bead	100	117	1	stimuli\bead\bead_06s.jpg	5	-1	1	0	bead_06s.jpg	0	0	0	212.569810338173	212.619788114942	0.049977776769083
154999	50	427	0	0	music_box	1041	118	1	stimuli\music_box\music_box_07s.jpg	6	-1	1	0	music_box_07s.jpg	0	0	0	212.66981489741	212.719793893222	0.0499789958121255
155099	50	428	0	0	silicone	1444	119	1	stimuli\silicone\silicone_12s.jpg	11	-1	1	0	silicone_12s.jpg	0	0	0	212.769817262364	212.819799183897	0.0499819215328898
155199	50	429	0	0	rock	1319	120	1	stimuli\rock\rock_02s.jpg	1	-1	1	0	rock_02s.jpg	0	0	0	212.869819139683	212.919795453607	0.0499763139232527
155299	50	430	0	0	leek	910	121	1	stimuli\leek\leek_04s.jpg	3	-1	1	0	leek_04s.jpg	0	0	0	212.969818335114	213.019803913776	0.0499855786620174
155399	50	431	0	0	stamp2	1536	122	1	stimuli\stamp2\stamp2_08s.jpg	7	-1	1	0	stamp2_08s.jpg	0	0	0	213.069822406746	213.119802133966	0.0499797272204887
155499	50	432	0	0	palette	1100	123	1	stimuli\palette\palette_04s.jpg	3	-1	1	0	palette_04s.jpg	0	0	0	213.169827697391	213.219810594164	0.0499828967731446
155599	50	433	0	0	frame	639	124	1	stimuli\frame\frame_11s.jpg	10	-1	1	0	frame_11s.jpg	0	0	0	213.269827136653	213.319807107706	0.0499799710523803
155699	50	434	0	0	eggnog	549	125	1	stimuli\eggnog\eggnog_01b.jpg	0	-1	1	0	eggnog_01b.jpg	0	0	0	213.369833402539	213.419810447871	0.049977045331616
155799	50	435	0	0	bumper	219	126	1	stimuli\bumper\bumper_12s.jpg	11	-1	1	0	bumper_12s.jpg	0	0	0	213.469832841773	213.519814031868	0.0499811900954228
155899	50	436	0	0	cutting_board	467	127	1	stimuli\cutting_board\cutting_board_03s.jpg	2	-1	1	0	cutting_board_03s.jpg	0	0	0	213.569838132447	213.619818834937	0.0499807024898473
155999	50	437	0	0	acorn	3	128	1	stimuli\acorn\acorn_06s.jpg	5	-1	1	0	acorn_06s.jpg	0	0	0	213.669839522161	213.719822662737	0.0499831405759323
156099	50	438	0	0	dress	518	129	1	stimuli\dress\dress_08s.jpg	7	-1	1	0	dress_08s.jpg	0	0	0	213.76984237475	213.819826978171	0.0499846034217626
156199	50	439	0	0	rat	1285	130	1	stimuli\rat\rat_02s.jpg	1	-1	1	0	rat_02s.jpg	0	0	0	213.869843033026	213.919824710727	0.0499816777009983
156299	50	440	0	0	gum	724	131	1	stimuli\gum\gum_04s.jpg	3	-1	1	0	gum_04s.jpg	0	0	0	213.969847592263	214.019829026161	0.0499814338982105
156399	50	441	0	0	sausage	1365	132	1	stimuli\sausage\sausage_12s.jpg	11	-1	1	0	sausage_12s.jpg	0	0	0	214.069848006737	214.119830659678	0.049982652941253
156499	50	442	0	0	potpourri	1235	133	1	stimuli\potpourri\potpourri_01b.jpg	0	-1	1	0	potpourri_01b.jpg	0	0	0	214.169851834537	214.219834487507	0.0499826529703569
156599	50	443	0	0	water_filter	1789	134	1	stimuli\water_filter\water_filter_12s.jpg	11	-1	1	0	water_filter_12s.jpg	0	0	0	214.269859563297	214.319835145783	0.0499755824857857
156699	50	444	0	0	eye	564	135	1	stimuli\eye\eye_06s.jpg	5	-1	1	0	eye_06s.jpg	0	0	0	214.369869730173	214.419844581222	0.0499748510483187
156799	50	445	0	0	stirrup	1558	136	1	stimuli\stirrup\stirrup_07s.jpg	6	-1	1	0	stirrup_07s.jpg	0	0	0	214.469862586557	214.519841582369	0.0499789958121255
156899	50	446	0	0	mullet	1039	137	1	stimuli\mullet\mullet_08s.jpg	7	-1	1	0	mullet_08s.jpg	0	0	0	214.569862269593	214.619842484448	0.049980214855168
156999	50	447	0	0	bouquet	173	138	1	stimuli\bouquet\bouquet_09s.jpg	8	-1	1	0	bouquet_09s.jpg	0	0	0	214.66986682883	214.719848262728	0.0499814338982105
157099	50	448	0	0	mousetrap	1029	139	1	stimuli\mousetrap\mousetrap_01b.jpg	0	-1	1	0	mousetrap_01b.jpg	0	0	0	214.769870412827	214.819853065768	0.049982652941253
157199	50	449	0	0	jet	847	140	1	stimuli\jet\jet_12s.jpg	11	-1	1	0	jet_12s.jpg	0	0	0	214.869866926339	214.919854699314	0.0499877729744185
157299	50	450	0	0	fig	581	141	1	stimuli\fig\fig_03s.jpg	2	-1	1	0	fig_03s.jpg	0	0	0	214.969880994147	215.019852919504	0.0499719253566582
157399	50	451	0	0	harp	755	142	1	stimuli\harp\harp_07s.jpg	6	-1	1	0	harp_07s.jpg	0	0	0	215.069875313406	215.119857722544	0.0499824091384653
157499	50	452	0	0	gurney	728	143	1	stimuli\gurney\gurney_07s.jpg	6	-1	1	0	gurney_07s.jpg	0	0	0	215.169877922162	215.219862769387	0.0499848472245503
157599	50	453	0	0	pillow	1176	144	1	stimuli\pillow\pillow_02s.jpg	1	-1	1	0	pillow_02s.jpg	0	0	0	215.269882237597	215.319866109581	0.0499838719842955
157699	50	454	0	0	keyhole	871	145	1	stimuli\keyhole\keyhole_10s.jpg	9	-1	1	0	keyhole_10s.jpg	0	0	0	215.369839497784	215.419865548814	0.0500260510307271
157799	50	455	0	0	racket	1270	146	1	stimuli\racket\racket_09s.jpg	8	-1	1	0	racket_09s.jpg	0	0	0	215.469911836059	215.519865963317	0.0499541272583883
157899	50	456	0	0	toga	1669	147	1	stimuli\toga\toga_01b.jpg	0	-1	1	0	toga_01b.jpg	0	0	0	215.56989128291	215.619868572074	0.0499772891635075
157999	50	457	0	0	tarp	1628	148	1	stimuli\tarp\tarp_04s.jpg	3	-1	1	0	tarp_04s.jpg	0	0	0	215.669893891696	215.719873375114	0.049979483417701
158099	50	458	0	0	kitten	875	149	1	stimuli\kitten\kitten_12s.jpg	11	-1	1	0	kitten_12s.jpg	0	0	0	215.769898450933	215.819876715308	0.0499782643746585
158199	50	459	0	0	bat2	88	150	1	stimuli\bat2\bat2_01b.jpg	0	-1	1	0	bat2_01b.jpg	0	0	0	215.869873021584	215.919878836459	0.0500058148754761
158299	50	460	0	0	ski	1452	151	1	stimuli\ski\ski_09s.jpg	8	-1	1	0	ski_09s.jpg	0	0	0	215.969899523683	216.019879982341	0.0499804586579558
158399	50	461	0	0	drill	520	152	1	stimuli\drill\drill_11s.jpg	10	-1	1	0	drill_11s.jpg	0	0	0	216.06990213244	216.119884541578	0.0499824091384653
158499	50	462	0	0	seed	1401	153	1	stimuli\seed\seed_11s.jpg	10	-1	1	0	seed_11s.jpg	0	0	0	216.169908642158	216.21988763797	0.0499789958121255
158599	50	463	0	0	wine_bottle	1824	154	1	stimuli\wine_bottle\wine_bottle_01b.jpg	0	-1	1	0	wine_bottle_01b.jpg	0	0	0	216.269907349953	216.319888296246	0.0499809462926351
158699	50	464	0	0	bookshelf	167	155	1	stimuli\bookshelf\bookshelf_03s.jpg	2	-1	1	0	bookshelf_03s.jpg	0	0	0	216.369911665388	216.419892855483	0.0499811900954228
158799	50	465	0	0	stuffing	1575	156	1	stimuli\stuffing\stuffing_05s.jpg	4	-1	1	0	stuffing_05s.jpg	0	0	0	216.4699176875	216.519897902355	0.049980214855168
158899	50	466	0	0	swab	1590	157	1	stimuli\swab\swab_03s.jpg	2	-1	1	0	swab_03s.jpg	0	0	0	216.569918345776	216.619897829194	0.049979483417701
158999	50	467	0	0	stalagmite	1534	158	1	stimuli\stalagmite\stalagmite_12s.jpg	11	-1	1	0	stalagmite_12s.jpg	0	0	0	216.669919004053	216.719899218908	0.049980214855168
159099	50	468	0	0	yacht	1844	159	1	stimuli\yacht\yacht_11s.jpg	10	-1	1	0	yacht_11s.jpg	0	0	0	216.769921125204	216.819900121016	0.0499789958121255
159199	50	469	0	0	bolo_tie	157	160	1	stimuli\bolo_tie\bolo_tie_03s.jpg	2	-1	1	0	bolo_tie_03s.jpg	0	0	0	216.869925928244	216.919906630734	0.0499807024898473
159299	50	470	0	0	pancake	1104	161	1	stimuli\pancake\pancake_07s.jpg	6	-1	1	0	pancake_07s.jpg	0	0	0	216.969928780833	217.019912165211	0.0499833843787201
159399	50	471	0	0	hedgehog	774	162	1	stimuli\hedgehog\hedgehog_07s.jpg	6	-1	1	0	hedgehog_07s.jpg	0	0	0	217.069936265761	217.119909653964	0.0499733882024884
159499	50	472	0	0	dip	487	163	1	stimuli\dip\dip_06s.jpg	5	-1	1	0	dip_06s.jpg	0	0	0	217.169935461192	217.219916407485	0.0499809462926351
159599	50	473	0	0	polar_bear	1211	164	1	stimuli\polar_bear\polar_bear_06s.jpg	5	-1	1	0	polar_bear_06s.jpg	0	0	0	217.269933437579	217.319919991482	0.0499865539022721
159699	50	474	0	0	face_mask	570	165	1	stimuli\face_mask\face_mask_08s.jpg	7	-1	1	0	face_mask_08s.jpg	0	0	0	217.369939459662	217.41992186883	0.0499824091675691
159799	50	475	0	0	french_horn	642	166	1	stimuli\french_horn\french_horn_02s.jpg	1	-1	1	0	french_horn_02s.jpg	0	0	0	217.469941824616	217.519925209024	0.0499833844078239
159899	50	476	0	0	brooch	202	167	1	stimuli\brooch\brooch_11s.jpg	10	-1	1	0	brooch_11s.jpg	0	0	0	217.569944677205	217.619924160623	0.049979483417701
159999	50	477	0	0	staple_gun	1538	168	1	stimuli\staple_gun\staple_gun_07s.jpg	6	-1	1	0	staple_gun_07s.jpg	0	0	0	217.669946798356	217.719927257014	0.0499804586579558
160099	50	478	0	0	shell3	1419	169	1	stimuli\shell3\shell3_03s.jpg	2	-1	1	0	shell3_03s.jpg	0	0	0	217.769946968998	217.819929865771	0.0499828967731446
160199	50	479	0	0	urn	1749	170	1	stimuli\urn\urn_02s.jpg	1	-1	1	0	urn_02s.jpg	0	0	0	217.869955672999	217.919934912643	0.0499792396440171
160299	50	480	0	0	soy_sauce	1500	171	1	stimuli\soy_sauce\soy_sauce_12s.jpg	11	-1	1	0	soy_sauce_12s.jpg	0	0	0	217.969954380824	218.019935570919	0.0499811900954228
160399	50	481	0	0	steering_wheel	1546	172	1	stimuli\steering_wheel\steering_wheel_12s.jpg	11	-1	1	0	steering_wheel_12s.jpg	0	0	0	218.069956258143	218.119938667282	0.0499824091384653
160499	50	482	0	0	shortbread	1429	173	1	stimuli\shortbread\shortbread_03s.jpg	2	-1	1	0	shortbread_03s.jpg	0	0	0	218.169960085972	218.219940300827	0.049980214855168
160599	50	483	0	0	egg_roll	547	174	1	stimuli\egg_roll\egg_roll_11s.jpg	10	-1	1	0	egg_roll_11s.jpg	0	0	0	218.269962207094	218.319942421949	0.049980214855168
160699	50	484	0	0	origami	1083	175	1	stimuli\origami\origami_04s.jpg	3	-1	1	0	origami_04s.jpg	0	0	0	218.369970667292	218.4199445431	0.0499738758080639
160799	50	485	0	0	boomerang	168	176	1	stimuli\boomerang\boomerang_10s.jpg	9	-1	1	0	boomerang_10s.jpg	0	0	0	218.469970350328	218.519945689011	0.049975338682998
160899	50	486	0	0	cage	236	177	1	stimuli\cage\cage_03s.jpg	2	-1	1	0	cage_03s.jpg	0	0	0	218.569971496239	218.619956831099	0.0499853348592296
160999	50	487	0	0	tackle	1612	178	1	stimuli\tackle\tackle_10s.jpg	9	-1	1	0	tackle_10s.jpg	0	0	0	218.669979712635	218.719952125568	0.0499724129331298
161099	50	488	0	0	pumpkin	1253	179	1	stimuli\pumpkin\pumpkin_02s.jpg	1	-1	1	0	pumpkin_02s.jpg	0	0	0	218.76997549471	218.819956441002	0.0499809462926351
161199	50	489	0	0	creme_brulee	439	180	1	stimuli\creme_brulee\creme_brulee_11s.jpg	10	-1	1	0	creme_brulee_11s.jpg	0	0	0	218.869981516822	218.919958074519	0.0499765576969367
161299	50	490	0	0	landmine	894	181	1	stimuli\landmine\landmine_06s.jpg	5	-1	1	0	landmine_06s.jpg	0	0	0	218.969979493209	219.01996019567	0.0499807024607435
161399	50	491	0	0	butterfly	229	182	1	stimuli\butterfly\butterfly_11s.jpg	10	-1	1	0	butterfly_11s.jpg	0	0	0	219.069983321009	219.119965486345	0.0499821653356776
161499	50	492	0	0	crown	448	183	1	stimuli\crown\crown_02s.jpg	1	-1	1	0	crown_02s.jpg	0	0	0	219.169989586895	219.219969070342	0.0499794834468048
161599	50	493	0	0	easter_egg	543	184	1	stimuli\easter_egg\easter_egg_08s.jpg	7	-1	1	0	easter_egg_08s.jpg	0	0	0	219.269987563282	219.31996802197	0.0499804586870596
161699	50	494	0	0	peach	1129	185	1	stimuli\peach\peach_09n.jpg	8	-1	1	0	peach_09n.jpg	0	0	0	219.369993829197	219.41997575073	0.0499819215328898
161799	50	495	0	0	doorhandle	508	186	1	stimuli\doorhandle\doorhandle_02s.jpg	1	-1	1	0	doorhandle_02s.jpg	0	0	0	219.469993512233	219.519979090896	0.0499855786620174
161899	50	496	0	0	lid	923	187	1	stimuli\lid\lid_02s.jpg	1	-1	1	0	lid_02s.jpg	0	0	0	219.569999046711	219.619977554918	0.04997850820655
161999	50	497	0	0	noisemaker	1060	188	1	stimuli\noisemaker\noisemaker_02s.jpg	1	-1	1	0	noisemaker_02s.jpg	0	0	0	219.669998729776	219.71998162652	0.0499828967440408
162099	50	498	0	0	school_bus	1378	189	1	stimuli\school_bus\school_bus_05s.jpg	4	-1	1	0	school_bus_05s.jpg	0	0	0	219.770005239465	219.819983016234	0.049977776769083
162199	50	499	0	0	cord	407	190	1	stimuli\cord\cord_09s.jpg	8	-1	1	0	cord_09s.jpg	0	0	0	219.870005653967	219.919986600231	0.0499809462635312
162299	50	500	0	0	ice_pack	820	191	1	stimuli\ice_pack\ice_pack_02s.jpg	1	-1	1	0	ice_pack_02s.jpg	0	0	0	219.970007043681	220.019967997563	0.0499609538819641
162399	50	501	0	0	revolving_door	1305	192	1	stimuli\revolving_door\revolving_door_07s.jpg	6	-1	1	0	revolving_door_07s.jpg	0	0	0	220.070009164803	220.119993524422	0.0499843596189748
162499	50	502	0	0	mustard	1044	193	1	stimuli\mustard\mustard_03s.jpg	2	-1	1	1	mustard_03s.jpg	0	0	0	220.170017868804	220.219992963655	0.0499750948511064
162599	50	503	0	0	scarf	1377	194	1	stimuli\scarf\scarf_02s.jpg	1	-1	1	0	scarf_02s.jpg	0	0	0	220.270016332797	220.320000204811	0.0499838720133994
162699	50	504	0	0	espresso	560	195	1	stimuli\espresso\espresso_08s.jpg	7	-1	1	0	espresso_08s.jpg	0	0	0	220.370019672991	220.420000619284	0.0499809462926351
162799	50	505	0	0	christmas_card	340	196	1	stimuli\christmas_card\christmas_card_03s.jpg	2	-1	1	0	christmas_card_03s.jpg	1	0.360095651354641	1	220.470018380816	220.520004203281	0.0499858224648051
162899	50	506	0	0	minivan	1003	197	1	stimuli\minivan\minivan_03s.jpg	2	-1	1	0	minivan_03s.jpg	0	0	0	220.570026597183	220.620006812038	0.049980214855168
162999	50	507	0	0	bubble	207	198	1	stimuli\bubble\bubble_08s.jpg	7	-1	1	0	bubble_08s.jpg	0	0	0	220.670026524051	220.720005032228	0.0499785081774462
163099	50	508	0	0	figurine	582	199	1	stimuli\figurine\figurine_04s.jpg	3	-1	1	0	figurine_04s.jpg	0	0	0	220.770030108048	220.820010810537	0.0499807024898473
163199	50	509	0	0	pole	1213	200	1	stimuli\pole\pole_01s.jpg	0	-1	1	0	pole_01s.jpg	0	0	0	220.870034911088	220.920015369775	0.0499804586870596
163299	50	510	0	0	globe	679	201	1	stimuli\globe\globe_09s.jpg	8	-1	1	0	globe_09s.jpg	0	0	0	220.970035081758	221.020016271854	0.0499811900954228
163399	50	511	0	0	ukulele	1742	202	1	stimuli\ukulele\ukulele_07s.jpg	6	-1	1	0	ukulele_07s.jpg	0	0	0	221.070037446712	221.120018149202	0.0499807024898473
163499	50	512	0	0	oil	1072	203	1	stimuli\oil\oil_08s.jpg	7	-1	1	0	oil_08s.jpg	0	0	0	221.170040055469	221.220028072246	0.0499880167772062
163599	50	513	0	0	bracelet1	187	204	1	stimuli\bracelet1\bracelet1_10s.jpg	9	-1	1	0	bracelet1_10s.jpg	0	0	0	221.270041445183	221.320027999085	0.0499865539022721
163699	50	514	0	0	limousine	931	205	1	stimuli\limousine\limousine_03s.jpg	2	-1	1	0	limousine_03s.jpg	0	0	0	221.37004600442	221.42002670691	0.0499807024898473
163799	50	515	0	0	skateboard	1449	206	1	stimuli\skateboard\skateboard_07s.jpg	6	-1	1	0	skateboard_07s.jpg	0	0	0	221.470043980808	221.520028096624	0.0499841158161871
163899	50	516	0	0	beer	113	207	1	stimuli\beer\beer_03s.jpg	2	-1	1	0	beer_03s.jpg	0	0	0	221.570048540045	221.620032655861	0.0499841158161871
163999	50	517	0	0	horn	797	208	1	stimuli\horn\horn_07s.jpg	6	-1	1	0	horn_07s.jpg	0	0	0	221.670057000243	221.719960171293	0.0499031710496638
164099	50	518	0	0	videogame	1762	209	1	stimuli\videogame\videogame_04s.jpg	3	-1	1	0	videogame_04s.jpg	0	0	0	221.770058146125	221.820039580052	0.0499814339273144
164199	50	519	0	0	dough	513	210	1	stimuli\dough\dough_04s.jpg	3	-1	1	0	dough_04s.jpg	0	0	0	221.870060754911	221.920039506891	0.0499787519802339
164299	50	520	0	0	needle	1055	211	1	stimuli\needle\needle_03s.jpg	2	-1	1	0	needle_03s.jpg	0	0	0	221.970060194144	222.02004235948	0.0499821653356776
164399	50	521	0	0	meatloaf	990	212	1	stimuli\meatloaf\meatloaf_08s.jpg	7	-1	1	0	meatloaf_08s.jpg	0	0	0	222.07006841051	222.120045943477	0.0499775329662953
164499	50	522	0	0	keg	866	213	1	stimuli\keg\keg_12s.jpg	11	-1	1	0	keg_12s.jpg	0	0	0	222.170068824984	222.22005196556	0.0499831405759323
164599	50	523	0	0	bike	123	214	1	stimuli\bike\bike_10s.jpg	9	-1	1	0	bike_10s.jpg	0	0	0	222.270073384221	222.320052380033	0.0499789958121255
164699	50	524	0	0	hairnet	736	215	1	stimuli\hairnet\hairnet_05s.jpg	4	-1	1	0	hairnet_05s.jpg	0	0	0	222.370073798695	222.420053525944	0.0499797272495925
164799	50	525	0	0	grille	715	216	1	stimuli\grille\grille_02s.jpg	1	-1	1	0	grille_02s.jpg	0	0	0	222.470074457	222.520055159461	0.0499807024607435
164899	50	526	0	0	turban	1730	217	1	stimuli\turban\turban_06s.jpg	5	-1	1	0	turban_06s.jpg	0	0	0	222.570076578122	222.620056793006	0.0499802148842718
164999	50	527	0	0	feather	574	218	1	stimuli\feather\feather_11s.jpg	10	-1	1	0	feather_11s.jpg	0	0	0	222.6700821126	222.720036239858	0.0499541272583883
165099	50	528	0	0	stained_glass	1531	219	1	stimuli\stained_glass\stained_glass_12s.jpg	11	-1	1	0	stained_glass_12s.jpg	0	0	0	222.770085208991	222.820064936241	0.0499797272495925
165199	50	529	0	0	barrel	76	220	1	stimuli\barrel\barrel_03s.jpg	2	-1	1	0	barrel_03s.jpg	0	0	0	222.870085135859	222.920068520238	0.0499833843787201
165299	50	530	0	0	lego	913	221	1	stimuli\lego\lego_11s.jpg	10	-1	1	0	lego_11s.jpg	0	0	0	222.970088963659	223.020067228033	0.0499782643746585
165399	50	531	0	0	air_pump	6	222	1	stimuli\air_pump\air_pump_10s.jpg	9	-1	1	0	air_pump_10s.jpg	0	0	0	223.070090597175	223.12007081203	0.049980214855168
165499	50	532	0	0	champagne	304	223	1	stimuli\champagne\champagne_06s.jpg	5	-1	1	0	champagne_06s.jpg	0	0	0	223.170092718326	223.220072933182	0.049980214855168
165599	50	533	0	0	fossil	636	224	1	stimuli\fossil\fossil_06s.jpg	5	-1	1	0	fossil_06s.jpg	0	0	0	223.270093376603	223.320078955265	0.0499855786620174
165699	50	534	0	0	snowshoe	1485	225	1	stimuli\snowshoe\snowshoe_08s.jpg	7	-1	1	0	snowshoe_08s.jpg	0	0	0	223.370101349166	223.420079857373	0.04997850820655
165799	50	535	0	0	moose	1018	226	1	stimuli\moose\moose_09s.jpg	8	-1	1	0	moose_09s.jpg	0	0	0	223.4701283389	223.520083197567	0.0499548586667515
165899	50	536	0	0	duckling	526	227	1	stimuli\duckling\duckling_06s.jpg	5	-1	1	0	duckling_06s.jpg	0	0	0	223.570105347666	223.620083855843	0.0499785081774462
165999	50	537	0	0	dolly	501	228	1	stimuli\dolly\dolly_11s.jpg	10	-1	1	0	dolly_11s.jpg	0	0	0	223.67010673738	223.720094266522	0.0499875291425269
166099	50	538	0	0	file1	583	229	1	stimuli\file1\file1_05s.jpg	4	-1	1	0	file1_05s.jpg	0	0	0	223.770110321377	223.820091999078	0.0499816777009983
166199	50	539	0	0	peanut	1131	230	1	stimuli\peanut\peanut_04s.jpg	3	-1	1	0	peanut_04s.jpg	0	0	0	223.870114880614	223.920096070709	0.0499811900954228
166299	50	540	0	0	coop	404	231	1	stimuli\coop\coop_09s.jpg	8	-1	1	0	coop_09s.jpg	0	0	0	223.970116026525	224.020093071857	0.049977045331616
166399	50	541	0	0	fondue	626	232	1	stimuli\fondue\fondue_01s.jpg	0	-1	1	0	fondue_01s.jpg	0	0	0	224.070117172407	224.120098850137	0.0499816777301021
166499	50	542	0	0	cushion	466	233	1	stimuli\cushion\cushion_08s.jpg	7	-1	1	0	cushion_08s.jpg	0	0	0	224.170119293558	224.220100971288	0.0499816777301021
166599	50	543	0	0	cruise_ship	450	234	1	stimuli\cruise_ship\cruise_ship_08s.jpg	7	-1	1	0	cruise_ship_08s.jpg	0	0	0	224.270124096598	224.320103823848	0.0499797272495925
166699	50	544	0	0	filter	587	235	1	stimuli\filter\filter_08s.jpg	7	-1	1	0	filter_08s.jpg	0	0	0	224.370127436792	224.420109845931	0.0499824091384653
166799	50	545	0	0	chessboard	318	236	1	stimuli\chessboard\chessboard_09s.jpg	8	-1	1	0	chessboard_09s.jpg	0	0	0	224.470131020789	224.520111235644	0.049980214855168
166899	50	546	0	0	eye_patch	565	237	1	stimuli\eye_patch\eye_patch_01b.jpg	0	-1	1	0	eye_patch_01b.jpg	0	0	0	224.570131435263	224.620111162512	0.0499797272495925
166999	50	547	0	0	cigar	343	238	1	stimuli\cigar\cigar_06s.jpg	5	-1	1	0	cigar_06s.jpg	0	0	0	224.67013404402	224.720124986517	0.0499909424979705
167099	50	548	0	0	panties	1107	239	1	stimuli\panties\panties_04s.jpg	3	-1	1	0	panties_04s.jpg	0	0	0	224.770136652805	224.820117842901	0.0499811900954228
167199	50	549	0	0	bulldozer	215	240	1	stimuli\bulldozer\bulldozer_09s.jpg	8	-1	1	0	bulldozer_09s.jpg	0	0	0	224.870138530125	224.92011972022	0.0499811900954228
167299	50	550	0	0	bread	194	241	1	stimuli\bread\bread_02s.jpg	1	-1	1	0	bread_02s.jpg	0	0	0	224.970143333165	225.020134763268	0.049991430103546
167399	50	551	0	0	marble	972	242	1	stimuli\marble\marble_05s.jpg	4	-1	1	0	marble_05s.jpg	0	0	0	225.070156425732	225.120120549167	0.04996412343462
167499	50	552	0	0	sandpaper	1356	243	1	stimuli\sandpaper\sandpaper_09s.jpg	8	-1	1	0	sandpaper_09s.jpg	0	0	0	225.170139529742	225.220137786499	0.0499982567562256
167599	50	553	0	0	exerciser	561	244	1	stimuli\exerciser\exerciser_09s.jpg	8	-1	1	0	exerciser_09s.jpg	0	0	0	225.270158961357	225.320140151453	0.0499811900954228
167699	50	554	0	0	traffic_light	1696	245	1	stimuli\traffic_light\traffic_light_06s.jpg	5	-1	1	0	traffic_light_06s.jpg	0	0	0	225.370162545354	225.420126424986	0.0499638796318322
167799	50	555	0	0	projector	1242	246	1	stimuli\projector\projector_08s.jpg	7	-1	1	0	projector_08s.jpg	0	0	0	225.470161984587	225.5201278147	0.0499658301123418
167899	50	556	0	0	aardvark	0	247	1	stimuli\aardvark\aardvark_10s.jpg	9	-1	1	0	aardvark_10s.jpg	0	0	0	225.570151915279	225.620149440598	0.0499975253187586
167999	50	557	0	0	cardigan	273	248	1	stimuli\cardigan\cardigan_04s.jpg	3	-1	1	0	cardigan_04s.jpg	0	0	0	225.670165007847	225.720139127458	0.0499741196108516
168099	50	558	0	0	buoy	223	249	1	stimuli\buoy\buoy_02s.jpg	1	-1	1	0	buoy_02s.jpg	0	0	0	225.77016444708	225.820150025742	0.0499855786620174
168199	50	559	0	0	tractor	1695	250	1	stimuli\tractor\tractor_03s.jpg	2	-1	1	0	tractor_03s.jpg	0	0	0	225.870167787274	225.920147758326	0.0499799710523803
168299	50	560	0	0	ear	538	251	1	stimuli\ear\ear_07s.jpg	6	-1	1	0	ear_07s.jpg	0	0	0	225.970169420791	226.020151342324	0.0499819215328898
168399	50	561	0	0	magnifier	957	252	1	stimuli\magnifier\magnifier_09s.jpg	8	-1	1	1	magnifier_09s.jpg	0	0	0	226.070175686706	226.120151756797	0.0499760700913612
168499	50	562	0	0	puppy	1258	253	1	stimuli\puppy\puppy_01b.jpg	0	-1	1	0	puppy_01b.jpg	0	0	0	226.170173906896	226.220153146511	0.0499792396149132
168599	50	563	0	0	orchid	1081	254	1	stimuli\orchid\orchid_12s.jpg	11	-1	1	0	orchid_12s.jpg	0	0	0	226.270174321369	226.320157218113	0.0499828967440408
168699	50	564	0	0	baby	46	255	1	stimuli\baby\baby_02s.jpg	1	-1	1	0	baby_02s.jpg	0	0	0	226.370180831087	226.420160314505	0.049979483417701
168799	50	565	0	0	dial	483	256	1	stimuli\dial\dial_08s.jpg	7	-1	1	0	dial_08s.jpg	1	0.392217552172951	1	226.470183196041	226.520165361377	0.0499821653356776
168899	50	566	0	0	thermostat	1648	257	1	stimuli\thermostat\thermostat_04s.jpg	3	-1	1	0	thermostat_04s.jpg	0	0	0	226.570188730489	226.620173090138	0.0499843596480787
168999	50	567	0	0	razor_blade	1291	258	1	stimuli\razor_blade\razor_blade_08s.jpg	7	-1	1	0	razor_blade_08s.jpg	0	0	0	226.670186463074	226.720167896972	0.0499814338982105
169099	50	568	0	0	nightstand	1059	259	1	stimuli\nightstand\nightstand_11s.jpg	10	-1	1	0	nightstand_11s.jpg	0	0	0	226.770191997552	226.820169286686	0.0499772891344037
169199	50	569	0	0	block	143	260	1	stimuli\block\block_05s.jpg	4	-1	1	0	block_05s.jpg	0	0	0	226.87019289966	226.92017360212	0.0499807024607435
169299	50	570	0	0	carriage	276	261	1	stimuli\carriage\carriage_02s.jpg	1	-1	1	0	carriage_02s.jpg	0	0	0	226.970195264585	227.020174991834	0.0499797272495925
169399	50	571	0	0	hanger	751	262	1	stimuli\hanger\hanger_03s.jpg	2	-1	1	0	hanger_03s.jpg	0	0	0	227.070227861928	227.120192472968	0.0499646110401955
169499	50	572	0	0	mulch	1038	263	1	stimuli\mulch\mulch_07s.jpg	6	-1	1	0	mulch_07s.jpg	0	0	0	227.170210722106	227.220195081754	0.0499843596480787
169599	50	573	0	0	compass	392	264	1	stimuli\compass\compass_03s.jpg	2	-1	1	0	compass_03s.jpg	0	0	0	227.270210648974	227.320190863829	0.049980214855168
169699	50	574	0	0	croissant	442	265	1	stimuli\croissant\croissant_06s.jpg	5	-1	1	0	croissant_06s.jpg	0	0	0	227.370199604396	227.420195423067	0.0499958186701406
169799	50	575	0	0	plum	1203	266	1	stimuli\plum\plum_09s.jpg	8	-1	1	0	plum_09s.jpg	0	0	0	227.470206114114	227.520199007064	0.0499928929493763
169899	50	576	0	0	cymbal	468	267	1	stimuli\cymbal\cymbal_04s.jpg	3	-1	1	0	cymbal_04s.jpg	0	0	0	227.570204821939	227.620201128215	0.0499963062757161
169999	50	577	0	0	station_wagon	1542	268	1	stimuli\station_wagon\station_wagon_08s.jpg	7	-1	1	0	station_wagon_08s.jpg	0	0	0	227.670221571636	227.720203736972	0.0499821653356776
170099	50	578	0	0	honey	788	269	1	stimuli\honey\honey_06s.jpg	5	-1	1	0	honey_06s.jpg	0	0	0	227.770225155633	227.820206345728	0.0499811900954228
170199	50	579	0	0	wrist	1842	270	1	stimuli\wrist\wrist_08s.jpg	7	-1	1	0	wrist_08s.jpg	0	0	0	227.870229471067	227.920193594502	0.04996412343462
170299	50	580	0	0	seesaw	1402	271	1	stimuli\seesaw\seesaw_12s.jpg	11	-1	1	0	seesaw_12s.jpg	0	0	0	227.970215013163	228.020194740413	0.0499797272495925
170399	50	581	0	0	battery	97	272	1	stimuli\battery\battery_09n.jpg	8	-1	1	0	battery_09n.jpg	0	0	0	228.070237614302	228.120213196788	0.0499755824857857
170499	50	582	0	0	turtle	1736	273	1	stimuli\turtle\turtle_01b.jpg	0	-1	1	0	turtle_01b.jpg	0	0	0	228.17023754117	228.220198982686	0.0499614415166434
170599	50	583	0	0	octopus	1070	274	1	stimuli\octopus\octopus_02s.jpg	1	-1	1	0	octopus_02s.jpg	0	0	0	228.270239662292	228.320219145739	0.0499794834468048
170699	50	584	0	0	lion	933	275	1	stimuli\lion\lion_05s.jpg	4	-1	1	0	lion_05s.jpg	0	0	0	228.37024251488	228.420223461173	0.0499809462926351
170799	50	585	0	0	straw2	1569	276	1	stimuli\straw2\straw2_05s.jpg	4	-1	1	0	straw2_05s.jpg	0	0	0	228.470247805555	228.520207296591	0.0499594910361338
170899	50	586	0	0	raspberry	1284	277	1	stimuli\raspberry\raspberry_03n.jpg	2	-1	1	0	raspberry_03n.jpg	0	0	0	228.570263336209	228.620221852034	0.0499585158249829
170999	50	587	0	0	paddle	1094	278	1	stimuli\paddle\paddle_10s.jpg	9	-1	1	0	paddle_10s.jpg	0	0	0	228.670244733541	228.720238601731	0.049993868189631
171099	50	588	0	0	fur_coat	650	279	1	stimuli\fur_coat\fur_coat_09s.jpg	8	-1	1	0	fur_coat_09s.jpg	0	0	0	228.770246123255	228.820225850504	0.0499797272495925
171199	50	589	0	0	wineglass	1826	280	1	stimuli\wineglass\wineglass_11s.jpg	10	-1	1	0	wineglass_11s.jpg	0	0	0	228.870247025363	228.920227727824	0.0499807024607435
171299	50	590	0	0	braid	190	281	1	stimuli\braid\braid_11s.jpg	10	-1	1	0	braid_11s.jpg	0	0	0	228.970249146485	229.020230092778	0.0499809462926351
171399	50	591	0	0	furnace	651	282	1	stimuli\furnace\furnace_07s.jpg	6	-1	1	0	furnace_07s.jpg	0	0	0	229.070249560958	229.120231726294	0.0499821653356776
171499	50	592	0	0	coffee_bean	378	283	1	stimuli\coffee_bean\coffee_bean_11s.jpg	10	-1	1	0	coffee_bean_11s.jpg	0	0	0	229.170255339268	229.220235066488	0.0499797272204887
171599	50	593	0	0	revolver	1304	284	1	stimuli\revolver\revolver_04s.jpg	3	-1	1	0	revolver_04s.jpg	0	0	0	229.270261361351	229.320243526687	0.0499821653356776
171699	50	594	0	0	fudge	647	285	1	stimuli\fudge\fudge_01b.jpg	0	-1	1	0	fudge_01b.jpg	0	0	0	229.370263970108	229.420240527834	0.0499765577260405
171799	50	595	0	0	knee	877	286	1	stimuli\knee\knee_02s.jpg	1	-1	1	0	knee_02s.jpg	0	0	0	229.470262434101	229.52024216135	0.0499797272495925
171899	50	596	0	0	sheath	1413	287	1	stimuli\sheath\sheath_03s.jpg	2	-1	1	0	sheath_03s.jpg	0	0	0	229.570266018127	229.620244770107	0.0499787519802339
171999	50	597	0	0	pear	1133	288	1	stimuli\pear\pear_11s.jpg	10	-1	1	0	pear_11s.jpg	0	0	0	229.670268383052	229.720249085542	0.0499807024898473
172099	50	598	0	0	pizza	1192	289	1	stimuli\pizza\pizza_10s.jpg	9	-1	1	0	pizza_10s.jpg	0	0	0	229.77027123564	229.820251938101	0.0499807024607435
172199	50	599	0	0	birdhouse	131	290	1	stimuli\birdhouse\birdhouse_05s.jpg	4	-1	1	0	birdhouse_05s.jpg	0	0	0	229.870276770118	229.920254303055	0.0499775329371914
172299	50	600	0	0	step_stool	1548	291	1	stimuli\step_stool\step_stool_08s.jpg	7	-1	1	0	step_stool_08s.jpg	0	0	0	229.970275234111	230.020257155644	0.0499819215328898
172399	50	601	0	0	clothespin	363	292	1	stimuli\clothespin\clothespin_03s.jpg	2	-1	1	0	clothespin_03s.jpg	0	0	0	230.070279549545	230.120259764401	0.049980214855168
172499	50	602	0	0	turbine	1731	293	1	stimuli\turbine\turbine_09s.jpg	8	-1	1	0	turbine_09s.jpg	0	0	0	230.170281183062	230.220265055075	0.0499838720133994
172599	50	603	0	0	road_sign	1315	294	1	stimuli\road_sign\road_sign_04s.jpg	3	-1	1	0	road_sign_04s.jpg	0	0	0	230.270286229934	230.320267663832	0.0499814338982105
172699	50	604	0	0	trunk	1722	295	1	stimuli\trunk\trunk_09s.jpg	8	-1	1	0	trunk_09s.jpg	0	0	0	230.37028786345	230.420268565911	0.0499807024607435
172799	50	605	0	0	air_conditioner	4	296	1	stimuli\air_conditioner\air_conditioner_05s.jpg	4	-1	1	0	air_conditioner_05s.jpg	0	0	0	230.470314121718	230.520270199457	0.0499560777388979
172899	50	606	0	0	gondola	691	297	1	stimuli\gondola\gondola_05s.jpg	4	-1	1	0	gondola_05s.jpg	0	0	0	230.570292105724	230.620274514862	0.0499824091384653
172999	50	607	0	0	cement_mixer	294	298	1	stimuli\cement_mixer\cement_mixer_11s.jpg	10	-1	1	0	cement_mixer_11s.jpg	0	0	0	230.670296664961	230.720289314108	0.0499926491465885
173099	50	608	0	0	spring_roll	1521	299	1	stimuli\spring_roll\spring_roll_01b.jpg	0	-1	1	0	spring_roll_01b.jpg	0	0	0	230.770303418481	230.820281682885	0.0499782644037623
173199	50	609	0	0	dishrag	490	300	1	stimuli\dishrag\dishrag_06s.jpg	5	-1	1	0	dishrag_06s.jpg	0	0	0	230.870307490113	230.920291118295	0.0499836281815078
173299	50	610	0	0	grinder	716	301	1	stimuli\grinder\grinder_08s.jpg	7	-1	1	0	grinder_08s.jpg	0	0	0	230.970311561716	231.020280073717	0.0499685120012145
173399	50	611	0	0	cassette	283	302	1	stimuli\cassette\cassette_01b.jpg	0	-1	1	0	cassette_01b.jpg	0	0	0	231.070314414304	231.120300724404	0.0499863100994844
173499	50	612	0	0	clipper1	356	303	1	stimuli\clipper1\clipper1_05s.jpg	4	-1	1	0	clipper1_05s.jpg	0	0	0	231.170300200203	231.220296750311	0.0499965501076076
173599	50	613	0	0	nose	1063	304	1	stimuli\nose\nose_11s.jpg	10	-1	1	0	nose_11s.jpg	0	0	0	231.270304271835	231.320287900016	0.0499836281815078
173699	50	614	0	0	magnet	956	305	1	stimuli\magnet\magnet_04s.jpg	3	-1	1	0	magnet_04s.jpg	0	0	0	231.370322484378	231.420324642095	0.0500021577172447
173799	50	615	0	0	bean	102	306	1	stimuli\bean\bean_10s.jpg	9	-1	1	0	bean_10s.jpg	0	0	0	231.470308026503	231.520305795624	0.0499977691215463
173899	50	616	0	0	lime	930	307	1	stimuli\lime\lime_07s.jpg	6	-1	1	0	lime_07s.jpg	0	0	0	231.570330627641	231.620309623453	0.0499789958121255
173999	50	617	0	0	cork	409	308	1	stimuli\cork\cork_07s.jpg	6	-1	1	0	cork_07s.jpg	0	0	0	231.670313244016	231.720293946477	0.0499807024607435
182349	50	618	0	0	scaffolding	1370	0	2	stimuli\scaffolding\scaffolding_01b.jpg	0	-1	2	0	scaffolding_01b.jpg	0	0	0	240.020552165137	240.070528479031	0.0499763138941489
182449	50	619	0	0	raccoon	1266	1	2	stimuli\raccoon\raccoon_07n.jpg	6	-1	2	0	raccoon_07n.jpg	0	0	0	240.120555749134	240.170526943024	0.0499711938900873
182549	50	620	0	0	grater	708	2	2	stimuli\grater\grater_12s.jpg	11	-1	2	0	grater_12s.jpg	0	0	0	240.220553237887	240.270531746093	0.04997850820655
182649	50	621	0	0	lawnmower	905	3	2	stimuli\lawnmower\lawnmower_04n.jpg	3	-1	2	0	lawnmower_04n.jpg	0	0	0	240.3205546276	240.370534598653	0.0499799710523803
182749	50	622	0	0	cow	426	4	2	stimuli\cow\cow_12s.jpg	11	-1	2	0	cow_12s.jpg	0	0	0	240.420557967795	240.470538426453	0.0499804586579558
182849	50	623	0	0	bubble_wrap	208	5	2	stimuli\bubble_wrap\bubble_wrap_02s.jpg	1	-1	2	0	bubble_wrap_02s.jpg	0	0	0	240.520565696555	240.570542741887	0.049977045331616
182949	50	624	0	0	honeypot	790	6	2	stimuli\honeypot\honeypot_01b.jpg	0	-1	2	0	honeypot_01b.jpg	0	0	0	240.620563672943	240.670543156361	0.049979483417701
183049	50	625	0	0	rollerskate	1327	7	2	stimuli\rollerskate\rollerskate_09s.jpg	8	-1	2	0	rollerskate_09s.jpg	0	0	0	240.720564331219	240.770545765117	0.0499814338982105
183149	50	626	0	0	boat	154	8	2	stimuli\boat\boat_02s.jpg	1	-1	2	0	boat_02s.jpg	0	0	0	240.820567671413	240.870547642466	0.0499799710523803
183249	50	627	0	0	sickle	1441	9	2	stimuli\sickle\sickle_08s.jpg	7	-1	2	0	sickle_08s.jpg	0	0	0	240.920573205891	240.970895241655	0.0503220357641112
183349	50	628	0	0	penholder	1146	10	2	stimuli\penholder\penholder_08s.jpg	7	-1	2	0	penholder_08s.jpg	0	0	0	241.020576789888	241.070557004743	0.049980214855168
183449	50	629	0	0	lantern	895	11	2	stimuli\lantern\lantern_07s.jpg	6	-1	2	0	lantern_07s.jpg	0	0	0	241.120576229121	241.170557175414	0.0499809462926351
183549	50	630	0	0	sailboat	1347	12	2	stimuli\sailboat\sailboat_05s.jpg	4	-1	2	0	sailboat_05s.jpg	0	0	0	241.220575180749	241.270559540368	0.0499843596189748
183649	50	631	0	0	blueberry	149	13	2	stimuli\blueberry\blueberry_03s.jpg	2	-1	2	0	blueberry_03s.jpg	0	0	0	241.320580471394	241.370561173884	0.0499807024898473
183749	50	632	0	0	hat	757	14	2	stimuli\hat\hat_04s.jpg	3	-1	2	0	hat_04s.jpg	0	0	0	241.42058210494	241.470567927405	0.0499858224648051
183849	50	633	0	0	costume	419	15	2	stimuli\costume\costume_09s.jpg	8	-1	2	0	costume_09s.jpg	0	0	0	241.520588858461	241.570575899968	0.0499870415078476
183949	50	634	0	0	wheat	1805	16	2	stimuli\wheat\wheat_01b.jpg	0	-1	2	0	wheat_01b.jpg	0	0	0	241.620590248174	241.670571194467	0.0499809462926351
184049	50	635	0	0	hookah	795	17	2	stimuli\hookah\hookah_10s.jpg	9	-1	2	0	hookah_10s.jpg	0	0	0	241.720592125494	241.770574778464	0.0499826529703569
184149	50	636	0	0	turf	1732	18	2	stimuli\turf\turf_04s.jpg	3	-1	2	0	turf_04s.jpg	0	0	0	241.820593027602	241.870573242457	0.049980214855168
184249	50	637	0	0	tortilla	1687	19	2	stimuli\tortilla\tortilla_04s.jpg	3	-1	2	0	tortilla_04s.jpg	0	0	0	241.920597830642	241.970577070257	0.0499792396149132
184349	50	638	0	0	roulette_wheel	1335	20	2	stimuli\roulette_wheel\roulette_wheel_08s.jpg	7	-1	2	0	roulette_wheel_08s.jpg	0	0	0	242.02059970799	242.070580654254	0.0499809462635312
184449	50	639	0	0	grits	717	21	2	stimuli\grits\grits_10s.jpg	9	-1	2	0	grits_10s.jpg	0	0	0	242.120605242439	242.17058326304	0.0499780206009746
184549	50	640	0	0	backgammon	48	22	2	stimuli\backgammon\backgammon_02s.jpg	1	-1	2	0	backgammon_02s.jpg	0	0	0	242.220605169307	242.270592698449	0.0499875291425269
184649	50	641	0	0	football	629	23	2	stimuli\football\football_09s.jpg	8	-1	2	0	football_09s.jpg	0	0	0	242.320606802823	242.370589455793	0.0499826529703569
184749	50	642	0	0	barbell	72	24	2	stimuli\barbell\barbell_04s.jpg	3	-1	2	0	barbell_04s.jpg	0	0	0	242.420612337301	242.47059011407	0.049977776769083
184849	50	643	0	0	highlighter	778	25	2	stimuli\highlighter\highlighter_05s.jpg	4	-1	2	0	highlighter_05s.jpg	0	0	0	242.520613727014	242.57059589235	0.0499821653356776
184949	50	644	0	0	clock	359	26	2	stimuli\clock\clock_10n.jpg	9	-1	2	0	clock_10n.jpg	0	0	0	242.62061438532	242.670595331583	0.0499809462635312
185049	50	645	0	0	container	398	27	2	stimuli\container\container_10s.jpg	9	-1	2	0	container_10s.jpg	0	0	0	242.720619432162	242.770602085133	0.0499826529703569
185149	50	646	0	0	yo-yo	1847	28	2	stimuli\yo-yo\yo-yo_10s.jpg	9	-1	2	0	yo-yo_10s.jpg	0	0	0	242.820625698077	242.870602743409	0.049977045331616
185249	50	647	0	0	drain	515	29	2	stimuli\drain\drain_06s.jpg	5	-1	2	0	drain_06s.jpg	0	0	0	242.920625381113	242.97060486456	0.0499794834468048
185349	50	648	0	0	blower	145	30	2	stimuli\blower\blower_06s.jpg	5	-1	2	0	blower_06s.jpg	0	0	0	243.020626283222	243.070612105686	0.0499858224648051
185449	50	649	0	0	hammer	741	31	2	stimuli\hammer\hammer_01b.jpg	0	-1	2	0	hammer_01b.jpg	0	0	0	243.120630111021	243.170612276357	0.0499821653356776
185549	50	650	0	0	computer_screen	395	32	2	stimuli\computer_screen\computer_screen_11s.jpg	10	-1	2	0	computer_screen_11s.jpg	0	0	0	243.220634182653	243.270614885114	0.0499807024607435
185649	50	651	0	0	thermos	1647	33	2	stimuli\thermos\thermos_12s.jpg	11	-1	2	0	thermos_12s.jpg	0	0	0	243.320632890449	243.37061651863	0.0499836281815078
185749	50	652	0	0	urinal	1748	34	2	stimuli\urinal\urinal_07s.jpg	6	-1	2	0	urinal_07s.jpg	0	0	0	243.42063403636	243.470623515983	0.0499894796230365
185849	50	653	0	0	spur	1525	35	2	stimuli\spur\spur_01b.jpg	0	-1	2	0	spur_01b.jpg	0	0	0	243.52064542225	243.570610520925	0.0499650986748748
185949	50	654	0	0	stethoscope	1550	36	2	stimuli\stethoscope\stethoscope_06n.jpg	5	-1	2	0	stethoscope_06n.jpg	0	0	0	243.620631939586	243.670630196342	0.0499982567562256
186049	50	655	0	0	kangaroo	862	37	2	stimuli\kangaroo\kangaroo_06n.jpg	5	-1	2	0	kangaroo_06n.jpg	0	0	0	243.720631135016	243.770630367013	0.0499992319964804
