onset	duration	eventnumber	blocksequencenumber	isteststim	object	objectnumber	presentationnumber	sequencenumber	stim	stimnumber	teststimnumber	withinsequencenumber	istarget	stimname	response	rt	correct	time_stimon	time_stimoff	stimdur
93387	50	0	0	0	blanket	136	0	0	stimuli\blanket\blanket_02s.jpg	1	-1	0	0	blanket_02s.jpg	0	0	0	171.333864599932	171.383004799951	0.0491402000188828
93487	50	1	0	0	grass	705	1	0	stimuli\grass\grass_09s.jpg	8	-1	0	0	grass_09s.jpg	0	0	0	171.433031500084	171.483008600073	0.0499770999886096
93587	50	2	0	0	jersey	846	2	0	stimuli\jersey\jersey_09s.jpg	8	-1	0	0	jersey_09s.jpg	0	0	0	171.533038199879	171.583011100069	0.0499729001894593
93687	50	3	0	0	bus	226	3	0	stimuli\bus\bus_01b.jpg	0	-1	0	0	bus_01b.jpg	0	0	0	171.633030799916	171.683022500016	0.0499917000997812
93787	50	4	0	0	gate	662	4	0	stimuli\gate\gate_10s.jpg	9	-1	0	0	gate_10s.jpg	0	0	0	171.73303360003	171.783023499884	0.0499898998532444
93887	50	5	0	0	star_fruit	1540	5	0	stimuli\star_fruit\star_fruit_11s.jpg	10	-1	0	0	star_fruit_11s.jpg	0	0	0	171.833037599921	171.883018299937	0.0499807000160217
93987	50	6	0	0	pecan	1135	6	0	stimuli\pecan\pecan_12s.jpg	11	-1	0	0	pecan_12s.jpg	0	0	0	171.933039400028	171.983021100052	0.0499817000236362
94087	50	7	0	0	nail_clippers	1047	7	0	stimuli\nail_clippers\nail_clippers_01b.jpg	0	-1	0	0	nail_clippers_01b.jpg	0	0	0	172.03304530005	172.083394499961	0.0503491999115795
94187	50	8	0	0	thumbtack	1654	8	0	stimuli\thumbtack\thumbtack_10s.jpg	9	-1	0	0	thumbtack_10s.jpg	0	0	0	172.133046699921	172.183025500039	0.0499788001179695
94287	50	9	0	0	beaker	101	9	0	stimuli\beaker\beaker_10s.jpg	9	-1	0	0	beaker_10s.jpg	0	0	0	172.233046700014	172.28302880004	0.049982100026682
94387	50	10	0	0	scuba	1392	10	0	stimuli\scuba\scuba_04s.jpg	3	-1	0	0	scuba_04s.jpg	0	0	0	172.333049099892	172.383032300044	0.0499832001514733
94487	50	11	0	0	bathtub	91	11	0	stimuli\bathtub\bathtub_10s.jpg	9	-1	0	0	bathtub_10s.jpg	0	0	0	172.433054599911	172.483032000018	0.0499774001073092
94587	50	12	0	0	sticker	1553	12	0	stimuli\sticker\sticker_11s.jpg	10	-1	0	0	sticker_11s.jpg	0	0	0	172.533052699873	172.583033399889	0.0499807000160217
94687	50	13	0	0	sparkler	1507	13	0	stimuli\sparkler\sparkler_06s.jpg	5	-1	0	0	sparkler_06s.jpg	0	0	0	172.63307760004	172.683036600007	0.0499589999672025
94787	50	14	0	0	eye_patch	565	14	0	stimuli\eye_patch\eye_patch_06s.jpg	5	-1	0	0	eye_patch_06s.jpg	0	0	0	172.733060600003	172.783074399922	0.0500137999188155
94887	50	15	0	0	cherry	316	15	0	stimuli\cherry\cherry_05s.jpg	4	-1	0	0	cherry_05s.jpg	0	0	0	172.833061199868	172.883048200049	0.0499870001804084
94987	50	16	0	0	limousine	931	16	0	stimuli\limousine\limousine_08s.jpg	7	-1	0	0	limousine_08s.jpg	0	0	0	172.933062500088	172.983043299988	0.0499807999003679
95087	50	17	0	0	spacesuit	1502	17	0	stimuli\spacesuit\spacesuit_04s.jpg	3	-1	0	0	spacesuit_04s.jpg	0	0	0	173.03306460008	173.083046399988	0.0499817999079823
95187	50	18	0	0	baton1	92	18	0	stimuli\baton1\baton1_06s.jpg	5	-1	0	0	baton1_06s.jpg	0	0	0	173.133065100061	173.183048499981	0.0499833999201655
95287	50	19	0	0	razor_blade	1291	19	0	stimuli\razor_blade\razor_blade_01b.jpg	0	-1	0	0	razor_blade_01b.jpg	0	0	0	173.23307200009	173.28305139998	0.0499793998897076
95387	50	20	0	0	parachute	1118	20	0	stimuli\parachute\parachute_09s.jpg	8	-1	0	0	parachute_09s.jpg	0	0	0	173.333071799949	173.383073600009	0.0500018000602722
95487	50	21	0	0	mouthpiece	1032	21	0	stimuli\mouthpiece\mouthpiece_08s.jpg	7	-1	0	0	mouthpiece_08s.jpg	0	0	0	173.433076200075	173.483056399971	0.0499801998957992
95587	50	22	0	0	crown	448	22	0	stimuli\crown\crown_01b.jpg	0	-1	0	0	crown_01b.jpg	0	0	0	173.533087699907	173.583059899975	0.0499722000677139
95687	50	23	0	0	van	1752	23	0	stimuli\van\van_08s.jpg	7	-1	0	0	van_08s.jpg	0	0	0	173.633078299928	173.683060599957	0.0499823000282049
95787	50	24	0	0	wine_cooler	1825	24	0	stimuli\wine_cooler\wine_cooler_04s.jpg	3	-1	0	0	wine_cooler_04s.jpg	0	0	0	173.733080500038	173.78306669998	0.0499861999414861
95887	50	25	0	0	potpie	1234	25	0	stimuli\potpie\potpie_03s.jpg	2	-1	0	0	potpie_03s.jpg	0	0	0	173.833090000087	173.883097500075	0.0500074999872595
95987	50	26	0	0	filing_cabinet	585	26	0	stimuli\filing_cabinet\filing_cabinet_12s.jpg	11	-1	0	0	filing_cabinet_12s.jpg	0	0	0	173.933088900056	173.98306889995	0.0499799998942763
96087	50	27	0	0	pill	1174	27	0	stimuli\pill\pill_02s.jpg	1	-1	0	1	pill_02s.jpg	0	0	0	174.033091600053	174.083069900051	0.0499782999977469
96187	50	28	0	0	hawk	760	28	0	stimuli\hawk\hawk_09s.jpg	8	-1	0	0	hawk_09s.jpg	0	0	0	174.133092399919	174.183073600056	0.0499812001362443
96287	50	29	0	0	ice_cube	819	29	0	stimuli\ice_cube\ice_cube_05s.jpg	4	-1	0	0	ice_cube_05s.jpg	0	0	0	174.233094299911	174.283076199936	0.0499819000251591
96387	50	30	0	0	bamboo	62	30	0	stimuli\bamboo\bamboo_12s.jpg	11	-1	0	0	bamboo_12s.jpg	0	0	0	174.333095700014	174.383078400046	0.0499827000312507
96487	50	31	0	0	doorknob	509	31	0	stimuli\doorknob\doorknob_08s.jpg	7	-1	0	0	doorknob_08s.jpg	0	0	0	174.433098899899	174.483079500031	0.0499806001316756
96587	50	32	0	0	soap	1487	32	0	stimuli\soap\soap_03s.jpg	2	-1	0	0	soap_03s.jpg	0	0	0	174.533102399902	174.583083600039	0.0499812001362443
96687	50	33	0	0	casserole	282	33	0	stimuli\casserole\casserole_11s.jpg	10	-1	0	0	casserole_11s.jpg	0	0	0	174.633107499918	174.683086300036	0.0499788001179695
96787	50	34	0	0	breadstick	196	34	0	stimuli\breadstick\breadstick_03s.jpg	2	-1	0	0	breadstick_03s.jpg	0	0	0	174.733105899999	174.783102399902	0.0499964999035001
96887	50	35	0	0	keg	866	35	0	stimuli\keg\keg_10s.jpg	9	-1	0	0	keg_10s.jpg	0	0	0	174.833108999999	174.883088900009	0.0499799000099301
96987	50	36	0	0	sofa_bed	1492	36	0	stimuli\sofa_bed\sofa_bed_10s.jpg	9	-1	0	0	sofa_bed_10s.jpg	0	0	0	174.933111899998	174.983091699891	0.0499797998927534
97087	50	37	0	0	hearing_aid	770	37	0	stimuli\hearing_aid\hearing_aid_07s.jpg	6	-1	0	0	hearing_aid_07s.jpg	0	0	0	175.033112699864	175.083095500013	0.0499828001484275
97187	50	38	0	0	gearshift	668	38	0	stimuli\gearshift\gearshift_11n.jpg	10	-1	0	0	gearshift_11n.jpg	0	0	0	175.133115599863	175.183095999993	0.0499804001301527
97287	50	39	0	0	suitcase	1581	39	0	stimuli\suitcase\suitcase_11s.jpg	10	-1	0	0	suitcase_11s.jpg	0	0	0	175.233118099859	175.28310130001	0.0499832001514733
97387	50	40	0	0	hair	733	40	0	stimuli\hair\hair_09s.jpg	8	-1	0	0	hair_09s.jpg	0	0	0	175.333121999865	175.383102099877	0.049980100011453
97487	50	41	0	0	eggnog	549	41	0	stimuli\eggnog\eggnog_11s.jpg	10	-1	0	0	eggnog_11s.jpg	0	0	0	175.433122900082	175.483104499988	0.0499815999064595
97587	50	42	0	0	rust	1342	42	0	stimuli\rust\rust_08s.jpg	7	-1	0	0	rust_08s.jpg	0	0	0	175.533127799863	175.583106599981	0.0499788001179695
97687	50	43	0	0	ice	816	43	0	stimuli\ice\ice_03s.jpg	2	-1	0	0	ice_03s.jpg	0	0	0	175.633130599977	175.683110999875	0.0499803998973221
97787	50	44	0	0	purse	1259	44	0	stimuli\purse\purse_02s.jpg	1	-1	0	0	purse_02s.jpg	0	0	0	175.733130499953	175.783113499871	0.0499829999171197
97887	50	45	0	0	racket	1270	45	0	stimuli\racket\racket_05s.jpg	4	-1	0	0	racket_05s.jpg	0	0	0	175.833132700063	175.883115399862	0.0499826997984201
97987	50	46	0	0	beaver	107	46	0	stimuli\beaver\beaver_06s.jpg	5	-1	0	0	beaver_06s.jpg	0	0	0	175.933136200067	175.98311999999	0.0499837999232113
98087	50	47	0	0	sandbox	1354	47	0	stimuli\sandbox\sandbox_09s.jpg	8	-1	0	0	sandbox_09s.jpg	0	0	0	176.033137500053	176.083119800081	0.0499823000282049
98187	50	48	0	0	jellyfish	845	48	0	stimuli\jellyfish\jellyfish_10s.jpg	9	-1	0	0	jellyfish_10s.jpg	0	0	0	176.133140499936	176.183121399954	0.0499809000175446
98287	50	49	0	0	shaker	1408	49	0	stimuli\shaker\shaker_08s.jpg	7	-1	0	0	shaker_08s.jpg	0	0	0	176.233143100049	176.283123400062	0.0499803000129759
98387	50	50	0	0	paper_plate	1114	50	0	stimuli\paper_plate\paper_plate_12s.jpg	11	-1	0	0	paper_plate_12s.jpg	0	0	0	176.333144899923	176.383125999942	0.0499811000190675
98487	50	51	0	0	puppet	1257	51	0	stimuli\puppet\puppet_06s.jpg	5	-1	0	0	puppet_06s.jpg	0	0	0	176.433147599921	176.483129800064	0.0499822001438588
98587	50	52	0	0	couch	422	52	0	stimuli\couch\couch_08n.jpg	7	-1	0	0	couch_08n.jpg	0	0	0	176.533149000024	176.583135900088	0.0499869000632316
98687	50	53	0	0	rooster	1330	53	0	stimuli\rooster\rooster_05s.jpg	4	-1	0	0	rooster_05s.jpg	0	0	0	176.633171899943	176.683133699931	0.0499617999885231
98787	50	54	0	0	submarine	1577	54	0	stimuli\submarine\submarine_07s.jpg	6	-1	0	0	submarine_07s.jpg	0	0	0	176.733152600005	176.783135799924	0.0499831999186426
98887	50	55	0	0	bison	134	55	0	stimuli\bison\bison_07n.jpg	6	-1	0	0	bison_07n.jpg	0	0	0	176.833158999914	176.883140099933	0.0499811000190675
98987	50	56	0	0	pepperoni	1153	56	0	stimuli\pepperoni\pepperoni_07s.jpg	6	-1	0	0	pepperoni_07s.jpg	0	0	0	176.933159200009	176.983142199926	0.0499829999171197
99087	50	57	0	0	drum	522	57	0	stimuli\drum\drum_05s.jpg	4	-1	0	0	drum_05s.jpg	0	0	0	177.033164700028	177.083141499897	0.0499767998699099
99187	50	58	0	0	panties	1107	58	0	stimuli\panties\panties_01b.jpg	0	-1	0	0	panties_01b.jpg	0	0	0	177.133165099891	177.183144799899	0.0499797000084072
99287	50	59	0	0	pony	1220	59	0	stimuli\pony\pony_12s.jpg	11	-1	0	0	pony_12s.jpg	0	0	0	177.233166499995	177.283146800008	0.0499803000129759
99387	50	60	0	0	owl	1091	60	0	stimuli\owl\owl_11s.jpg	10	-1	0	0	owl_11s.jpg	0	0	0	177.333169799997	177.383150199894	0.0499803998973221
99487	50	61	0	0	fuse	652	61	0	stimuli\fuse\fuse_12s.jpg	11	-1	0	0	fuse_12s.jpg	0	0	0	177.433172099991	177.48315320001	0.0499811000190675
99587	50	62	0	0	carrot	277	62	0	stimuli\carrot\carrot_06n.jpg	5	-1	0	0	carrot_06n.jpg	0	0	0	177.533174299868	177.583154199878	0.0499799000099301
99687	50	63	0	0	microphone	998	63	0	stimuli\microphone\microphone_06s.jpg	5	-1	0	0	microphone_06s.jpg	0	0	0	177.633179099998	177.683157699881	0.049978599883616
99787	50	64	0	0	crystal_ball	455	64	0	stimuli\crystal_ball\crystal_ball_09s.jpg	8	-1	0	0	crystal_ball_09s.jpg	0	0	0	177.73317979998	177.783161500003	0.0499817000236362
99887	50	65	0	0	wick	1815	65	0	stimuli\wick\wick_05s.jpg	4	-1	0	0	wick_05s.jpg	0	0	0	177.833182099974	177.883162999991	0.0499809000175446
99987	50	66	0	0	wax_paper	1796	66	0	stimuli\wax_paper\wax_paper_07s.jpg	6	-1	0	0	wax_paper_07s.jpg	0	0	0	177.933182100067	177.983166199876	0.0499840998090804
100087	50	67	0	0	place_mat	1193	67	0	stimuli\place_mat\place_mat_08s.jpg	7	-1	0	0	place_mat_08s.jpg	0	0	0	178.033185000066	178.083169999998	0.0499849999323487
100187	50	68	0	0	lantern	895	68	0	stimuli\lantern\lantern_03s.jpg	2	-1	0	0	lantern_03s.jpg	0	0	0	178.133188500069	178.183176700026	0.0499881999567151
100287	50	69	0	0	pumpkin	1253	69	0	stimuli\pumpkin\pumpkin_04s.jpg	3	-1	0	0	pumpkin_04s.jpg	0	0	0	178.233191899955	178.283196700038	0.0500048000831157
100387	50	70	0	0	milkshake	1002	70	0	stimuli\milkshake\milkshake_03s.jpg	2	-1	0	0	milkshake_03s.jpg	0	0	0	178.333191999933	178.383173899958	0.0499819000251591
100487	50	71	0	0	shell3	1419	71	0	stimuli\shell3\shell3_09s.jpg	8	-1	0	0	shell3_09s.jpg	0	0	0	178.433195600053	178.483178900089	0.0499833000358194
100587	50	72	0	0	shrimp	1438	72	0	stimuli\shrimp\shrimp_02s.jpg	1	-1	0	0	shrimp_02s.jpg	0	0	0	178.533204899868	178.583179899957	0.0499750000890344
100687	50	73	0	0	moth	1023	73	0	stimuli\moth\moth_09n.jpg	8	-1	0	0	moth_09n.jpg	0	0	0	178.633203099947	178.683190600015	0.0499875000678003
100787	50	74	0	0	stove1	1563	74	0	stimuli\stove1\stove1_11s.jpg	10	-1	0	0	stove1_11s.jpg	0	0	0	178.733203900047	178.783184800064	0.0499809000175446
100887	50	75	0	0	helmet	776	75	0	stimuli\helmet\helmet_01b.jpg	0	-1	0	0	helmet_01b.jpg	0	0	0	178.83320740005	178.883186900057	0.0499795000068843
100987	50	76	0	0	eggshell	551	76	0	stimuli\eggshell\eggshell_04s.jpg	3	-1	0	0	eggshell_04s.jpg	0	0	0	178.933207799913	178.983188099926	0.0499803000129759
101087	50	77	0	0	swab	1590	77	0	stimuli\swab\swab_11s.jpg	10	-1	0	0	swab_11s.jpg	0	0	0	179.033237499883	179.083192599937	0.0499551000539213
101187	50	78	0	0	sheath	1413	78	0	stimuli\sheath\sheath_10s.jpg	9	-1	0	0	sheath_10s.jpg	0	0	0	179.133212399902	179.18319380004	0.0499814001377672
101287	50	79	0	0	parsley	1122	79	0	stimuli\parsley\parsley_12n.jpg	11	-1	0	0	parsley_12n.jpg	0	0	0	179.233217800036	179.283197300043	0.0499795000068843
101387	50	80	0	0	axe	45	80	0	stimuli\axe\axe_12n.jpg	11	-1	0	0	axe_12n.jpg	0	0	0	179.333217399893	179.383198200027	0.0499808001331985
101487	50	81	0	0	pantyhose	1110	81	0	stimuli\pantyhose\pantyhose_11s.jpg	10	-1	0	0	pantyhose_11s.jpg	0	0	0	179.433218899881	179.483200599905	0.0499817000236362
101587	50	82	0	0	champagne	304	82	0	stimuli\champagne\champagne_08s.jpg	7	-1	0	0	champagne_08s.jpg	0	0	0	179.533221499994	179.583207499934	0.0499859999399632
101687	50	83	0	0	anklet	23	83	0	stimuli\anklet\anklet_02s.jpg	1	-1	0	0	anklet_02s.jpg	0	0	0	179.633248399943	179.683206599904	0.0499581999611109
101787	50	84	0	0	cordon_bleu	408	84	0	stimuli\cordon_bleu\cordon_bleu_09s.jpg	8	-1	0	0	cordon_bleu_09s.jpg	0	0	0	179.733226899989	179.783218999859	0.0499920998699963
101887	50	85	0	0	bouquet	173	85	0	stimuli\bouquet\bouquet_01b.jpg	0	-1	0	0	bouquet_01b.jpg	0	0	0	179.833230699878	179.883210300002	0.0499796001240611
101987	50	86	0	0	urinal	1748	86	0	stimuli\urinal\urinal_10s.jpg	9	-1	0	0	urinal_10s.jpg	0	0	0	179.933232999872	179.983213200001	0.0499802001286298
102087	50	87	0	0	traffic_light	1696	87	0	stimuli\traffic_light\traffic_light_10s.jpg	9	-1	0	0	traffic_light_10s.jpg	0	0	0	180.033235499868	180.083217599895	0.049982100026682
102187	50	88	0	0	fly	621	88	0	stimuli\fly\fly_11s.jpg	10	-1	0	0	fly_11s.jpg	0	0	0	180.133263400057	180.18321779999	0.0499543999321759
102287	50	89	0	0	bird	128	89	0	stimuli\bird\bird_04s.jpg	3	-1	0	0	bird_04s.jpg	0	0	0	180.233241699869	180.283220299985	0.0499786001164466
102387	50	90	0	0	bedpan	109	90	0	stimuli\bedpan\bedpan_05s.jpg	4	-1	0	0	bedpan_05s.jpg	0	0	0	180.333241200075	180.383228899911	0.0499876998364925
102487	50	91	0	0	washboard	1782	91	0	stimuli\washboard\washboard_02s.jpg	1	-1	0	0	washboard_02s.jpg	0	0	0	180.433246199973	180.483225799864	0.0499795998912305
102587	50	92	0	0	warthog	1781	92	0	stimuli\warthog\warthog_03s.jpg	2	-1	0	0	warthog_03s.jpg	0	0	0	180.533258700045	180.583230199991	0.0499714999459684
102687	50	93	0	0	headphones	766	93	0	stimuli\headphones\headphones_04s.jpg	3	-1	0	0	headphones_04s.jpg	0	0	0	180.633253099862	180.683230299968	0.0499772001057863
102787	50	94	0	0	shirt	1422	94	0	stimuli\shirt\shirt_03s.jpg	2	-1	0	0	shirt_03s.jpg	0	0	0	180.733268300071	180.78323270008	0.0499644000083208
102887	50	95	0	0	sardine	1359	95	0	stimuli\sardine\sardine_11s.jpg	10	-1	0	0	sardine_11s.jpg	0	0	0	180.833254300058	180.883265600074	0.0500113000161946
102987	50	96	0	0	belt_buckle	119	96	0	stimuli\belt_buckle\belt_buckle_07s.jpg	6	-1	0	0	belt_buckle_07s.jpg	0	0	0	180.933258600067	180.983237700071	0.0499791000038385
103087	50	97	0	0	wasp	1785	97	0	stimuli\wasp\wasp_01b.jpg	0	-1	0	0	wasp_01b.jpg	0	0	0	181.03326279996	181.083242000081	0.0499792001210153
103187	50	98	0	0	urn	1749	98	0	stimuli\urn\urn_09s.jpg	8	-1	0	0	urn_09s.jpg	0	0	0	181.133263400057	181.18325500004	0.0499915999826044
103287	50	99	0	0	generator	671	99	0	stimuli\generator\generator_04s.jpg	3	-1	0	0	generator_04s.jpg	0	0	0	181.233263399918	181.283247200074	0.049983800156042
103387	50	100	0	0	tulip	1726	100	0	stimuli\tulip\tulip_03s.jpg	2	-1	0	0	tulip_03s.jpg	0	0	0	181.33326549991	181.383246599929	0.0499811000190675
103487	50	101	0	0	boar	151	101	0	stimuli\boar\boar_09s.jpg	8	-1	0	0	boar_09s.jpg	0	0	0	181.433271799935	181.483264900045	0.0499931001104414
103587	50	102	0	0	margarita	973	102	0	stimuli\margarita\margarita_11s.jpg	10	-1	0	0	margarita_11s.jpg	0	0	0	181.533269800013	181.58325279993	0.0499829999171197
103687	50	103	0	0	computer_screen	395	103	0	stimuli\computer_screen\computer_screen_02s.jpg	1	-1	0	0	computer_screen_02s.jpg	0	0	0	181.633293099934	181.683253899915	0.0499607999809086
103787	50	104	0	0	stockings	1559	104	0	stimuli\stockings\stockings_09s.jpg	8	-1	0	0	stockings_09s.jpg	0	0	0	181.733277099906	181.783256599912	0.0499795000068843
103887	50	105	0	0	kimono	873	105	0	stimuli\kimono\kimono_03s.jpg	2	-1	0	0	kimono_03s.jpg	0	0	0	181.83327990002	181.883272399893	0.0499924998730421
103987	50	106	0	0	flan	609	106	0	stimuli\flan\flan_02s.jpg	1	-1	0	0	flan_02s.jpg	0	0	0	181.933280699886	181.983272499871	0.0499917999841273
104087	50	107	0	0	slipper	1468	107	0	stimuli\slipper\slipper_08s.jpg	7	-1	0	0	slipper_08s.jpg	0	0	0	182.033283099998	182.083264800021	0.0499817000236362
104187	50	108	0	0	measuring_cup	986	108	0	stimuli\measuring_cup\measuring_cup_08s.jpg	7	-1	0	0	measuring_cup_08s.jpg	0	0	0	182.133287000004	182.183266700013	0.0499797000084072
104287	50	109	0	0	chicken_wire	324	109	0	stimuli\chicken_wire\chicken_wire_11s.jpg	10	-1	0	0	chicken_wire_11s.jpg	0	0	0	182.233300199965	182.283268299885	0.0499680999200791
104387	50	110	0	0	dustpan	535	110	0	stimuli\dustpan\dustpan_09s.jpg	8	-1	0	0	dustpan_09s.jpg	0	0	0	182.333291699877	182.38328519999	0.0499935001134872
104487	50	111	0	0	latch	900	111	0	stimuli\latch\latch_10s.jpg	9	-1	0	0	latch_10s.jpg	0	0	0	182.433292199858	182.483274099883	0.0499819000251591
104587	50	112	0	0	gramophone	699	112	0	stimuli\gramophone\gramophone_09s.jpg	8	-1	0	0	gramophone_09s.jpg	0	0	0	182.533296499867	182.583276199875	0.0499797000084072
104687	50	113	0	0	buggy	213	113	0	stimuli\buggy\buggy_05s.jpg	4	-1	0	0	buggy_05s.jpg	0	0	0	182.63329700008	182.683278099867	0.0499810997862369
104787	50	114	0	0	buckle	210	114	0	stimuli\buckle\buckle_09s.jpg	8	-1	0	0	buckle_09s.jpg	0	0	0	182.733347799862	182.783281699987	0.0499339001253247
104887	50	115	0	0	slide	1464	115	0	stimuli\slide\slide_12s.jpg	11	-1	0	0	slide_12s.jpg	0	0	0	182.833303299965	182.883282999974	0.0499797000084072
104987	50	116	0	0	ironing_board	833	116	0	stimuli\ironing_board\ironing_board_01b.jpg	0	-1	0	0	ironing_board_01b.jpg	0	0	0	182.933305900078	182.983285499969	0.0499795998912305
105087	50	117	0	0	modem	1011	117	0	stimuli\modem\modem_09s.jpg	8	-1	0	0	modem_09s.jpg	0	0	0	183.033305800054	183.08328650007	0.0499807000160217
105187	50	118	0	0	lip_balm	934	118	0	stimuli\lip_balm\lip_balm_02s.jpg	1	-1	0	0	lip_balm_02s.jpg	0	0	0	183.133309399942	183.183290899964	0.0499815000221133
105287	50	119	0	0	rosary	1333	119	0	stimuli\rosary\rosary_08s.jpg	7	-1	0	0	rosary_08s.jpg	0	0	0	183.233311000047	183.283292700071	0.0499817000236362
105387	50	120	0	0	bra	185	120	0	stimuli\bra\bra_11s.jpg	10	-1	0	1	bra_11s.jpg	0	0	0	183.333340300014	183.383294800064	0.0499545000493526
105487	50	121	0	0	scissors	1379	121	0	stimuli\scissors\scissors_10s.jpg	9	-1	0	0	scissors_10s.jpg	0	0	0	183.433316899929	183.483322100015	0.0500052000861615
105587	50	122	0	0	power_line	1237	122	0	stimuli\power_line\power_line_05s.jpg	4	-1	0	0	power_line_05s.jpg	0	0	0	183.533320799936	183.583301699953	0.0499809000175446
105687	50	123	0	0	blowfish	146	123	0	stimuli\blowfish\blowfish_02s.jpg	1	-1	0	0	blowfish_02s.jpg	0	0	0	183.633324699942	183.683303399943	0.0499787000007927
105787	50	124	0	0	roller	1324	124	0	stimuli\roller\roller_05s.jpg	4	-1	0	0	roller_05s.jpg	1	0.441952500026673	1	183.733323999913	183.78330660006	0.0499826001469046
105887	50	125	0	0	dartboard	474	125	0	stimuli\dartboard\dartboard_10s.jpg	9	-1	0	0	dartboard_10s.jpg	0	0	0	183.833326699911	183.883307199925	0.0499805000144988
105987	50	126	0	0	doll	499	126	0	stimuli\doll\doll_11s.jpg	10	-1	0	0	doll_11s.jpg	0	0	0	183.933330700034	183.983311000047	0.0499803000129759
106087	50	127	0	0	turtleneck	1737	127	0	stimuli\turtleneck\turtleneck_05s.jpg	4	-1	0	0	turtleneck_05s.jpg	0	0	0	184.033331499901	184.083324000007	0.0499925001058728
106187	50	128	0	0	gopher	694	128	0	stimuli\gopher\gopher_05s.jpg	4	-1	0	0	gopher_05s.jpg	0	0	0	184.133333999896	184.183314600028	0.0499806001316756
106287	50	129	0	0	okra	1074	129	0	stimuli\okra\okra_10s.jpg	9	-1	0	0	okra_10s.jpg	0	0	0	184.233348499984	184.283319199923	0.0499706999398768
106387	50	130	0	0	periscope	1155	130	0	stimuli\periscope\periscope_06s.jpg	5	-1	0	0	periscope_06s.jpg	0	0	0	184.333339500008	184.383320200024	0.0499807000160217
106487	50	131	0	0	ambulance	19	131	0	stimuli\ambulance\ambulance_11s.jpg	10	-1	0	0	ambulance_11s.jpg	0	0	0	184.433340999996	184.483322900021	0.0499819000251591
106587	50	132	0	0	scaffold	1369	132	0	stimuli\scaffold\scaffold_03s.jpg	2	-1	0	0	scaffold_03s.jpg	0	0	0	184.533343099989	184.583355099894	0.0500119999051094
106687	50	133	0	0	clove	365	133	0	stimuli\clove\clove_08s.jpg	7	-1	0	0	clove_08s.jpg	0	0	0	184.633345299866	184.683325099992	0.049979800125584
106787	50	134	0	0	hay	761	134	0	stimuli\hay\hay_08s.jpg	7	-1	0	0	hay_08s.jpg	0	0	0	184.733349399874	184.783329400001	0.0499800001271069
106887	50	135	0	0	hairpin	737	135	0	stimuli\hairpin\hairpin_08s.jpg	7	-1	0	0	hairpin_08s.jpg	0	0	0	184.833353800001	184.88333179988	0.0499779998790473
106987	50	136	0	0	tweezers	1739	136	0	stimuli\tweezers\tweezers_09s.jpg	8	-1	0	0	tweezers_09s.jpg	0	0	0	184.933352099964	184.983336400008	0.0499843000434339
107087	50	137	0	0	weed	1802	137	0	stimuli\weed\weed_07s.jpg	6	-1	0	0	weed_07s.jpg	0	0	0	185.033356199972	185.083337499993	0.0499813000205904
107187	50	138	0	0	snowman	1482	138	0	stimuli\snowman\snowman_07s.jpg	6	-1	0	0	snowman_07s.jpg	0	0	0	185.133357099956	185.183353200089	0.0499961001332849
107287	50	139	0	0	cake_mix	238	139	0	stimuli\cake_mix\cake_mix_05s.jpg	4	-1	0	0	cake_mix_05s.jpg	0	0	0	185.23335990007	185.283342899987	0.0499829999171197
107387	50	140	0	0	clipper1	356	140	0	stimuli\clipper1\clipper1_12s.jpg	11	-1	0	0	clipper1_12s.jpg	0	0	0	185.333395099966	185.383345199982	0.0499501000158489
107487	50	141	0	0	polisher	1215	141	0	stimuli\polisher\polisher_12s.jpg	11	-1	0	0	polisher_12s.jpg	0	0	0	185.433364300057	185.483345600078	0.0499813000205904
107587	50	142	0	0	ear	538	142	0	stimuli\ear\ear_11s.jpg	10	-1	0	0	ear_11s.jpg	0	0	0	185.533367600059	185.583362200065	0.0499946000054479
107687	50	143	0	0	stethoscope	1550	143	0	stimuli\stethoscope\stethoscope_10s.jpg	9	-1	0	0	stethoscope_10s.jpg	0	0	0	185.633369799936	185.683350000065	0.0499802001286298
107787	50	144	0	0	pool_table	1222	144	0	stimuli\pool_table\pool_table_01s.jpg	0	-1	0	0	pool_table_01s.jpg	0	0	0	185.733373099938	185.783352799946	0.0499797000084072
107887	50	145	0	0	knee	877	145	0	stimuli\knee\knee_05s.jpg	4	-1	0	0	knee_05s.jpg	0	0	0	185.833375599934	185.883355699945	0.049980100011453
107987	50	146	0	0	bookmark	166	146	0	stimuli\bookmark\bookmark_08s.jpg	7	-1	0	0	bookmark_08s.jpg	0	0	0	185.933391199913	185.983358399943	0.0499672000296414
108087	50	147	0	0	dryer	524	147	0	stimuli\dryer\dryer_05s.jpg	4	-1	0	0	dryer_05s.jpg	0	0	0	186.033380300039	186.083376300056	0.0499960000161082
108187	50	148	0	0	sweet_potato	1595	148	0	stimuli\sweet_potato\sweet_potato_03s.jpg	2	-1	0	0	sweet_potato_03s.jpg	0	0	0	186.133383600041	186.18336470006	0.0499811000190675
108287	50	149	0	0	trough	1718	149	0	stimuli\trough\trough_08s.jpg	7	-1	0	0	trough_08s.jpg	0	0	0	186.233382999897	186.283371200087	0.0499882001895458
108387	50	150	0	0	skateboard	1449	150	0	stimuli\skateboard\skateboard_09s.jpg	8	-1	0	0	skateboard_09s.jpg	0	0	0	186.333386899903	186.383373100078	0.0499862001743168
108487	50	151	0	0	scrabble	1385	151	0	stimuli\scrabble\scrabble_07s.jpg	6	-1	0	0	scrabble_07s.jpg	0	0	0	186.433426900068	186.483369800029	0.0499428999610245
108587	50	152	0	0	turf	1732	152	0	stimuli\turf\turf_07s.jpg	6	-1	0	0	turf_07s.jpg	0	0	0	186.533391400008	186.583373500034	0.049982100026682
108687	50	153	0	0	nightstand	1059	153	0	stimuli\nightstand\nightstand_12s.jpg	11	-1	0	0	nightstand_12s.jpg	0	0	0	186.633394100005	186.683375400025	0.0499813000205904
108787	50	154	0	0	snorkel	1478	154	0	stimuli\snorkel\snorkel_07s.jpg	6	-1	0	0	snorkel_07s.jpg	0	0	0	186.733394999988	186.78337859991	0.0499835999216884
108887	50	155	0	0	carousel	275	155	0	stimuli\carousel\carousel_05s.jpg	4	-1	0	0	carousel_05s.jpg	0	0	0	186.833398899995	186.883380400017	0.0499815000221133
108987	50	156	0	0	lion	933	156	0	stimuli\lion\lion_01b.jpg	0	-1	0	0	lion_01b.jpg	0	0	0	186.933402699884	186.983384100022	0.0499814001377672
109087	50	157	0	0	satellite_dish	1361	157	0	stimuli\satellite_dish\satellite_dish_05s.jpg	4	-1	0	0	satellite_dish_05s.jpg	0	0	0	187.033419199986	187.083384800004	0.0499656000174582
109187	50	158	0	0	can	250	158	0	stimuli\can\can_04s.jpg	3	-1	0	0	can_04s.jpg	0	0	0	187.133406399982	187.183414999861	0.0500085998792201
109287	50	159	0	0	straw1	1568	159	0	stimuli\straw1\straw1_08s.jpg	7	-1	0	0	straw1_08s.jpg	0	0	0	187.233408399858	187.28338989988	0.0499815000221133
109387	50	160	0	0	petal	1158	160	0	stimuli\petal\petal_11s.jpg	10	-1	0	0	petal_11s.jpg	0	0	0	187.333411100088	187.383395300014	0.0499841999262571
109487	50	161	0	0	luggage	948	161	0	stimuli\luggage\luggage_06s.jpg	5	-1	0	0	luggage_06s.jpg	0	0	0	187.433414299972	187.483395099873	0.0499807999003679
109587	50	162	0	0	pig	1170	162	0	stimuli\pig\pig_12s.jpg	11	-1	0	0	pig_12s.jpg	0	0	0	187.53341579996	187.583396699978	0.0499809000175446
109687	50	163	0	0	cap	265	163	0	stimuli\cap\cap_06s.jpg	5	-1	0	0	cap_06s.jpg	0	0	0	187.63341800007	187.683399699861	0.0499816997908056
109787	50	164	0	0	spinach	1515	164	0	stimuli\spinach\spinach_06s.jpg	5	-1	0	0	spinach_06s.jpg	0	0	0	187.733420500066	187.783417399973	0.0499968999065459
109887	50	165	0	0	sandbag	1353	165	0	stimuli\sandbag\sandbag_04s.jpg	3	-1	0	0	sandbag_04s.jpg	0	0	0	187.833423400065	187.883403500076	0.049980100011453
109987	50	166	0	0	hearse	771	166	0	stimuli\hearse\hearse_06s.jpg	5	-1	0	0	hearse_06s.jpg	0	0	0	187.933439200046	187.983406899963	0.0499676999170333
110087	50	167	0	0	pump	1252	167	0	stimuli\pump\pump_01b.jpg	0	-1	0	0	pump_01b.jpg	0	0	0	188.033427800052	188.083411799977	0.0499839999247342
110187	50	168	0	0	bag	54	168	0	stimuli\bag\bag_07s.jpg	6	-1	0	0	bag_07s.jpg	0	0	0	188.133432199946	188.183416299988	0.049984100041911
110287	50	169	0	0	drumstick	523	169	0	stimuli\drumstick\drumstick_09s.jpg	8	-1	0	0	drumstick_09s.jpg	0	0	0	188.233432499925	188.283428600058	0.0499961001332849
110387	50	170	0	0	yarn	1846	170	0	stimuli\yarn\yarn_11s.jpg	10	-1	0	0	yarn_11s.jpg	0	0	0	188.333436399931	188.383417000063	0.0499806001316756
110487	50	171	0	0	bush	227	171	0	stimuli\bush\bush_10s.jpg	9	-1	0	0	bush_10s.jpg	0	0	0	188.433437800035	188.483421500074	0.0499837000388652
110587	50	172	0	0	grapefruit	703	172	0	stimuli\grapefruit\grapefruit_05s.jpg	4	-1	0	0	grapefruit_05s.jpg	0	0	0	188.53344150004	188.583421600051	0.049980100011453
110687	50	173	0	0	possum	1228	173	0	stimuli\possum\possum_02s.jpg	1	-1	0	0	possum_02s.jpg	0	0	0	188.633442800026	188.683424900053	0.049982100026682
110787	50	174	0	0	towel_rack	1693	174	0	stimuli\towel_rack\towel_rack_12s.jpg	11	-1	0	0	towel_rack_12s.jpg	0	0	0	188.733445100021	188.783425200032	0.049980100011453
110887	50	175	0	0	french_fries	641	175	0	stimuli\french_fries\french_fries_02s.jpg	1	-1	0	0	french_fries_02s.jpg	0	0	0	188.833448400022	188.883427799912	0.0499793998897076
110987	50	176	0	0	ketchup	867	176	0	stimuli\ketchup\ketchup_09s.jpg	8	-1	0	0	ketchup_09s.jpg	0	0	0	188.933449900011	188.983433499932	0.0499835999216884
111087	50	177	0	0	snowball	1480	177	0	stimuli\snowball\snowball_05s.jpg	4	-1	0	0	snowball_05s.jpg	0	0	0	189.033479999984	189.083433199907	0.0499531999230385
111187	50	178	0	0	rolling_pin	1328	178	0	stimuli\rolling_pin\rolling_pin_03s.jpg	2	-1	0	0	rolling_pin_03s.jpg	0	0	0	189.133460700046	189.183435299899	0.049974599853158
111287	50	179	0	0	noose	1062	179	0	stimuli\noose\noose_01b.jpg	0	-1	0	0	noose_01b.jpg	0	0	0	189.233455999987	189.283450299874	0.0499942998867482
111387	50	180	0	0	orange_rind	1079	180	0	stimuli\orange_rind\orange_rind_09s.jpg	8	-1	0	0	orange_rind_09s.jpg	0	0	0	189.333462199895	189.383440400008	0.0499782001134008
111487	50	181	0	0	pan	1103	181	0	stimuli\pan\pan_11s.jpg	10	-1	0	0	pan_11s.jpg	0	0	0	189.43347859988	189.483442500001	0.0499639001209289
111587	50	182	0	0	soldering_iron	1494	182	0	stimuli\soldering_iron\soldering_iron_12s.jpg	11	-1	0	0	soldering_iron_12s.jpg	0	0	0	189.533465299988	189.583446400007	0.0499811000190675
111687	50	183	0	0	dice	486	183	0	stimuli\dice\dice_05s.jpg	4	-1	0	0	dice_05s.jpg	0	0	0	189.633484199876	189.683447199874	0.0499629999976605
111787	50	184	0	0	aluminum_foil	17	184	0	stimuli\aluminum_foil\aluminum_foil_12s.jpg	11	-1	0	0	aluminum_foil_12s.jpg	0	0	0	189.733467800077	189.783463000087	0.0499952000100166
111887	50	185	0	0	curling_iron	463	185	0	stimuli\curling_iron\curling_iron_11s.jpg	10	-1	0	0	curling_iron_11s.jpg	0	0	0	189.833472399972	189.883454099996	0.0499817000236362
111987	50	186	0	0	banjo	68	186	0	stimuli\banjo\banjo_03s.jpg	2	-1	0	0	banjo_03s.jpg	0	0	0	189.933474000078	189.983456799993	0.0499827999155968
112087	50	187	0	0	garter	659	187	0	stimuli\garter\garter_11s.jpg	10	-1	0	0	garter_11s.jpg	0	0	0	190.033475799952	190.083457299974	0.0499815000221133
112187	50	188	0	0	bolt	159	188	0	stimuli\bolt\bolt_07n.jpg	6	-1	0	0	bolt_07n.jpg	0	0	0	190.133520700037	190.18346030009	0.049939600052312
112287	50	189	0	0	water_fountain	1790	189	0	stimuli\water_fountain\water_fountain_06s.jpg	5	-1	0	0	water_fountain_06s.jpg	0	0	0	190.233482900076	190.283463099971	0.0499801998957992
112387	50	190	0	0	licorice	922	190	0	stimuli\licorice\licorice_03s.jpg	2	-1	0	0	licorice_03s.jpg	0	0	0	190.333483800059	190.383468399988	0.0499845999293029
112487	50	191	0	0	dumbwaiter	531	191	0	stimuli\dumbwaiter\dumbwaiter_11s.jpg	10	-1	0	1	dumbwaiter_11s.jpg	0	0	0	190.433486300055	190.483468699967	0.049982399912551
112587	50	192	0	0	timer	1661	192	0	stimuli\timer\timer_04s.jpg	3	-1	0	0	timer_04s.jpg	0	0	0	190.533489400055	190.583469500067	0.049980100011453
112687	50	193	0	0	penholder	1146	193	0	stimuli\penholder\penholder_04s.jpg	3	-1	0	0	penholder_04s.jpg	0	0	0	190.633492799941	190.683471899945	0.0499791000038385
112787	50	194	0	0	banana	63	194	0	stimuli\banana\banana_07s.jpg	6	-1	0	0	banana_07s.jpg	0	0	0	190.733515300089	190.783475900069	0.0499605999793857
112887	50	195	0	0	zebra	1851	195	0	stimuli\zebra\zebra_08s.jpg	7	-1	0	0	zebra_08s.jpg	1	0.392360599944368	1	190.833497799933	190.88350580004	0.0500080001074821
112987	50	196	0	0	snowboard	1481	196	0	stimuli\snowboard\snowboard_01b.jpg	0	-1	0	0	snowboard_01b.jpg	0	0	0	190.933497200022	190.983478700044	0.0499815000221133
113087	50	197	0	0	shawl	1411	197	0	stimuli\shawl\shawl_05s.jpg	4	-1	0	0	shawl_05s.jpg	0	0	0	191.033502399921	191.083481800044	0.0499794001225382
113187	50	198	0	0	nest	1056	198	0	stimuli\nest\nest_06s.jpg	5	-1	0	0	nest_06s.jpg	0	0	0	191.133501899894	191.183485300047	0.0499834001529962
113287	50	199	0	0	duffel_bag	529	199	0	stimuli\duffel_bag\duffel_bag_01b.jpg	0	-1	0	0	duffel_bag_01b.jpg	0	0	0	191.233506900026	191.28349000006	0.0499831000342965
113387	50	200	0	0	calamari	239	200	0	stimuli\calamari\calamari_11s.jpg	10	-1	0	0	calamari_11s.jpg	0	0	0	191.333508000011	191.383489599917	0.0499815999064595
113487	50	201	0	0	lasagna	898	201	0	stimuli\lasagna\lasagna_04s.jpg	3	-1	0	0	lasagna_04s.jpg	0	0	0	191.433509099996	191.48350750003	0.0499984000343829
113587	50	202	0	0	crucifix	449	202	0	stimuli\crucifix\crucifix_10s.jpg	9	-1	0	0	crucifix_10s.jpg	0	0	0	191.533512399998	191.58349390002	0.0499815000221133
113687	50	203	0	0	ballot_box	61	203	0	stimuli\ballot_box\ballot_box_05s.jpg	4	-1	0	0	ballot_box_05s.jpg	0	0	0	191.63352979999	191.683495299891	0.0499654999002814
113787	50	204	0	0	mascara	978	204	0	stimuli\mascara\mascara_02s.jpg	1	-1	0	0	mascara_02s.jpg	0	0	0	191.733516799984	191.783498300007	0.0499815000221133
113887	50	205	0	0	polaroid	1212	205	0	stimuli\polaroid\polaroid_08s.jpg	7	-1	0	0	polaroid_08s.jpg	0	0	0	191.833521199878	191.883508099942	0.0499869000632316
113987	50	206	0	0	cheeseburger	313	206	0	stimuli\cheeseburger\cheeseburger_09s.jpg	8	-1	0	0	cheeseburger_09s.jpg	0	0	0	191.933521699859	191.983527899953	0.050006200093776
114087	50	207	0	0	umbrella	1743	207	0	stimuli\umbrella\umbrella_09s.jpg	8	-1	0	0	umbrella_09s.jpg	0	0	0	192.033524799859	192.083505899878	0.0499811000190675
114187	50	208	0	0	ice_pack	820	208	0	stimuli\ice_pack\ice_pack_01b.jpg	0	-1	0	0	ice_pack_01b.jpg	0	0	0	192.133526799968	192.183510399889	0.0499835999216884
114287	50	209	0	0	clarinet	350	209	0	stimuli\clarinet\clarinet_07n.jpg	6	-1	0	0	clarinet_07n.jpg	0	0	0	192.233538199915	192.283511799993	0.0499736000783741
114387	50	210	0	0	electric_chair	553	210	0	stimuli\electric_chair\electric_chair_02s.jpg	1	-1	0	0	electric_chair_02s.jpg	0	0	0	192.333532399964	192.383526100079	0.0499937001150101
114487	50	211	0	0	watch	1786	211	0	stimuli\watch\watch_08s.jpg	7	-1	0	0	watch_08s.jpg	0	0	0	192.433533899952	192.483514199965	0.0499803000129759
114587	50	212	0	0	cuckoo_clock	456	212	0	stimuli\cuckoo_clock\cuckoo_clock_10s.jpg	9	-1	0	0	cuckoo_clock_10s.jpg	0	0	0	192.533536900068	192.583518000087	0.0499811000190675
114687	50	213	0	0	veil	1755	213	0	stimuli\veil\veil_07s.jpg	6	-1	0	0	veil_07s.jpg	0	0	0	192.633539499948	192.683521399973	0.0499819000251591
114787	50	214	0	0	christmas_card	340	214	0	stimuli\christmas_card\christmas_card_01b.jpg	0	-1	0	0	christmas_card_01b.jpg	0	0	0	192.733575100079	192.78352320008	0.0499481000006199
114887	50	215	0	0	wolf	1831	215	0	stimuli\wolf\wolf_08n.jpg	7	-1	0	0	wolf_08n.jpg	0	0	0	192.833544000052	192.883524500066	0.0499805000144988
114987	50	216	0	0	praying_mantis	1238	216	0	stimuli\praying_mantis\praying_mantis_09s.jpg	8	-1	0	0	praying_mantis_09s.jpg	0	0	0	192.93354639993	192.983527899953	0.0499815000221133
115087	50	217	0	0	frame	639	217	0	stimuli\frame\frame_06s.jpg	5	-1	0	0	frame_06s.jpg	0	0	0	193.033548800042	193.083530799951	0.0499819999095052
115187	50	218	0	0	gyro	730	218	0	stimuli\gyro\gyro_09s.jpg	8	-1	0	0	gyro_09s.jpg	0	0	0	193.133553700056	193.183533299947	0.0499795998912305
115287	50	219	0	0	credit_card	438	219	0	stimuli\credit_card\credit_card_11s.jpg	10	-1	0	0	credit_card_11s.jpg	0	0	0	193.233553499915	193.283535700059	0.0499822001438588
115387	50	220	0	0	baton3	94	220	0	stimuli\baton3\baton3_11s.jpg	10	-1	0	0	baton3_11s.jpg	0	0	0	193.333573499927	193.383537499933	0.049964000005275
115487	50	221	0	0	cage	236	221	0	stimuli\cage\cage_05s.jpg	4	-1	0	0	cage_05s.jpg	0	0	0	193.433558600023	193.483556800056	0.04999820003286
115587	50	222	0	0	kiwi	876	222	0	stimuli\kiwi\kiwi_10s.jpg	9	-1	0	0	kiwi_10s.jpg	0	0	0	193.533559500007	193.583543099929	0.0499835999216884
115687	50	223	0	0	basketball	83	223	0	stimuli\basketball\basketball_11s.jpg	10	-1	0	0	basketball_11s.jpg	0	0	0	193.633564200019	193.683544199914	0.0499799998942763
115787	50	224	0	0	showerhead	1436	224	0	stimuli\showerhead\showerhead_09s.jpg	8	-1	0	0	showerhead_09s.jpg	0	0	0	193.733567100018	193.78354720003	0.049980100011453
115887	50	225	0	0	candle	253	225	0	stimuli\candle\candle_02n.jpg	1	-1	0	0	candle_02n.jpg	0	0	0	193.833591399947	193.883548300015	0.0499569000676274
115987	50	226	0	0	boxing_gloves	183	226	0	stimuli\boxing_gloves\boxing_gloves_01b.jpg	0	-1	0	0	boxing_gloves_01b.jpg	0	0	0	193.933570299996	193.98355200002	0.0499817000236362
116087	50	227	0	0	bowtie	180	227	0	stimuli\bowtie\bowtie_11s.jpg	10	-1	0	0	bowtie_11s.jpg	0	0	0	194.033577200025	194.083560900064	0.0499837000388652
116187	50	228	0	0	mullet	1039	228	0	stimuli\mullet\mullet_12s.jpg	11	-1	0	0	mullet_12s.jpg	0	0	0	194.13357519987	194.183558000019	0.0499828001484275
116287	50	229	0	0	kneepad	878	229	0	stimuli\kneepad\kneepad_11s.jpg	10	-1	0	0	kneepad_11s.jpg	0	0	0	194.23358520004	194.283558799885	0.0499735998455435
116387	50	230	0	0	cork	409	230	0	stimuli\cork\cork_03s.jpg	2	-1	0	0	cork_03s.jpg	0	0	0	194.333580999868	194.38356300001	0.0499820001423359
116487	50	231	0	0	mustard	1044	231	0	stimuli\mustard\mustard_10s.jpg	9	-1	0	0	mustard_10s.jpg	0	0	0	194.433597899973	194.48356559989	0.0499676999170333
116587	50	232	0	0	shark	1409	232	0	stimuli\shark\shark_12s.jpg	11	-1	0	0	shark_12s.jpg	0	0	0	194.533584899968	194.583594700089	0.0500098001211882
116687	50	233	0	0	eyepiece	568	233	0	stimuli\eyepiece\eyepiece_01s.jpg	0	-1	0	0	eyepiece_01s.jpg	0	0	0	194.633586900076	194.683567999862	0.0499810997862369
116787	50	234	0	0	eyeliner	567	234	0	stimuli\eyeliner\eyeliner_11s.jpg	10	-1	0	0	eyeliner_11s.jpg	0	0	0	194.733593099983	194.783571099862	0.0499779998790473
116887	50	235	0	0	comic_book	391	235	0	stimuli\comic_book\comic_book_09s.jpg	8	-1	0	0	comic_book_09s.jpg	0	0	0	194.833593799965	194.883576099994	0.0499823000282049
116987	50	236	0	0	makeup	961	236	0	stimuli\makeup\makeup_02s.jpg	1	-1	0	0	makeup_02s.jpg	0	0	0	194.93359609996	194.983575500082	0.0499794001225382
117087	50	237	0	0	laser_pointer	899	237	0	stimuli\laser_pointer\laser_pointer_03s.jpg	2	-1	0	0	laser_pointer_03s.jpg	0	0	0	195.033600700088	195.083578499965	0.0499777998775244
117187	50	238	0	0	rim	1312	238	0	stimuli\rim\rim_07s.jpg	6	-1	0	0	rim_07s.jpg	0	0	0	195.133597899927	195.183595800074	0.049997900146991
117287	50	239	0	0	fishhook	602	239	0	stimuli\fishhook\fishhook_05s.jpg	4	-1	0	0	fishhook_05s.jpg	0	0	0	195.233603700064	195.283583099954	0.0499793998897076
117387	50	240	0	0	freezer	640	240	0	stimuli\freezer\freezer_10s.jpg	9	-1	0	0	freezer_10s.jpg	0	0	0	195.333622799953	195.383588199969	0.0499654000159353
117487	50	241	0	0	tool	1676	241	0	stimuli\tool\tool_05s.jpg	4	-1	0	0	tool_05s.jpg	0	0	0	195.433606799925	195.48358869995	0.0499819000251591
117587	50	242	0	0	antelope	26	242	0	stimuli\antelope\antelope_11s.jpg	10	-1	0	0	antelope_11s.jpg	0	0	0	195.533609899925	195.583604200045	0.0499943001195788
117687	50	243	0	0	flour	618	243	0	stimuli\flour\flour_08s.jpg	7	-1	0	0	flour_08s.jpg	0	0	0	195.633611900033	195.683596899966	0.0499849999323487
117787	50	244	0	0	scarecrow	1376	244	0	stimuli\scarecrow\scarecrow_12s.jpg	11	-1	0	0	scarecrow_12s.jpg	0	0	0	195.733614800032	195.78359659994	0.0499817999079823
117887	50	245	0	0	tostada	1688	245	0	stimuli\tostada\tostada_08s.jpg	7	-1	0	0	tostada_08s.jpg	0	0	0	195.833616999909	195.883600400062	0.0499834001529962
117987	50	246	0	0	corkboard	410	246	0	stimuli\corkboard\corkboard_07s.jpg	6	-1	0	0	corkboard_07s.jpg	0	0	0	195.933637199923	195.983601300046	0.0499641001224518
118087	50	247	0	0	candy_cane	257	247	0	stimuli\candy_cane\candy_cane_08s.jpg	7	-1	0	0	candy_cane_08s.jpg	0	0	0	196.033620999893	196.083615500014	0.0499945001211017
118187	50	248	0	0	roller_coaster	1325	248	0	stimuli\roller_coaster\roller_coaster_12s.jpg	11	-1	0	0	roller_coaster_12s.jpg	0	0	0	196.133623499889	196.183603700018	0.0499802001286298
118287	50	249	0	0	tuxedo	1738	249	0	stimuli\tuxedo\tuxedo_11s.jpg	10	-1	0	0	tuxedo_11s.jpg	0	0	0	196.233630199917	196.283608499914	0.0499782999977469
118387	50	250	0	0	steering_wheel	1546	250	0	stimuli\steering_wheel\steering_wheel_09s.jpg	8	-1	0	0	steering_wheel_09s.jpg	0	0	0	196.333630000008	196.383609199896	0.0499791998881847
118487	50	251	0	0	gingerbread_man	674	251	0	stimuli\gingerbread_man\gingerbread_man_02s.jpg	1	-1	0	1	gingerbread_man_02s.jpg	0	0	0	196.433660399867	196.483611400006	0.0499510001391172
118587	50	252	0	0	cutting_board	467	252	0	stimuli\cutting_board\cutting_board_10s.jpg	9	-1	0	0	cutting_board_10s.jpg	0	0	0	196.533633599989	196.583613499999	0.0499799000099301
118687	50	253	0	0	tripod	1714	253	0	stimuli\tripod\tripod_02s.jpg	1	-1	0	0	tripod_02s.jpg	0	0	0	196.633637299994	196.683619200019	0.0499819000251591
118787	50	254	0	0	barcode	73	254	0	stimuli\barcode\barcode_04s.jpg	3	-1	0	0	barcode_04s.jpg	1	0.29224820015952	1	196.733638799982	196.783620700007	0.0499819000251591
118887	50	255	0	0	brick	199	255	0	stimuli\brick\brick_11s.jpg	10	-1	0	0	brick_11s.jpg	0	0	0	196.833640799858	196.883621899877	0.0499811000190675
118987	50	256	0	0	soccer_ball	1488	256	0	stimuli\soccer_ball\soccer_ball_03s.jpg	2	-1	0	0	soccer_ball_03s.jpg	0	0	0	196.933644999983	196.983623999869	0.0499789998866618
119087	50	257	0	0	gorilla	695	257	0	stimuli\gorilla\gorilla_03s.jpg	2	-1	0	0	gorilla_03s.jpg	0	0	0	197.033678499982	197.083626799984	0.0499483000021428
119187	50	258	0	0	breakfast	197	258	0	stimuli\breakfast\breakfast_09s.jpg	8	-1	0	0	breakfast_09s.jpg	0	0	0	197.133672799915	197.183654400054	0.0499816001392901
119287	50	259	0	0	rabbit	1265	259	0	stimuli\rabbit\rabbit_04n.jpg	3	-1	0	0	rabbit_04n.jpg	0	0	0	197.233650200069	197.283630500082	0.0499803000129759
119387	50	260	0	0	juicer1	855	260	0	stimuli\juicer1\juicer1_07s.jpg	6	-1	0	0	juicer1_07s.jpg	0	0	0	197.333653100068	197.383632400073	0.0499793000053614
119487	50	261	0	0	subway	1578	261	0	stimuli\subway\subway_01b.jpg	0	-1	0	0	subway_01b.jpg	0	0	0	197.433653899934	197.48363809986	0.0499841999262571
119587	50	262	0	0	wooden_leg	1834	262	0	stimuli\wooden_leg\wooden_leg_04s.jpg	3	-1	0	0	wooden_leg_04s.jpg	0	0	0	197.533656999934	197.583638800075	0.049981800140813
119687	50	263	0	0	dessert	481	263	0	stimuli\dessert\dessert_01b.jpg	0	-1	0	0	dessert_01b.jpg	0	0	0	197.633658699924	197.683643100085	0.0499844001606107
119787	50	264	0	0	beachball	99	264	0	stimuli\beachball\beachball_09s.jpg	8	-1	0	0	beachball_09s.jpg	0	0	0	197.733662100043	197.783659900073	0.0499978000298142
119887	50	265	0	0	shovel	1432	265	0	stimuli\shovel\shovel_05s.jpg	4	-1	0	0	shovel_05s.jpg	0	0	0	197.833667699946	197.883649700088	0.0499820001423359
119987	50	266	0	0	cymbal	468	266	0	stimuli\cymbal\cymbal_03s.jpg	2	-1	0	0	cymbal_03s.jpg	0	0	0	197.933684200048	197.983649600064	0.0499654000159353
120087	50	267	0	0	gyroscope	731	267	0	stimuli\gyroscope\gyroscope_08s.jpg	7	-1	0	0	gyroscope_08s.jpg	0	0	0	198.03367080004	198.083650900051	0.049980100011453
120187	50	268	0	0	onion	1077	268	0	stimuli\onion\onion_06s.jpg	5	-1	0	0	onion_06s.jpg	0	0	0	198.133672900032	198.183656099951	0.0499831999186426
120287	50	269	0	0	extinguisher	563	269	0	stimuli\extinguisher\extinguisher_08s.jpg	7	-1	0	0	extinguisher_08s.jpg	0	0	0	198.233675899915	198.28368959995	0.0500137000344694
120387	50	270	0	0	boomerang	168	270	0	stimuli\boomerang\boomerang_04s.jpg	3	-1	0	0	boomerang_04s.jpg	0	0	0	198.333700400079	198.383659299929	0.0499588998500258
120487	50	271	0	0	car_seat	269	271	0	stimuli\car_seat\car_seat_09s.jpg	8	-1	0	0	car_seat_09s.jpg	0	0	0	198.433679299895	198.483661300037	0.0499820001423359
120587	50	272	0	0	screen1	1388	272	0	stimuli\screen1\screen1_03s.jpg	2	-1	0	0	screen1_03s.jpg	0	0	0	198.533686900046	198.583663299913	0.0499763998668641
120687	50	273	0	0	golf_club	690	273	0	stimuli\golf_club\golf_club_01b.jpg	0	-1	0	0	golf_club_01b.jpg	0	0	0	198.633684899891	198.683667700039	0.0499828001484275
120787	50	274	0	0	pencil_sharpener	1143	274	0	stimuli\pencil_sharpener\pencil_sharpener_08s.jpg	7	-1	0	0	pencil_sharpener_08s.jpg	0	0	0	198.733687199885	198.7836676999	0.0499805000144988
120887	50	275	0	0	buffet	211	275	0	stimuli\buffet\buffet_08s.jpg	7	-1	0	0	buffet_08s.jpg	0	0	0	198.833689499879	198.883686499903	0.0499970000237226
120987	50	276	0	0	cruise_ship	450	276	0	stimuli\cruise_ship\cruise_ship_12s.jpg	11	-1	0	0	cruise_ship_12s.jpg	0	0	0	198.933696700027	198.983673499897	0.0499767998699099
121087	50	277	0	0	violin	1764	277	0	stimuli\violin\violin_01b.jpg	0	-1	0	0	violin_01b.jpg	0	0	0	199.033722700085	199.083676300012	0.0499535999260843
121187	50	278	0	0	tray	1705	278	0	stimuli\tray\tray_10s.jpg	9	-1	0	0	tray_10s.jpg	0	0	0	199.133695600089	199.183682499919	0.0499868998304009
121287	50	279	0	0	blind	140	279	0	stimuli\blind\blind_02s.jpg	1	-1	0	0	blind_02s.jpg	0	0	0	199.233698500087	199.283681500005	0.0499829999171197
121387	50	280	0	0	mallet	962	280	0	stimuli\mallet\mallet_02s.jpg	1	-1	0	0	mallet_02s.jpg	0	0	0	199.33370219986	199.383683099877	0.0499809000175446
121487	50	281	0	0	vulture	1768	281	0	stimuli\vulture\vulture_02s.jpg	1	-1	0	0	vulture_02s.jpg	0	0	0	199.433702799957	199.483684199862	0.0499813999049366
121587	50	282	0	0	sim_card	1446	282	0	stimuli\sim_card\sim_card_02s.jpg	1	-1	0	0	sim_card_02s.jpg	0	0	0	199.533708099974	199.583686899859	0.0499787998851389
121687	50	283	0	0	dolly	501	283	0	stimuli\dolly\dolly_12s.jpg	11	-1	0	0	dolly_12s.jpg	0	0	0	199.63372500008	199.683690099977	0.0499650998972356
121787	50	284	0	0	dishwasher	491	284	0	stimuli\dishwasher\dishwasher_07s.jpg	6	-1	0	0	dishwasher_07s.jpg	0	0	0	199.733712000074	199.78370489995	0.0499928998760879
121887	50	285	0	0	glove	680	285	0	stimuli\glove\glove_06s.jpg	5	-1	0	0	glove_06s.jpg	0	0	0	199.833716999972	199.883694600081	0.0499776001088321
121987	50	286	0	0	mop	1019	286	0	stimuli\mop\mop_03s.jpg	2	-1	0	0	mop_03s.jpg	0	0	0	199.933716000058	199.983699399978	0.0499833999201655
122087	50	287	0	0	magnet	956	287	0	stimuli\magnet\magnet_03s.jpg	2	-1	0	0	magnet_03s.jpg	0	0	0	200.033718599938	200.083700000076	0.0499814001377672
122187	50	288	0	0	frisbee	643	288	0	stimuli\frisbee\frisbee_12s.jpg	11	-1	0	0	frisbee_12s.jpg	0	0	0	200.133760599885	200.183701999951	0.0499414000660181
122287	50	289	0	0	hairdryer	735	289	0	stimuli\hairdryer\hairdryer_02s.jpg	1	-1	0	0	hairdryer_02s.jpg	0	0	0	200.23372239992	200.283704600064	0.0499822001438588
122387	50	290	0	0	silicone	1444	290	0	stimuli\silicone\silicone_12s.jpg	11	-1	0	0	silicone_12s.jpg	0	0	0	200.333725600038	200.383708599955	0.0499829999171197
122487	50	291	0	0	coop	404	291	0	stimuli\coop\coop_11s.jpg	10	-1	0	0	coop_11s.jpg	0	0	0	200.433728599921	200.483708299929	0.0499797000084072
122587	50	292	0	0	fox	638	292	0	stimuli\fox\fox_09s.jpg	8	-1	0	0	fox_09s.jpg	0	0	0	200.533745500026	200.583711300045	0.0499658000189811
122687	50	293	0	0	pedal	1136	293	0	stimuli\pedal\pedal_12s.jpg	11	-1	0	0	pedal_12s.jpg	0	0	0	200.633732900023	200.683714200044	0.0499813000205904
122787	50	294	0	0	beetle	115	294	0	stimuli\beetle\beetle_09s.jpg	8	-1	0	0	beetle_09s.jpg	0	0	0	200.733750700019	200.783717799932	0.0499670999124646
122887	50	295	0	0	clover	366	295	0	stimuli\clover\clover_12s.jpg	11	-1	0	0	clover_12s.jpg	0	0	0	200.833738300018	200.883748899912	0.0500105998944491
122987	50	296	0	0	meerkat	992	296	0	stimuli\meerkat\meerkat_09s.jpg	8	-1	0	0	meerkat_09s.jpg	0	0	0	200.933741499903	200.983721999917	0.0499805000144988
123087	50	297	0	0	first-aid_kit	599	297	0	stimuli\first-aid_kit\first-aid_kit_05s.jpg	4	-1	0	0	first-aid_kit_05s.jpg	0	0	0	201.033742700005	201.083722699899	0.0499799998942763
123187	50	298	0	0	leg	911	298	0	stimuli\leg\leg_12s.jpg	11	-1	0	0	leg_12s.jpg	0	0	0	201.133750200039	201.183727900032	0.0499776999931782
123287	50	299	0	0	bowling_ball	179	299	0	stimuli\bowling_ball\bowling_ball_11s.jpg	10	-1	0	0	bowling_ball_11s.jpg	0	0	0	201.233746599872	201.283739199862	0.0499925999902189
123387	50	300	0	0	birdcage	130	300	0	stimuli\birdcage\birdcage_10s.jpg	9	-1	0	0	birdcage_10s.jpg	0	0	0	201.333751299884	201.383732399903	0.0499811000190675
123487	50	301	0	0	skeleton	1450	301	0	stimuli\skeleton\skeleton_04s.jpg	3	-1	0	0	skeleton_04s.jpg	0	0	0	201.433752599871	201.483749100007	0.0499965001363307
123587	50	302	0	0	lingerie	932	302	0	stimuli\lingerie\lingerie_02s.jpg	1	-1	0	0	lingerie_02s.jpg	0	0	0	201.533754499862	201.5837359	0.0499814001377672
123687	50	303	0	0	doorhandle	508	303	0	stimuli\doorhandle\doorhandle_04s.jpg	3	-1	0	0	doorhandle_04s.jpg	0	0	0	201.633768799948	201.683737899875	0.0499690999276936
123787	50	304	0	0	jump_rope	858	304	0	stimuli\jump_rope\jump_rope_02s.jpg	1	-1	0	0	jump_rope_02s.jpg	0	0	0	201.733761099866	201.783741899999	0.0499808001331985
123887	50	305	0	0	road_sign	1315	305	0	stimuli\road_sign\road_sign_06s.jpg	5	-1	0	0	road_sign_06s.jpg	0	0	0	201.833762600087	201.883748800028	0.0499861999414861
123987	50	306	0	0	slingshot	1467	306	0	stimuli\slingshot\slingshot_06s.jpg	5	-1	0	0	slingshot_06s.jpg	0	0	0	201.933765799971	201.983785199933	0.0500193999614567
124087	50	307	0	0	squeegee	1527	307	0	stimuli\squeegee\squeegee_12n.jpg	11	-1	0	0	squeegee_12n.jpg	0	0	0	202.033766699955	202.083747999975	0.0499813000205904
124187	50	308	0	0	swordfish	1603	308	0	stimuli\swordfish\swordfish_09s.jpg	8	-1	0	0	swordfish_09s.jpg	0	0	0	202.133770599961	202.183749699965	0.0499791000038385
144254	50	309	0	0	carriage	276	0	1	stimuli\carriage\carriage_08s.jpg	7	-1	1	0	carriage_08s.jpg	0	0	0	222.200951799983	222.250927499961	0.0499756999779493
144354	50	310	0	0	applesauce	32	1	1	stimuli\applesauce\applesauce_07s.jpg	6	-1	1	0	applesauce_07s.jpg	0	0	0	222.300950200064	222.350930700079	0.0499805000144988
144454	50	311	0	0	slot	1469	2	1	stimuli\slot\slot_07s.jpg	6	-1	1	0	slot_07s.jpg	0	0	0	222.400957799982	222.45093349996	0.0499756999779493
144554	50	312	0	0	ram	1282	3	1	stimuli\ram\ram_06s.jpg	5	-1	1	0	ram_06s.jpg	0	0	0	222.500961199868	222.550933799939	0.0499726000707597
144654	50	313	0	0	bank	69	4	1	stimuli\bank\bank_09s.jpg	8	-1	1	0	bank_09s.jpg	0	0	0	222.600959199946	222.650937600061	0.0499784001149237
144754	50	314	0	0	mouse2	1027	5	1	stimuli\mouse2\mouse2_10s.jpg	9	-1	1	0	mouse2_10s.jpg	0	0	0	222.700960000046	222.750926699955	0.0499666999094188
144854	50	315	0	0	waffle	1770	6	1	stimuli\waffle\waffle_01b.jpg	0	-1	1	0	waffle_01b.jpg	0	0	0	222.800961199915	222.850943400059	0.0499822001438588
144954	50	316	0	0	squirt_gun	1530	7	1	stimuli\squirt_gun\squirt_gun_01b.jpg	0	-1	1	0	squirt_gun_01b.jpg	0	0	0	222.900963600026	222.950948199956	0.0499845999293029
145054	50	317	0	0	ferris_wheel	579	8	1	stimuli\ferris_wheel\ferris_wheel_12s.jpg	11	-1	1	0	ferris_wheel_12s.jpg	0	0	0	223.000968599925	223.05094960006	0.0499810001347214
145154	50	318	0	0	skull	1458	9	1	stimuli\skull\skull_05s.jpg	4	-1	1	0	skull_05s.jpg	0	0	0	223.100968099898	223.150948900031	0.0499808001331985
145254	50	319	0	0	chickpea	325	10	1	stimuli\chickpea\chickpea_11s.jpg	10	-1	1	0	chickpea_11s.jpg	0	0	0	223.200958299916	223.25094399997	0.0499857000540942
145354	50	320	0	0	hockey_stick	783	11	1	stimuli\hockey_stick\hockey_stick_08s.jpg	7	-1	1	0	hockey_stick_08s.jpg	0	0	0	223.300973699894	223.350960500073	0.0499868001788855
145454	50	321	0	0	tarp	1628	12	1	stimuli\tarp\tarp_10s.jpg	9	-1	1	0	tarp_10s.jpg	0	0	0	223.400977700017	223.450958699919	0.0499809999018908
145555	50	322	0	0	pistachio	1188	13	1	stimuli\pistachio\pistachio_04s.jpg	3	-1	1	0	pistachio_04s.jpg	0	0	0	223.501334900036	223.550965100061	0.0496302000246942
145654	50	323	0	0	coffee_pot	380	14	1	stimuli\coffee_pot\coffee_pot_05s.jpg	4	-1	1	0	coffee_pot_05s.jpg	0	0	0	223.600991399959	223.650963499909	0.0499720999505371
145754	50	324	0	0	clay	352	15	1	stimuli\clay\clay_07s.jpg	6	-1	1	0	clay_07s.jpg	0	0	0	223.700985499891	223.750965700019	0.0499802001286298
145854	50	325	0	0	glasses	678	16	1	stimuli\glasses\glasses_01b.jpg	0	-1	1	0	glasses_01b.jpg	0	0	0	223.800991199911	223.85096709989	0.0499758999794722
145954	50	326	0	0	crab	428	17	1	stimuli\crab\crab_12s.jpg	11	-1	1	0	crab_12s.jpg	0	0	0	223.900997099932	223.950973100029	0.0499760000966489
146054	50	327	0	0	alligator	12	18	1	stimuli\alligator\alligator_02s.jpg	1	-1	1	0	alligator_02s.jpg	0	0	0	224.001009	224.050974400016	0.0499654000159353
146154	50	328	0	0	headrest	767	19	1	stimuli\headrest\headrest_12s.jpg	11	-1	1	0	headrest_12s.jpg	0	0	0	224.10099629988	224.150993699906	0.0499974000267684
146254	50	329	0	0	toy	1694	20	1	stimuli\toy\toy_10s.jpg	9	-1	1	0	toy_10s.jpg	0	0	0	224.200996000087	224.250981200021	0.0499851999338716
146354	50	330	0	0	megaphone	993	21	1	stimuli\megaphone\megaphone_04s.jpg	3	-1	1	0	megaphone_04s.jpg	0	0	0	224.300999300089	224.350981599884	0.0499822997953743
146454	50	331	0	0	bat2	88	22	1	stimuli\bat2\bat2_03s.jpg	2	-1	1	0	bat2_03s.jpg	0	0	0	224.401001400081	224.450985899894	0.0499844998121262
146554	50	332	0	0	elephant	554	23	1	stimuli\elephant\elephant_12n.jpg	11	-1	1	0	elephant_12n.jpg	0	0	0	224.501000799937	224.550984299975	0.0499835000373423
146654	50	333	0	0	surfboard	1587	24	1	stimuli\surfboard\surfboard_09s.jpg	8	-1	1	0	surfboard_09s.jpg	0	0	0	224.601008699974	224.650987100089	0.0499784001149237
146754	50	334	0	0	puppy	1258	25	1	stimuli\puppy\puppy_03s.jpg	2	-1	1	0	puppy_03s.jpg	0	0	0	224.701008399948	224.750995399896	0.0499869999475777
146854	50	335	0	0	revolver	1304	26	1	stimuli\revolver\revolver_10s.jpg	9	-1	1	0	revolver_10s.jpg	0	0	0	224.80101080006	224.850990100065	0.0499793000053614
146954	50	336	0	0	hubcap	809	27	1	stimuli\hubcap\hubcap_04s.jpg	3	-1	1	0	hubcap_04s.jpg	0	0	0	224.901011999929	224.950992299942	0.0499803000129759
147054	50	337	0	0	float	616	28	1	stimuli\float\float_09s.jpg	8	-1	1	0	float_09s.jpg	0	0	0	225.001016600057	225.050980400061	0.0499638000037521
147154	50	338	0	0	springboard	1522	29	1	stimuli\springboard\springboard_07s.jpg	6	-1	1	0	springboard_07s.jpg	0	0	0	225.101003699936	225.150999699952	0.0499960000161082
147254	50	339	0	0	confetti	396	30	1	stimuli\confetti\confetti_07s.jpg	6	-1	1	0	confetti_07s.jpg	0	0	0	225.201022299938	225.250987699954	0.0499654000159353
147354	50	340	0	0	pulley	1250	31	1	stimuli\pulley\pulley_11s.jpg	10	-1	1	0	pulley_11s.jpg	0	0	0	225.301022700034	225.351003499934	0.0499807999003679
147454	50	341	0	0	manhole	967	32	1	stimuli\manhole\manhole_03s.jpg	2	-1	1	0	manhole_03s.jpg	0	0	0	225.40101250005	225.451007500058	0.0499950000084937
147554	50	342	0	0	porcupine	1226	33	1	stimuli\porcupine\porcupine_02s.jpg	1	-1	1	0	porcupine_02s.jpg	0	0	0	225.501026999904	225.551011499949	0.0499845000449568
147654	50	343	0	0	arch	35	34	1	stimuli\arch\arch_11s.jpg	10	-1	1	0	arch_11s.jpg	0	0	0	225.601032099919	225.651015100069	0.0499830001499504
147754	50	344	0	0	medal	991	35	1	stimuli\medal\medal_05s.jpg	4	-1	1	0	medal_05s.jpg	0	0	0	225.701034199912	225.751014200039	0.0499800001271069
147855	50	345	0	0	chopsticks	339	36	1	stimuli\chopsticks\chopsticks_05s.jpg	4	-1	1	0	chopsticks_05s.jpg	0	0	0	225.801040699938	225.851038499968	0.0499978000298142
147954	50	346	0	0	flashbulb	610	37	1	stimuli\flashbulb\flashbulb_09s.jpg	8	-1	1	0	flashbulb_09s.jpg	0	0	0	225.901038199896	225.951017099898	0.0499789000023156
148055	50	347	0	0	turtle	1736	38	1	stimuli\turtle\turtle_12s.jpg	11	-1	1	0	turtle_12s.jpg	0	0	0	226.001041299896	226.051019700011	0.0499784001149237
148155	50	348	0	0	leaf	906	39	1	stimuli\leaf\leaf_03s.jpg	2	-1	1	0	leaf_03s.jpg	0	0	0	226.101044999901	226.151023699902	0.0499787000007927
148255	50	349	0	0	twig	1740	40	1	stimuli\twig\twig_10s.jpg	9	-1	1	0	twig_10s.jpg	0	0	0	226.201048299903	226.251027700026	0.0499794001225382
148355	50	350	0	0	speedometer	1512	41	1	stimuli\speedometer\speedometer_10s.jpg	9	-1	1	0	speedometer_10s.jpg	0	0	0	226.301047199871	226.351026799995	0.0499796001240611
148455	50	351	0	0	pencil	1142	42	1	stimuli\pencil\pencil_02s.jpg	1	-1	1	0	pencil_02s.jpg	0	0	0	226.401050199987	226.451028899988	0.0499787000007927
148555	50	352	0	0	bead	100	43	1	stimuli\bead\bead_09s.jpg	8	-1	1	0	bead_09s.jpg	0	0	0	226.501051499974	226.551032299874	0.0499807999003679
148655	50	353	0	0	contact_lens	397	44	1	stimuli\contact_lens\contact_lens_03s.jpg	2	-1	1	0	contact_lens_03s.jpg	0	0	0	226.60106060002	226.651037999894	0.0499773998744786
148755	50	354	0	0	hook1	793	45	1	stimuli\hook1\hook1_12s.jpg	11	-1	1	0	hook1_12s.jpg	0	0	0	226.701042799978	226.751038999995	0.0499962000176311
148855	50	355	0	0	jetski	848	46	1	stimuli\jetski\jetski_05s.jpg	4	-1	1	0	jetski_05s.jpg	0	0	0	226.801059599966	226.851038400084	0.0499788001179695
148955	50	356	0	0	calf2	242	47	1	stimuli\calf2\calf2_12s.jpg	11	-1	1	0	calf2_12s.jpg	0	0	0	226.901067599887	226.951028299984	0.0499607000965625
149055	50	357	0	0	bench	120	48	1	stimuli\bench\bench_04s.jpg	3	-1	1	0	bench_04s.jpg	0	0	0	227.001065599965	227.051042499952	0.0499768999870867
149155	50	358	0	0	radio	1273	49	1	stimuli\radio\radio_02s.jpg	1	-1	1	0	radio_02s.jpg	0	0	0	227.101065899944	227.151049999986	0.049984100041911
149255	50	359	0	0	coat	369	50	1	stimuli\coat\coat_10s.jpg	9	-1	1	0	coat_10s.jpg	0	0	0	227.201069399947	227.251033300068	0.0499639001209289
149355	50	360	0	0	cereal	297	51	1	stimuli\cereal\cereal_12s.jpg	11	-1	1	0	cereal_12s.jpg	0	0	0	227.301072800066	227.351052100072	0.0499793000053614
149455	50	361	0	0	swimsuit	1597	52	1	stimuli\swimsuit\swimsuit_06s.jpg	5	-1	1	0	swimsuit_06s.jpg	0	0	0	227.401072199922	227.451054099947	0.0499819000251591
149555	50	362	0	0	backdrop	47	53	1	stimuli\backdrop\backdrop_06s.jpg	5	-1	1	0	backdrop_06s.jpg	0	0	0	227.501074099913	227.551054799929	0.0499807000160217
149655	50	363	0	0	pajamas	1099	54	1	stimuli\pajamas\pajamas_10s.jpg	9	-1	1	0	pajamas_10s.jpg	0	0	0	227.601077199914	227.651062499965	0.0499853000510484
149755	50	364	0	0	bandanna	67	55	1	stimuli\bandanna\bandanna_02s.jpg	1	-1	1	0	bandanna_02s.jpg	0	0	0	227.701107899891	227.751062500058	0.0499546001665294
149855	50	365	0	0	chute	342	56	1	stimuli\chute\chute_02s.jpg	1	-1	1	0	chute_02s.jpg	0	0	0	227.801090100082	227.851067299955	0.0499771998729557
149955	50	366	0	0	turban	1730	57	1	stimuli\turban\turban_04s.jpg	3	-1	1	0	turban_04s.jpg	0	0	0	227.901088899933	227.951090599876	0.0500016999430954
150055	50	367	0	0	footrest	633	58	1	stimuli\footrest\footrest_11s.jpg	10	-1	1	0	footrest_11s.jpg	0	0	0	228.001088900026	228.051070400048	0.0499815000221133
150155	50	368	0	0	sprouts	1524	59	1	stimuli\sprouts\sprouts_10s.jpg	9	-1	1	0	sprouts_10s.jpg	0	0	0	228.101094400045	228.151073799934	0.0499793998897076
150255	50	369	0	0	oatmeal	1069	60	1	stimuli\oatmeal\oatmeal_09s.jpg	8	-1	1	0	oatmeal_09s.jpg	0	0	0	228.201092300005	228.251072000014	0.0499797000084072
150355	50	370	0	0	vending_machine	1757	61	1	stimuli\vending_machine\vending_machine_04s.jpg	3	-1	1	0	vending_machine_04s.jpg	0	0	0	228.301103899954	228.351078300038	0.0499744000844657
150455	50	371	0	0	cream	436	62	1	stimuli\cream\cream_11s.jpg	10	-1	1	0	cream_11s.jpg	0	0	0	228.401103300042	228.451078400016	0.0499750999733806
150555	50	372	0	0	seismograph	1403	63	1	stimuli\seismograph\seismograph_08s.jpg	7	-1	1	0	seismograph_08s.jpg	0	0	0	228.501101600006	228.551084100036	0.0499825000297278
150655	50	373	0	0	popsicle	1225	64	1	stimuli\popsicle\popsicle_09s.jpg	8	-1	1	0	popsicle_09s.jpg	0	0	0	228.601102999877	228.651082600001	0.0499796001240611
150755	50	374	0	0	neck	1053	65	1	stimuli\neck\neck_02s.jpg	1	-1	1	0	neck_02s.jpg	0	0	0	228.701104999986	228.751085999887	0.0499809999018908
150855	50	375	0	0	rhinoceros	1306	66	1	stimuli\rhinoceros\rhinoceros_04s.jpg	3	-1	1	0	rhinoceros_04s.jpg	0	0	0	228.801110700006	228.8510906999	0.0499799998942763
150955	50	376	0	0	mongoose	1016	67	1	stimuli\mongoose\mongoose_10s.jpg	9	-1	1	0	mongoose_10s.jpg	0	0	0	228.901133999927	228.951091799885	0.0499577999580652
151055	50	377	0	0	sock	1489	68	1	stimuli\sock\sock_07s.jpg	6	-1	1	0	sock_07s.jpg	0	0	0	229.001112299971	229.051093799993	0.0499815000221133
151155	50	378	0	0	stir_fry	1557	69	1	stimuli\stir_fry\stir_fry_08s.jpg	7	-1	1	0	stir_fry_08s.jpg	0	0	0	229.101120299893	229.1510824	0.0499621001072228
151255	50	379	0	0	turkey	1733	70	1	stimuli\turkey\turkey_03s.jpg	2	-1	1	0	turkey_03s.jpg	0	0	0	229.201117499964	229.251073000021	0.0499555000569671
151355	50	380	0	0	face_mask	570	71	1	stimuli\face_mask\face_mask_10s.jpg	9	-1	1	0	face_mask_10s.jpg	0	0	0	229.301093799993	229.351072499994	0.0499787000007927
151455	50	381	0	0	walrus	1779	72	1	stimuli\walrus\walrus_12s.jpg	11	-1	1	0	walrus_12s.jpg	0	0	0	229.401096799877	229.451074699871	0.0499778999947011
151555	50	382	0	0	pancake	1104	73	1	stimuli\pancake\pancake_11s.jpg	10	-1	1	0	pancake_11s.jpg	0	0	0	229.501099499874	229.551075699972	0.0499762000981718
151655	50	383	0	0	cocktail	374	74	1	stimuli\cocktail\cocktail_08s.jpg	7	-1	1	0	cocktail_08s.jpg	0	0	0	229.60110339988	229.651080999989	0.0499776001088321
151755	50	384	0	0	spark_plug	1506	75	1	stimuli\spark_plug\spark_plug_10s.jpg	9	-1	1	0	spark_plug_10s.jpg	0	0	0	229.701102300081	229.751082799863	0.0499804997816682
151855	50	385	0	0	hot_tub	804	76	1	stimuli\hot_tub\hot_tub_06s.jpg	5	-1	1	0	hot_tub_06s.jpg	0	0	0	229.801105099963	229.851085899863	0.0499807999003679
151955	50	386	0	0	wrist	1842	77	1	stimuli\wrist\wrist_06s.jpg	5	-1	1	0	wrist_06s.jpg	0	0	0	229.901114299893	229.95108979987	0.0499754999764264
152055	50	387	0	0	mantle	969	78	1	stimuli\mantle\mantle_06s.jpg	5	-1	1	0	mantle_06s.jpg	0	0	0	230.001110899961	230.051091499859	0.049980599898845
152155	50	388	0	0	rearview_mirror	1293	79	1	stimuli\rearview_mirror\rearview_mirror_02s.jpg	1	-1	1	0	rearview_mirror_02s.jpg	0	0	0	230.101112999953	230.151091899956	0.0499789000023156
152255	50	389	0	0	ladybug	888	80	1	stimuli\ladybug\ladybug_07s.jpg	6	-1	1	0	ladybug_07s.jpg	0	0	0	230.201119199861	230.251096100081	0.0499769002199173
152355	50	390	0	0	mailbox	960	81	1	stimuli\mailbox\mailbox_05s.jpg	4	-1	1	0	mailbox_05s.jpg	0	0	0	230.30111999996	230.35109780007	0.049977800110355
152455	50	391	0	0	noodle	1061	82	1	stimuli\noodle\noodle_03s.jpg	2	-1	1	0	noodle_03s.jpg	0	0	0	230.401121299947	230.451098500052	0.0499772001057863
152555	50	392	0	0	odometer	1071	83	1	stimuli\odometer\odometer_08s.jpg	7	-1	1	0	odometer_08s.jpg	0	0	0	230.501125900075	230.55110069993	0.0499747998546809
152655	50	393	0	0	guardrail	720	84	1	stimuli\guardrail\guardrail_01b.jpg	0	-1	1	0	guardrail_01b.jpg	0	0	0	230.601125699934	230.651104599936	0.0499789000023156
152755	50	394	0	0	handle	748	85	1	stimuli\handle\handle_04s.jpg	3	-1	1	0	handle_04s.jpg	0	0	0	230.701125399908	230.751106499927	0.0499811000190675
152855	50	395	0	0	dragonfly	514	86	1	stimuli\dragonfly\dragonfly_04s.jpg	3	-1	1	0	dragonfly_04s.jpg	0	0	0	230.80113700009	230.851108700037	0.0499716999474913
152955	50	396	0	0	strawberry	1570	87	1	stimuli\strawberry\strawberry_06n.jpg	5	-1	1	0	strawberry_06n.jpg	0	0	0	230.901133199921	230.951111099916	0.0499778999947011
153055	50	397	0	0	paper_towel	1115	88	1	stimuli\paper_towel\paper_towel_08s.jpg	7	-1	1	0	paper_towel_08s.jpg	0	0	0	231.001135899918	231.051115900045	0.0499800001271069
153155	50	398	0	0	telegraph	1638	89	1	stimuli\telegraph\telegraph_01s.jpg	0	-1	1	0	telegraph_01s.jpg	0	0	0	231.10113830003	231.151118200039	0.0499799000099301
153255	50	399	0	0	daisy	470	90	1	stimuli\daisy\daisy_11s.jpg	10	-1	1	0	daisy_11s.jpg	0	0	0	231.201142200036	231.251123100054	0.0499809000175446
153355	50	400	0	0	easel	542	91	1	stimuli\easel\easel_05s.jpg	4	-1	1	0	easel_05s.jpg	0	0	0	231.301141100004	231.351121099899	0.0499799998942763
153455	50	401	0	0	book	165	92	1	stimuli\book\book_12s.jpg	11	-1	1	0	book_12s.jpg	0	0	0	231.401146699907	231.451126799919	0.049980100011453
153555	50	402	0	0	ferry	580	93	1	stimuli\ferry\ferry_06s.jpg	5	-1	1	0	ferry_06s.jpg	0	0	0	231.501149399905	231.551128499908	0.0499791000038385
153655	50	403	0	0	shelf	1416	94	1	stimuli\shelf\shelf_12s.jpg	11	-1	1	0	shelf_12s.jpg	0	0	0	231.601151200011	231.65112779988	0.049976599868387
153755	50	404	0	0	tree_trunk	1709	95	1	stimuli\tree_trunk\tree_trunk_02s.jpg	1	-1	1	0	tree_trunk_02s.jpg	0	0	0	231.701151599875	231.751132600009	0.0499810001347214
153855	50	405	0	0	ink	829	96	1	stimuli\ink\ink_01b.jpg	0	-1	1	0	ink_01b.jpg	0	0	0	231.801154799992	231.851134399883	0.0499795998912305
153955	50	406	0	0	toothbrush	1679	97	1	stimuli\toothbrush\toothbrush_06s.jpg	5	-1	1	0	toothbrush_06s.jpg	0	0	0	231.901157099986	231.95113569987	0.049978599883616
154055	50	407	0	0	swizzle_stick	1601	98	1	stimuli\swizzle_stick\swizzle_stick_08s.jpg	7	-1	1	0	swizzle_stick_08s.jpg	0	0	0	232.001165800029	232.051138299983	0.0499724999535829
154155	50	408	0	0	anvil	28	99	1	stimuli\anvil\anvil_02s.jpg	1	-1	1	0	anvil_02s.jpg	0	0	0	232.101161400089	232.151142599992	0.0499811999034137
154255	50	409	0	0	nail_polish	1049	100	1	stimuli\nail_polish\nail_polish_03s.jpg	2	-1	1	0	nail_polish_03s.jpg	0	0	0	232.201165899867	232.251143799862	0.0499778999947011
154355	50	410	0	0	seafood	1394	101	1	stimuli\seafood\seafood_12s.jpg	11	-1	1	0	seafood_12s.jpg	0	0	0	232.301166400081	232.351144300075	0.0499778999947011
154455	50	411	0	0	watermelon	1793	102	1	stimuli\watermelon\watermelon_08s.jpg	7	-1	1	0	watermelon_08s.jpg	0	0	0	232.401169900084	232.451149899978	0.0499799998942763
154555	50	412	0	0	apple_tree	31	103	1	stimuli\apple_tree\apple_tree_08s.jpg	7	-1	1	0	apple_tree_08s.jpg	0	0	0	232.501173799857	232.551150300074	0.0499765002168715
154655	50	413	0	0	whoopee_cushion	1814	104	1	stimuli\whoopee_cushion\whoopee_cushion_04s.jpg	3	-1	1	0	whoopee_cushion_04s.jpg	0	0	0	232.601174700074	232.651154000079	0.0499793000053614
154755	50	414	0	0	sandwich	1357	105	1	stimuli\sandwich\sandwich_02s.jpg	1	-1	1	0	sandwich_02s.jpg	0	0	0	232.701175699942	232.751155500067	0.049979800125584
154855	50	415	0	0	orchid	1081	106	1	stimuli\orchid\orchid_08s.jpg	7	-1	1	0	orchid_08s.jpg	0	0	0	232.801179900067	232.851156400051	0.0499764999840409
154955	50	416	0	0	trowel	1719	107	1	stimuli\trowel\trowel_10s.jpg	9	-1	1	0	trowel_10s.jpg	0	0	0	232.901183200069	232.95116070006	0.0499774999916553
155055	50	417	0	0	combination_lock	390	108	1	stimuli\combination_lock\combination_lock_11s.jpg	10	-1	1	0	combination_lock_11s.jpg	0	0	0	233.001184399938	233.051165600074	0.0499812001362443
155155	50	418	0	0	amber	18	109	1	stimuli\amber\amber_08s.jpg	7	-1	1	0	amber_08s.jpg	0	0	0	233.101187400054	233.151162999915	0.0499755998607725
155255	50	419	0	0	teapot	1634	110	1	stimuli\teapot\teapot_06s.jpg	5	-1	1	0	teapot_06s.jpg	0	0	0	233.201189500047	233.251166800037	0.0499772999901325
155355	50	420	0	0	trunk	1722	111	1	stimuli\trunk\trunk_12s.jpg	11	-1	1	0	trunk_12s.jpg	0	0	0	233.301199199865	233.351169900037	0.0499707001727074
155455	50	421	0	0	glass	677	112	1	stimuli\glass\glass_06s.jpg	5	-1	1	0	glass_06s.jpg	0	0	0	233.401197100058	233.451171699911	0.049974599853158
155555	50	422	0	0	headset	769	113	1	stimuli\headset\headset_04s.jpg	3	-1	1	0	headset_04s.jpg	0	0	0	233.501196800033	233.551173999906	0.0499771998729557
155655	50	423	0	0	footprint	632	114	1	stimuli\footprint\footprint_08s.jpg	7	-1	1	0	footprint_08s.jpg	0	0	0	233.601198399905	233.651177400025	0.0499790001194924
155755	50	424	0	0	cocoon	376	115	1	stimuli\cocoon\cocoon_10s.jpg	9	-1	1	0	cocoon_10s.jpg	0	0	0	233.701197799994	233.751178900013	0.0499811000190675
155855	50	425	0	0	sorbet	1497	116	1	stimuli\sorbet\sorbet_04s.jpg	3	-1	1	0	sorbet_04s.jpg	0	0	0	233.801205900032	233.851182600018	0.0499766999855638
155955	50	426	0	0	guinea_pig	722	117	1	stimuli\guinea_pig\guinea_pig_08s.jpg	7	-1	1	0	guinea_pig_08s.jpg	0	0	0	233.901205200003	233.951208000071	0.0500028000678867
156055	50	427	0	0	shell2	1418	118	1	stimuli\shell2\shell2_10s.jpg	9	-1	1	0	shell2_10s.jpg	0	0	0	234.001208900008	234.051188800018	0.0499799000099301
156155	50	428	0	0	headscarf	768	119	1	stimuli\headscarf\headscarf_08s.jpg	7	-1	1	0	headscarf_08s.jpg	0	0	0	234.101210599998	234.151193399914	0.0499827999155968
156255	50	429	0	0	thermostat	1648	120	1	stimuli\thermostat\thermostat_12s.jpg	11	-1	1	0	thermostat_12s.jpg	0	0	0	234.2012312999	234.251192899887	0.0499615999870002
156355	50	430	0	0	sheep	1414	121	1	stimuli\sheep\sheep_04n.jpg	3	-1	1	0	sheep_04n.jpg	0	0	0	234.301219200017	234.351196199888	0.0499769998714328
156455	50	431	0	0	microwave	1000	122	1	stimuli\microwave\microwave_11s.jpg	10	-1	1	0	microwave_11s.jpg	0	0	0	234.401219099993	234.451196599985	0.0499774999916553
156555	50	432	0	0	lifesaver	925	123	1	stimuli\lifesaver\lifesaver_12s.jpg	11	-1	1	0	lifesaver_12s.jpg	0	0	0	234.501226299908	234.551203500014	0.0499772001057863
156655	50	433	0	0	squirrel	1529	124	1	stimuli\squirrel\squirrel_06s.jpg	5	-1	1	0	squirrel_06s.jpg	0	0	0	234.601231700042	234.651222799905	0.0499910998623818
156755	50	434	0	0	sunglasses	1585	125	1	stimuli\sunglasses\sunglasses_08s.jpg	7	-1	1	0	sunglasses_08s.jpg	0	0	0	234.701249900041	234.751205499982	0.0499555999413133
156855	50	435	0	0	soy_sauce	1500	126	1	stimuli\soy_sauce\soy_sauce_08s.jpg	7	-1	1	0	soy_sauce_08s.jpg	0	0	0	234.801227099961	234.851207999978	0.0499809000175446
156955	50	436	0	0	mushroom	1040	127	1	stimuli\mushroom\mushroom_03n.jpg	2	-1	1	0	mushroom_03n.jpg	0	0	0	234.901231799973	234.951210499974	0.0499787000007927
157055	50	437	0	0	curtain	465	128	1	stimuli\curtain\curtain_03s.jpg	2	-1	1	0	curtain_03s.jpg	0	0	0	235.001232600072	235.051210500067	0.0499778999947011
157155	50	438	0	0	fishing_pole	603	129	1	stimuli\fishing_pole\fishing_pole_03s.jpg	2	-1	1	0	fishing_pole_03s.jpg	0	0	0	235.101235100068	235.151214299956	0.0499791998881847
157255	50	439	0	0	steamroller	1545	130	1	stimuli\steamroller\steamroller_03n.jpg	2	-1	1	0	steamroller_03n.jpg	0	0	0	235.201237099944	235.251215100056	0.0499780001118779
157355	50	440	0	0	ski_pole	1455	131	1	stimuli\ski_pole\ski_pole_03s.jpg	2	-1	1	0	ski_pole_03s.jpg	0	0	0	235.301242799964	235.351217699936	0.0499748999718577
157455	50	441	0	0	crow	446	132	1	stimuli\crow\crow_01b.jpg	0	-1	1	0	crow_01b.jpg	0	0	0	235.401242299937	235.451220799936	0.0499784999992698
157555	50	442	0	0	panda	1105	133	1	stimuli\panda\panda_07s.jpg	6	-1	1	0	panda_07s.jpg	0	0	0	235.501245300053	235.551224000053	0.0499787000007927
157655	50	443	0	0	wire	1828	134	1	stimuli\wire\wire_06s.jpg	5	-1	1	0	wire_06s.jpg	0	0	0	235.601247000042	235.651225199923	0.0499781998805702
157755	50	444	0	0	chicken1	322	135	1	stimuli\chicken1\chicken1_05s.jpg	4	-1	1	0	chicken1_05s.jpg	0	0	0	235.701246100012	235.751228099922	0.0499819999095052
157855	50	445	0	0	pearl	1134	136	1	stimuli\pearl\pearl_04s.jpg	3	-1	1	0	pearl_04s.jpg	0	0	0	235.801253499929	235.851230700035	0.0499772001057863
157955	50	446	0	0	wine	1823	137	1	stimuli\wine\wine_08s.jpg	7	-1	1	0	wine_08s.jpg	0	0	0	235.901257799938	235.951233400032	0.0499756000936031
158055	50	447	0	0	saffron	1345	138	1	stimuli\saffron\saffron_11s.jpg	10	-1	1	0	saffron_11s.jpg	0	0	0	236.001259000041	236.051236399915	0.0499773998744786
158155	50	448	0	0	penlight	1147	139	1	stimuli\penlight\penlight_08s.jpg	7	-1	1	0	penlight_08s.jpg	0	0	0	236.101259199902	236.151237699902	0.0499784999992698
158255	50	449	0	0	dynamite	536	140	1	stimuli\dynamite\dynamite_09s.jpg	8	-1	1	0	dynamite_09s.jpg	0	0	0	236.201261800015	236.251239300007	0.0499774999916553
158355	50	450	0	0	fan	571	141	1	stimuli\fan\fan_08s.jpg	7	-1	1	0	fan_08s.jpg	0	0	0	236.301263199886	236.351242400007	0.0499792001210153
158455	50	451	0	0	brownie	204	142	1	stimuli\brownie\brownie_05s.jpg	4	-1	1	0	brownie_05s.jpg	0	0	0	236.401267400011	236.451245700009	0.0499782999977469
158555	50	452	0	0	filter	587	143	1	stimuli\filter\filter_06s.jpg	5	-1	1	0	filter_06s.jpg	0	0	0	236.501269500004	236.551249299897	0.0499797998927534
158655	50	453	0	0	perfume	1154	144	1	stimuli\perfume\perfume_06s.jpg	5	-1	1	0	perfume_06s.jpg	0	0	0	236.601273200009	236.651250099996	0.0499768999870867
158755	50	454	0	0	caramel	270	145	1	stimuli\caramel\caramel_03s.jpg	2	-1	1	0	caramel_03s.jpg	0	0	0	236.701277900022	236.751251499867	0.0499735998455435
158855	50	455	0	0	taco	1613	146	1	stimuli\taco\taco_08s.jpg	7	-1	1	0	taco_08s.jpg	0	0	0	236.801276399987	236.851253499975	0.0499770999886096
158955	50	456	0	0	gift	672	147	1	stimuli\gift\gift_01b.jpg	0	-1	1	0	gift_01b.jpg	0	0	0	236.901279599871	236.95125630009	0.0499767002183944
159055	50	457	0	0	crayon	435	148	1	stimuli\crayon\crayon_07s.jpg	6	-1	1	0	crayon_07s.jpg	0	0	0	237.001285699895	237.051260199863	0.0499744999688119
159155	50	458	0	0	sunroof	1586	149	1	stimuli\sunroof\sunroof_07s.jpg	6	-1	1	0	sunroof_07s.jpg	0	0	0	237.101285099983	237.15126199997	0.0499768999870867
159255	50	459	0	0	music_box	1041	150	1	stimuli\music_box\music_box_06s.jpg	5	-1	1	0	music_box_06s.jpg	0	0	0	237.201288899872	237.251265099971	0.0499762000981718
159355	50	460	0	0	whiteboard	1813	151	1	stimuli\whiteboard\whiteboard_11s.jpg	10	-1	1	0	whiteboard_11s.jpg	0	0	0	237.301288000075	237.351267300081	0.0499793000053614
159455	50	461	0	0	blueberry	149	152	1	stimuli\blueberry\blueberry_11n.jpg	10	-1	1	0	blueberry_11n.jpg	0	0	0	237.401296600001	237.451269600075	0.0499730000738055
159555	50	462	0	0	fire_pit	593	153	1	stimuli\fire_pit\fire_pit_04s.jpg	3	-1	1	0	fire_pit_04s.jpg	0	0	0	237.501292299945	237.551271700067	0.0499794001225382
159655	50	463	0	0	siren	1448	154	1	stimuli\siren\siren_11s.jpg	10	-1	1	0	siren_11s.jpg	0	0	0	237.601296399953	237.651274499949	0.049978099996224
159755	50	464	0	0	paintbrush	1097	155	1	stimuli\paintbrush\paintbrush_04s.jpg	3	-1	1	0	paintbrush_04s.jpg	0	0	0	237.701297600055	237.751275999937	0.0499783998820931
159855	50	465	0	0	elbow	552	156	1	stimuli\elbow\elbow_06s.jpg	5	-1	1	0	elbow_06s.jpg	0	0	0	237.801302100066	237.851278699934	0.049976599868387
159955	50	466	0	0	chimney	329	157	1	stimuli\chimney\chimney_08s.jpg	7	-1	1	0	chimney_08s.jpg	0	0	0	237.90130649996	237.951280700043	0.0499742000829428
160055	50	467	0	0	hedge	773	158	1	stimuli\hedge\hedge_07s.jpg	6	-1	1	0	hedge_07s.jpg	0	0	0	238.001305100042	238.051283899928	0.0499787998851389
160155	50	468	0	0	vase	1753	159	1	stimuli\vase\vase_06s.jpg	5	-1	1	0	vase_06s.jpg	0	0	0	238.101306800032	238.151285700034	0.0499789000023156
160255	50	469	0	0	light_switch	926	160	1	stimuli\light_switch\light_switch_06s.jpg	5	-1	1	0	light_switch_06s.jpg	0	0	0	238.20131090004	238.251289699925	0.0499787998851389
160355	50	470	0	0	wall	1775	161	1	stimuli\wall\wall_07s.jpg	6	-1	1	0	wall_07s.jpg	0	0	0	238.301311800024	238.351291199913	0.0499793998897076
160455	50	471	0	0	puddle	1247	162	1	stimuli\puddle\puddle_05s.jpg	4	-1	1	0	puddle_05s.jpg	0	0	0	238.401317199925	238.451294899918	0.0499776999931782
160555	50	472	0	0	gravestone	710	163	1	stimuli\gravestone\gravestone_12s.jpg	11	-1	1	0	gravestone_12s.jpg	0	0	0	238.501318699913	238.551296599908	0.0499778999947011
160655	50	473	0	0	red_carpet	1298	164	1	stimuli\red_carpet\red_carpet_08s.jpg	7	-1	1	0	red_carpet_08s.jpg	0	0	0	238.601318799891	238.651303699939	0.0499849000480026
160755	50	474	0	0	water_filter	1789	165	1	stimuli\water_filter\water_filter_01b.jpg	0	-1	1	0	water_filter_01b.jpg	0	0	0	238.701320699882	238.751301199896	0.0499805000144988
160855	50	475	0	0	seed	1401	166	1	stimuli\seed\seed_02s.jpg	1	-1	1	0	seed_02s.jpg	0	0	0	238.801324300002	238.851306200027	0.0499819000251591
160955	50	476	0	0	gasket	661	167	1	stimuli\gasket\gasket_04s.jpg	3	-1	1	0	gasket_04s.jpg	0	0	0	238.901326399995	238.951306700008	0.0499803000129759
161055	50	477	0	0	tiramisu	1663	168	1	stimuli\tiramisu\tiramisu_11s.jpg	10	-1	1	0	tiramisu_11s.jpg	0	0	0	239.001329899998	239.05130739999	0.0499774999916553
161155	50	478	0	0	parking_meter	1120	169	1	stimuli\parking_meter\parking_meter_06s.jpg	5	-1	1	0	parking_meter_06s.jpg	0	0	0	239.101331899874	239.151311599882	0.0499797000084072
161255	50	479	0	0	asparagus	42	170	1	stimuli\asparagus\asparagus_10s.jpg	9	-1	1	0	asparagus_10s.jpg	0	0	0	239.201334799873	239.251313999994	0.0499792001210153
161355	50	480	0	0	pasta	1123	171	1	stimuli\pasta\pasta_02s.jpg	1	-1	1	0	pasta_02s.jpg	0	0	0	239.301336099859	239.351316199871	0.049980100011453
161455	50	481	0	0	whip	1809	172	1	stimuli\whip\whip_11s.jpg	10	-1	1	0	whip_11s.jpg	0	0	0	239.401344599901	239.451317399973	0.0499728000722826
161555	50	482	0	0	trapdoor	1703	173	1	stimuli\trapdoor\trapdoor_10s.jpg	9	-1	1	0	trapdoor_10s.jpg	0	0	0	239.501342199976	239.551321899984	0.0499797000084072
161655	50	483	0	0	lettuce	920	174	1	stimuli\lettuce\lettuce_01b.jpg	0	-1	1	0	lettuce_01b.jpg	0	0	0	239.601344400086	239.651322700083	0.0499782999977469
161755	50	484	0	0	floss	617	175	1	stimuli\floss\floss_05s.jpg	4	-1	1	0	floss_05s.jpg	0	0	0	239.701344399946	239.751324600074	0.0499802001286298
161855	50	485	0	0	pole	1213	176	1	stimuli\pole\pole_06s.jpg	5	-1	1	0	pole_06s.jpg	0	0	0	239.801350099966	239.851326500066	0.0499764000996947
161955	50	486	0	0	fireworks	598	177	1	stimuli\fireworks\fireworks_09s.jpg	8	-1	1	0	fireworks_09s.jpg	0	0	0	239.901350999949	239.951328600058	0.0499776001088321
162055	50	487	0	0	cream_cheese	437	178	1	stimuli\cream_cheese\cream_cheese_01b.jpg	0	-1	1	0	cream_cheese_01b.jpg	0	0	0	240.001353699947	240.051332399948	0.0499787000007927
162155	50	488	0	0	ring	1313	179	1	stimuli\ring\ring_06s.jpg	5	-1	1	0	ring_06s.jpg	0	0	0	240.101356399944	240.151333800051	0.0499774001073092
162255	50	489	0	0	ice-cream_cone	817	180	1	stimuli\ice-cream_cone\ice-cream_cone_07s.jpg	6	-1	1	0	ice-cream_cone_07s.jpg	0	0	0	240.201360099949	240.251339700073	0.0499796001240611
162355	50	490	0	0	suit	1580	181	1	stimuli\suit\suit_10s.jpg	9	-1	1	0	suit_10s.jpg	0	0	0	240.301360199926	240.351344299968	0.049984100041911
162455	50	491	0	0	stiletto	1554	182	1	stimuli\stiletto\stiletto_06s.jpg	5	-1	1	0	stiletto_06s.jpg	0	0	0	240.401362699922	240.451346599963	0.0499839000403881
162555	50	492	0	0	jam	839	183	1	stimuli\jam\jam_10s.jpg	9	-1	1	0	jam_10s.jpg	0	0	0	240.50138069992	240.551345200045	0.0499645001254976
162655	50	493	0	0	blowgun	147	184	1	stimuli\blowgun\blowgun_12s.jpg	11	-1	1	0	blowgun_12s.jpg	0	0	0	240.601369099924	240.651346100029	0.0499770001042634
162755	50	494	0	0	goalpost	683	185	1	stimuli\goalpost\goalpost_04s.jpg	3	-1	1	0	goalpost_04s.jpg	0	0	0	240.701369799906	240.751351600047	0.049981800140813
162855	50	495	0	0	watering_can	1792	186	1	stimuli\watering_can\watering_can_05s.jpg	4	-1	1	0	watering_can_05s.jpg	0	0	0	240.801372499904	240.851352900034	0.0499804001301527
162955	50	496	0	0	tag	1616	187	1	stimuli\tag\tag_07s.jpg	6	-1	1	0	tag_07s.jpg	0	0	0	240.901375999907	240.951357899932	0.0499819000251591
163055	50	497	0	0	bungee	221	188	1	stimuli\bungee\bungee_11s.jpg	10	-1	1	0	bungee_11s.jpg	0	0	0	241.001382699935	241.051355999894	0.0499732999596745
163155	50	498	0	0	ostrich	1084	189	1	stimuli\ostrich\ostrich_06s.jpg	5	-1	1	0	ostrich_06s.jpg	0	0	0	241.101379700005	241.151359099895	0.0499793998897076
163255	50	499	0	0	chest1	319	190	1	stimuli\chest1\chest1_05s.jpg	4	-1	1	0	chest1_05s.jpg	0	0	0	241.201383299893	241.251361599891	0.0499782999977469
163355	50	500	0	0	sweatsuit	1593	191	1	stimuli\sweatsuit\sweatsuit_11s.jpg	10	-1	1	0	sweatsuit_11s.jpg	0	0	0	241.30138599989	241.351362699876	0.0499766999855638
163455	50	501	0	0	marmalade	976	192	1	stimuli\marmalade\marmalade_12s.jpg	11	-1	1	0	marmalade_12s.jpg	0	0	0	241.401389899896	241.451366999885	0.0499770999886096
163555	50	502	0	0	toaster_oven	1667	193	1	stimuli\toaster_oven\toaster_oven_07s.jpg	6	-1	1	0	toaster_oven_07s.jpg	0	0	0	241.501391099999	241.551367399981	0.049976299982518
163655	50	503	0	0	bunkbed	222	194	1	stimuli\bunkbed\bunkbed_05s.jpg	4	-1	1	0	bunkbed_05s.jpg	0	0	0	241.601400000043	241.651370799867	0.0499707998242229
163755	50	504	0	0	tortilla	1687	195	1	stimuli\tortilla\tortilla_03s.jpg	2	-1	1	0	tortilla_03s.jpg	0	0	0	241.701392699964	241.751377699897	0.0499849999323487
163855	50	505	0	0	ladle	887	196	1	stimuli\ladle\ladle_12s.jpg	11	-1	1	0	ladle_12s.jpg	0	0	0	241.801398799988	241.851376199862	0.0499773998744786
163955	50	506	0	0	hatchet	759	197	1	stimuli\hatchet\hatchet_03s.jpg	2	-1	1	0	hatchet_03s.jpg	0	0	0	241.901400099974	241.951378100086	0.0499780001118779
164055	50	507	0	0	birthday_cake	132	198	1	stimuli\birthday_cake\birthday_cake_02s.jpg	1	-1	1	0	birthday_cake_02s.jpg	0	0	0	242.001403599977	242.051381200086	0.0499776001088321
164155	50	508	0	0	dreidel	517	199	1	stimuli\dreidel\dreidel_07s.jpg	6	-1	1	0	dreidel_07s.jpg	0	0	0	242.101404200075	242.151382300071	0.049978099996224
164255	50	509	0	0	sailboat	1347	200	1	stimuli\sailboat\sailboat_06s.jpg	5	-1	1	0	sailboat_06s.jpg	0	0	0	242.201407300076	242.251385099953	0.0499777998775244
164355	50	510	0	0	station_wagon	1542	201	1	stimuli\station_wagon\station_wagon_10s.jpg	9	-1	1	0	station_wagon_10s.jpg	0	0	0	242.301409699954	242.35138690006	0.0499772001057863
164455	50	511	0	0	lunchbox	950	202	1	stimuli\lunchbox\lunchbox_03s.jpg	2	-1	1	0	lunchbox_03s.jpg	0	0	0	242.401412900072	242.451390499948	0.0499775998760015
164555	50	512	0	0	swing	1598	203	1	stimuli\swing\swing_07s.jpg	6	-1	1	0	swing_07s.jpg	0	0	0	242.501414299943	242.551392999943	0.0499787000007927
164655	50	513	0	0	pants	1108	204	1	stimuli\pants\pants_10s.jpg	9	-1	1	0	pants_10s.jpg	0	0	0	242.601419100072	242.651396600064	0.0499774999916553
164755	50	514	0	0	wheelchair	1808	205	1	stimuli\wheelchair\wheelchair_06s.jpg	5	-1	1	0	wheelchair_06s.jpg	0	0	0	242.701418099925	242.751404099865	0.0499859999399632
164855	50	515	0	0	screen2	1389	206	1	stimuli\screen2\screen2_04s.jpg	3	-1	1	0	screen2_04s.jpg	0	0	0	242.801422999939	242.85139909992	0.0499760999809951
164955	50	516	0	0	fruit	645	207	1	stimuli\fruit\fruit_02s.jpg	1	-1	1	0	fruit_02s.jpg	0	0	0	242.901422000024	242.951402599923	0.049980599898845
165055	50	517	0	0	drain	515	208	1	stimuli\drain\drain_02s.jpg	1	-1	1	0	drain_02s.jpg	0	0	0	243.001426799921	243.051405400038	0.0499786001164466
165155	50	518	0	0	eggplant	550	209	1	stimuli\eggplant\eggplant_10s.jpg	9	-1	1	0	eggplant_10s.jpg	0	0	0	243.10142969992	243.151407700032	0.0499780001118779
165255	50	519	0	0	backscratcher	50	210	1	stimuli\backscratcher\backscratcher_12s.jpg	11	-1	1	0	backscratcher_12s.jpg	0	0	0	243.20142930001	243.251410099911	0.0499807999003679
165355	50	520	0	0	quesadilla	1261	211	1	stimuli\quesadilla\quesadilla_11s.jpg	10	-1	1	0	quesadilla_11s.jpg	0	0	0	243.301433899906	243.351412900025	0.0499790001194924
165455	50	521	0	0	seal	1397	212	1	stimuli\seal\seal_05s.jpg	4	-1	1	0	seal_05s.jpg	0	0	0	243.401435799897	243.451414099894	0.0499782999977469
165555	50	522	0	0	scanner	1375	213	1	stimuli\scanner\scanner_01b.jpg	0	-1	1	0	scanner_01b.jpg	0	0	0	243.501441400032	243.551416900009	0.0499754999764264
165655	50	523	0	0	man	963	214	1	stimuli\man\man_04s.jpg	3	-1	1	1	man_04s.jpg	0	0	0	243.601441799896	243.651419499889	0.0499776999931782
165755	50	524	0	0	counter	424	215	1	stimuli\counter\counter_10s.jpg	9	-1	1	0	counter_10s.jpg	0	0	0	243.701441399986	243.751423799898	0.049982399912551
165855	50	525	0	0	souffle	1498	216	1	stimuli\souffle\souffle_07s.jpg	6	-1	1	0	souffle_07s.jpg	0	0	0	243.801448799903	243.851425000001	0.0499762000981718
165955	50	526	0	0	knitting_needle	881	217	1	stimuli\knitting_needle\knitting_needle_06s.jpg	5	-1	1	0	knitting_needle_06s.jpg	0	0	0	243.901454699924	243.951425699983	0.0499710000585765
166055	50	527	0	0	cotton_candy	421	218	1	stimuli\cotton_candy\cotton_candy_11s.jpg	10	-1	1	0	cotton_candy_11s.jpg	1	0.450161900138482	1	244.001450799871	244.051429599989	0.0499788001179695
166155	50	528	0	0	knob	882	219	1	stimuli\knob\knob_07s.jpg	6	-1	1	0	knob_07s.jpg	0	0	0	244.101454599993	244.151431799866	0.0499771998729557
166255	50	529	0	0	jalapeno	838	220	1	stimuli\jalapeno\jalapeno_06s.jpg	5	-1	1	0	jalapeno_06s.jpg	0	0	0	244.20145679987	244.251434599981	0.049977800110355
166355	50	530	0	0	gutter	729	221	1	stimuli\gutter\gutter_09s.jpg	8	-1	1	0	gutter_09s.jpg	0	0	0	244.301457900088	244.351437699981	0.0499797998927534
166455	50	531	0	0	checkbook	310	222	1	stimuli\checkbook\checkbook_01b.jpg	0	-1	1	0	checkbook_01b.jpg	0	0	0	244.401459000073	244.451437599957	0.049978599883616
166555	50	532	0	0	seahorse	1396	223	1	stimuli\seahorse\seahorse_08s.jpg	7	-1	1	0	seahorse_08s.jpg	0	0	0	244.501494899858	244.551442000084	0.049947100225836
166655	50	533	0	0	forklift	635	224	1	stimuli\forklift\forklift_07s.jpg	6	-1	1	0	forklift_07s.jpg	0	0	0	244.601465699961	244.651442999952	0.0499772999901325
166755	50	534	0	0	awning	44	225	1	stimuli\awning\awning_07s.jpg	6	-1	1	0	awning_07s.jpg	0	0	0	244.701471099863	244.751446200069	0.0499751002062112
166855	50	535	0	0	spam	1504	226	1	stimuli\spam\spam_05s.jpg	4	-1	1	0	spam_05s.jpg	0	0	0	244.801471299957	244.85144759994	0.049976299982518
166955	50	536	0	0	sundae	1582	227	1	stimuli\sundae\sundae_02s.jpg	1	-1	1	0	sundae_02s.jpg	0	0	0	244.901474300073	244.951450200053	0.0499758999794722
167055	50	537	0	0	caviar	289	228	1	stimuli\caviar\caviar_07s.jpg	6	-1	1	0	caviar_07s.jpg	0	0	0	245.001480999868	245.051454399945	0.0499734000768512
167155	50	538	0	0	flute	620	229	1	stimuli\flute\flute_10s.jpg	9	-1	1	0	flute_10s.jpg	0	0	0	245.10147990007	245.151453899918	0.0499739998485893
167255	50	539	0	0	jigsaw_puzzle	851	230	1	stimuli\jigsaw_puzzle\jigsaw_puzzle_09s.jpg	8	-1	1	0	jigsaw_puzzle_09s.jpg	0	0	0	245.201479099924	245.251458999934	0.0499799000099301
167355	50	540	0	0	retainer	1303	231	1	stimuli\retainer\retainer_01b.jpg	0	-1	1	0	retainer_01b.jpg	0	0	0	245.301483700052	245.351462400053	0.0499787000007927
167455	50	541	0	0	icicle	824	232	1	stimuli\icicle\icicle_11s.jpg	10	-1	1	0	icicle_11s.jpg	0	0	0	245.401487099938	245.451463799924	0.0499766999855638
167555	50	542	0	0	bathmat	89	233	1	stimuli\bathmat\bathmat_09s.jpg	8	-1	1	0	bathmat_09s.jpg	0	0	0	245.501489199931	245.551465800032	0.0499766001012176
167655	50	543	0	0	candy	255	234	1	stimuli\candy\candy_10s.jpg	9	-1	1	0	candy_10s.jpg	0	0	0	245.601492000045	245.651468100026	0.0499760999809951
167755	50	544	0	0	toothpaste	1680	235	1	stimuli\toothpaste\toothpaste_11s.jpg	10	-1	1	0	toothpaste_11s.jpg	0	0	0	245.701488899998	245.751471299911	0.049982399912551
167855	50	545	0	0	baton4	95	236	1	stimuli\baton4\baton4_08s.jpg	7	-1	1	0	baton4_08s.jpg	0	0	0	245.801494699903	245.851471100003	0.0499764000996947
167955	50	546	0	0	punching_bag	1256	237	1	stimuli\punching_bag\punching_bag_03s.jpg	2	-1	1	0	punching_bag_03s.jpg	0	0	0	245.901497599902	245.951474800007	0.0499772001057863
168055	50	547	0	0	pliers	1201	238	1	stimuli\pliers\pliers_09s.jpg	8	-1	1	0	pliers_09s.jpg	0	0	0	246.001497599995	246.051478100009	0.0499805000144988
168155	50	548	0	0	guacamole	719	239	1	stimuli\guacamole\guacamole_05s.jpg	4	-1	1	0	guacamole_05s.jpg	0	0	0	246.101502799895	246.151495599886	0.0499927999917418
168255	50	549	0	0	nutcracker	1067	240	1	stimuli\nutcracker\nutcracker_06s.jpg	5	-1	1	0	nutcracker_06s.jpg	0	0	0	246.201505600009	246.251482199878	0.049976599868387
168355	50	550	0	0	trigger	1713	241	1	stimuli\trigger\trigger_01s.jpg	0	-1	1	0	trigger_01s.jpg	0	0	0	246.301505899988	246.351483699866	0.0499777998775244
168455	50	551	0	0	glue	681	242	1	stimuli\glue\glue_06s.jpg	5	-1	1	0	glue_06s.jpg	0	0	0	246.401507499861	246.451487599872	0.049980100011453
168555	50	552	0	0	fungus	648	243	1	stimuli\fungus\fungus_07s.jpg	6	-1	1	0	fungus_07s.jpg	0	0	0	246.501510799862	246.551492800005	0.0499820001423359
168655	50	553	0	0	lanyard	896	244	1	stimuli\lanyard\lanyard_09s.jpg	8	-1	1	0	lanyard_09s.jpg	0	0	0	246.601513699861	246.651494199876	0.0499805000144988
168755	50	554	0	0	cellphone	293	245	1	stimuli\cellphone\cellphone_08s.jpg	7	-1	1	0	cellphone_08s.jpg	0	0	0	246.701514699962	246.751495899865	0.0499811999034137
168855	50	555	0	0	dip	487	246	1	stimuli\dip\dip_07s.jpg	6	-1	1	0	dip_07s.jpg	0	0	0	246.801519799978	246.851496400079	0.0499766001012176
168955	50	556	0	0	headband	762	247	1	stimuli\headband\headband_12s.jpg	11	-1	1	0	headband_12s.jpg	0	0	0	246.901521499967	246.951499700081	0.0499782001134008
169055	50	557	0	0	marijuana	974	248	1	stimuli\marijuana\marijuana_08s.jpg	7	-1	1	0	marijuana_08s.jpg	0	0	0	247.001525999978	247.051505999872	0.0499799998942763
169155	50	558	0	0	mosquito_net	1021	249	1	stimuli\mosquito_net\mosquito_net_12s.jpg	11	-1	1	0	mosquito_net_12s.jpg	0	0	0	247.101527400082	247.151503799949	0.0499763998668641
169255	50	559	0	0	thread	1651	250	1	stimuli\thread\thread_02s.jpg	1	-1	1	0	thread_02s.jpg	0	0	0	247.20152839995	247.251507800072	0.0499794001225382
169355	50	560	0	0	inhaler	828	251	1	stimuli\inhaler\inhaler_06s.jpg	5	-1	1	0	inhaler_06s.jpg	0	0	0	247.301532600075	247.351509199943	0.049976599868387
169455	50	561	0	0	barnacle	75	252	1	stimuli\barnacle\barnacle_07s.jpg	6	-1	1	0	barnacle_07s.jpg	0	0	0	247.401534700068	247.451538699912	0.0500039998441935
169555	50	562	0	0	braid	190	253	1	stimuli\braid\braid_07s.jpg	6	-1	1	0	braid_07s.jpg	0	0	0	247.501535299933	247.551513999933	0.0499787000007927
169655	50	563	0	0	pacifier	1093	254	1	stimuli\pacifier\pacifier_05s.jpg	4	-1	1	0	pacifier_05s.jpg	0	0	0	247.601537799928	247.651515699923	0.0499778999947011
169755	50	564	0	0	peacock	1130	255	1	stimuli\peacock\peacock_05s.jpg	4	-1	1	0	peacock_05s.jpg	0	0	0	247.701538299909	247.751521799946	0.0499835000373423
169855	50	565	0	0	cape	266	256	1	stimuli\cape\cape_01b.jpg	0	-1	1	0	cape_01b.jpg	0	0	0	247.801546900067	247.851522000041	0.0499750999733806
169955	50	566	0	0	pepper_mill	1151	257	1	stimuli\pepper_mill\pepper_mill_07s.jpg	6	-1	1	0	pepper_mill_07s.jpg	0	0	0	247.901571499882	247.95152490004	0.049953400157392
170055	50	567	0	0	origami	1083	258	1	stimuli\origami\origami_08s.jpg	7	-1	1	0	origami_08s.jpg	0	0	0	248.00155330007	248.051525299903	0.0499719998333603
170155	50	568	0	0	battery	97	259	1	stimuli\battery\battery_09n.jpg	8	-1	1	0	battery_09n.jpg	0	0	0	248.101550400024	248.151529500028	0.0499791000038385
170255	50	569	0	0	cloud	364	260	1	stimuli\cloud\cloud_06s.jpg	5	-1	1	0	cloud_06s.jpg	0	0	0	248.201552199898	248.251531400019	0.0499792001210153
170355	50	570	0	0	corn	412	261	1	stimuli\corn\corn_01s.jpg	0	-1	1	0	corn_01s.jpg	0	0	0	248.301584099885	248.351531999884	0.049947899999097
170455	50	571	0	0	radar	1271	262	1	stimuli\radar\radar_04s.jpg	3	-1	1	0	radar_04s.jpg	0	0	0	248.401556199882	248.451535200002	0.0499790001194924
170555	50	572	0	0	stingray	1556	263	1	stimuli\stingray\stingray_08s.jpg	7	-1	1	0	stingray_08s.jpg	0	0	0	248.501559699886	248.551539199892	0.0499795000068843
170655	50	573	0	0	garbage	655	264	1	stimuli\garbage\garbage_08s.jpg	7	-1	1	0	garbage_08s.jpg	0	0	0	248.60156199988	248.651541099884	0.0499791000038385
170755	50	574	0	0	catfish	287	265	1	stimuli\catfish\catfish_10s.jpg	9	-1	1	0	catfish_10s.jpg	0	0	0	248.701566899894	248.751543199876	0.049976299982518
170855	50	575	0	0	coffee_bean	378	266	1	stimuli\coffee_bean\coffee_bean_11s.jpg	10	-1	1	0	coffee_bean_11s.jpg	0	0	0	248.801566899987	248.851544899866	0.0499779998790473
170955	50	576	0	0	lamp	891	267	1	stimuli\lamp\lamp_05s.jpg	4	-1	1	0	lamp_05s.jpg	0	0	0	248.901568199974	248.951548699988	0.0499805000144988
171055	50	577	0	0	badge	52	268	1	stimuli\badge\badge_08s.jpg	7	-1	1	0	badge_08s.jpg	0	0	0	249.00157419988	249.051551899873	0.0499776999931782
171155	50	578	0	0	saltshaker	1350	269	1	stimuli\saltshaker\saltshaker_09s.jpg	8	-1	1	0	saltshaker_09s.jpg	0	0	0	249.101573199965	249.151557999896	0.0499847999308258
171255	50	579	0	0	octopus	1070	270	1	stimuli\octopus\octopus_05s.jpg	4	-1	1	0	octopus_05s.jpg	0	0	0	249.201576200081	249.251558999997	0.0499827999155968
171355	50	580	0	0	candy_bar	256	271	1	stimuli\candy_bar\candy_bar_07s.jpg	6	-1	1	0	candy_bar_07s.jpg	0	0	0	249.301578500075	249.351556800073	0.0499782999977469
171455	50	581	0	0	tuba	1723	272	1	stimuli\tuba\tuba_09s.jpg	8	-1	1	0	tuba_09s.jpg	0	0	0	249.401581299957	249.451560700079	0.0499794001225382
171555	50	582	0	0	train	1698	273	1	stimuli\train\train_01b.jpg	0	-1	1	0	train_01b.jpg	0	0	0	249.501582700061	249.551564499969	0.0499817999079823
171655	50	583	0	0	box	181	274	1	stimuli\box\box_11s.jpg	10	-1	1	0	box_11s.jpg	0	0	0	249.601588499965	249.651565300068	0.0499768001027405
171755	50	584	0	0	whistle	1812	275	1	stimuli\whistle\whistle_10s.jpg	9	-1	1	0	whistle_10s.jpg	0	0	0	249.701588500058	249.751566499937	0.0499779998790473
171855	50	585	0	0	gold	687	276	1	stimuli\gold\gold_04s.jpg	3	-1	1	0	gold_04s.jpg	0	0	0	249.80159180006	249.851569500053	0.0499776999931782
171955	50	586	0	0	boxer_shorts	182	277	1	stimuli\boxer_shorts\boxer_shorts_09s.jpg	8	-1	1	0	boxer_shorts_09s.jpg	0	0	0	249.901595399948	249.951572200051	0.0499768001027405
172055	50	587	0	0	rat	1285	278	1	stimuli\rat\rat_06s.jpg	5	-1	1	0	rat_06s.jpg	0	0	0	250.001595600042	250.051575599937	0.0499799998942763
172155	50	588	0	0	oar	1068	279	1	stimuli\oar\oar_02s.jpg	1	-1	1	0	oar_02s.jpg	0	0	0	250.101598199923	250.151579499943	0.0499813000205904
172255	50	589	0	0	lego	913	280	1	stimuli\lego\lego_05s.jpg	4	-1	1	0	lego_05s.jpg	0	0	0	250.201600699918	250.251581199933	0.0499805000144988
172355	50	590	0	0	pocket	1205	281	1	stimuli\pocket\pocket_12s.jpg	11	-1	1	0	pocket_12s.jpg	0	0	0	250.301605100045	250.351582099916	0.0499769998714328
172455	50	591	0	0	exerciser	561	282	1	stimuli\exerciser\exerciser_06s.jpg	5	-1	1	0	exerciser_06s.jpg	0	0	0	250.401606899919	250.451584100025	0.0499772001057863
172555	50	592	0	0	robe	1317	283	1	stimuli\robe\robe_04s.jpg	3	-1	1	0	robe_04s.jpg	0	0	0	250.501608399907	250.551590899937	0.0499825000297278
172655	50	593	0	0	streetlight	1571	284	1	stimuli\streetlight\streetlight_02s.jpg	1	-1	1	0	streetlight_02s.jpg	0	0	0	250.601611099904	250.651589900022	0.0499788001179695
172755	50	594	0	0	ramp	1283	285	1	stimuli\ramp\ramp_08s.jpg	7	-1	1	0	ramp_08s.jpg	0	0	0	250.701610599877	250.75159260002	0.0499820001423359
172855	50	595	0	0	matchbox	984	286	1	stimuli\matchbox\matchbox_12s.jpg	11	-1	1	0	matchbox_12s.jpg	0	0	0	250.801617299905	250.851595900021	0.0499786001164466
172955	50	596	0	0	bacon	51	287	1	stimuli\bacon\bacon_12s.jpg	11	-1	1	0	bacon_12s.jpg	0	0	0	250.901622700039	250.951598000014	0.0499752999749035
173055	50	597	0	0	aircraft_carrier	9	288	1	stimuli\aircraft_carrier\aircraft_carrier_07s.jpg	6	-1	1	0	aircraft_carrier_07s.jpg	0	0	0	251.00162149989	251.051601700019	0.0499802001286298
173155	50	598	0	0	photo_booth	1163	289	1	stimuli\photo_booth\photo_booth_09s.jpg	8	-1	1	0	photo_booth_09s.jpg	0	0	0	251.101623399882	251.151602600003	0.0499792001210153
173255	50	599	0	0	stained_glass	1531	290	1	stimuli\stained_glass\stained_glass_09s.jpg	8	-1	1	0	stained_glass_09s.jpg	0	0	0	251.201624599984	251.251604699995	0.049980100011453
173355	50	600	0	0	spout	1520	291	1	stimuli\spout\spout_05s.jpg	4	-1	1	0	spout_05s.jpg	0	0	0	251.301627599867	251.351608199999	0.0499806001316756
173455	50	601	0	0	wedge	1801	292	1	stimuli\wedge\wedge_07s.jpg	6	-1	1	0	wedge_07s.jpg	0	0	0	251.401630699867	251.451609099982	0.0499784001149237
173555	50	602	0	0	sombrero	1495	293	1	stimuli\sombrero\sombrero_09s.jpg	8	-1	1	0	sombrero_09s.jpg	0	0	0	251.501633099979	251.551610900089	0.049977800110355
173655	50	603	0	0	blouse	144	294	1	stimuli\blouse\blouse_02s.jpg	1	-1	1	1	blouse_02s.jpg	0	0	0	251.601633900078	251.651637099916	0.0500031998381019
173755	50	604	0	0	pincushion	1179	295	1	stimuli\pincushion\pincushion_04s.jpg	3	-1	1	0	pincushion_04s.jpg	0	0	0	251.701638200087	251.751619099872	0.049980899784714
173855	50	605	0	0	kilt	872	296	1	stimuli\kilt\kilt_05s.jpg	4	-1	1	0	kilt_05s.jpg	0	0	0	251.801644199993	251.851619099965	0.0499748999718577
173955	50	606	0	0	globe	679	297	1	stimuli\globe\globe_02s.jpg	1	-1	1	0	globe_02s.jpg	1	0.341966199921444	1	251.901642499957	251.95162019995	0.0499776999931782
174055	50	607	0	0	phone_booth	1162	298	1	stimuli\phone_booth\phone_booth_09s.jpg	8	-1	1	0	phone_booth_09s.jpg	0	0	0	252.001646799967	252.051621800056	0.0499750000890344
174155	50	608	0	0	hamburger	740	299	1	stimuli\hamburger\hamburger_01s.jpg	0	-1	1	0	hamburger_01s.jpg	0	0	0	252.101646499941	252.151626900071	0.0499804001301527
174255	50	609	0	0	fingerprint	589	300	1	stimuli\fingerprint\fingerprint_04s.jpg	3	-1	1	0	fingerprint_04s.jpg	0	0	0	252.201648599934	252.251632699976	0.049984100041911
174355	50	610	0	0	bazooka	98	301	1	stimuli\bazooka\bazooka_01b.jpg	0	-1	1	0	bazooka_01b.jpg	0	0	0	252.301651499933	252.351630300051	0.0499788001179695
174455	50	611	0	0	pitchfork	1191	302	1	stimuli\pitchfork\pitchfork_04s.jpg	3	-1	1	0	pitchfork_04s.jpg	0	0	0	252.401655599941	252.451634899946	0.0499793000053614
174555	50	612	0	0	windshield	1820	303	1	stimuli\windshield\windshield_12s.jpg	11	-1	1	0	windshield_12s.jpg	0	0	0	252.501658099936	252.551633999916	0.0499758999794722
174655	50	613	0	0	flamingo	608	304	1	stimuli\flamingo\flamingo_02s.jpg	1	-1	1	0	flamingo_02s.jpg	0	0	0	252.601658900036	252.651637899922	0.0499789998866618
174755	50	614	0	0	slime	1465	305	1	stimuli\slime\slime_12s.jpg	11	-1	1	0	slime_12s.jpg	0	0	0	252.701666499954	252.751642300049	0.049975800095126
174855	50	615	0	0	rattle	1287	306	1	stimuli\rattle\rattle_07s.jpg	6	-1	1	0	rattle_07s.jpg	0	0	0	252.801663599908	252.851643099915	0.0499795000068843
174955	50	616	0	0	horn	797	307	1	stimuli\horn\horn_11s.jpg	10	-1	1	0	horn_11s.jpg	0	0	0	252.90166689991	252.951645700028	0.0499788001179695
175055	50	617	0	0	jelly_bean	844	308	1	stimuli\jelly_bean\jelly_bean_03s.jpg	2	-1	1	0	jelly_bean_03s.jpg	0	0	0	253.001669900026	253.051647699904	0.0499777998775244
184789	50	618	0	0	pomegranate	1219	0	2	stimuli\pomegranate\pomegranate_03s.jpg	2	-1	2	0	pomegranate_03s.jpg	0	0	0	262.735270600067	262.785251500085	0.0499809000175446
184889	50	619	0	0	cobra	371	1	2	stimuli\cobra\cobra_07s.jpg	6	-1	2	0	cobra_07s.jpg	0	0	0	262.835268999916	262.885247200029	0.0499782001134008
184989	50	620	0	0	locker	941	2	2	stimuli\locker\locker_03s.jpg	2	-1	2	0	locker_03s.jpg	0	0	0	262.935269600013	262.98525519995	0.0499855999369174
185089	50	621	0	0	mustache	1043	3	2	stimuli\mustache\mustache_08s.jpg	7	-1	2	0	mustache_08s.jpg	0	0	0	263.035269999877	263.085253899917	0.0499839000403881
185189	50	622	0	0	wrench	1841	4	2	stimuli\wrench\wrench_02s.jpg	1	-1	2	0	wrench_02s.jpg	0	0	0	263.135273899883	263.185260399943	0.0499865000601858
185289	50	623	0	0	hobbyhorse	782	5	2	stimuli\hobbyhorse\hobbyhorse_07s.jpg	6	-1	2	0	hobbyhorse_07s.jpg	0	0	0	263.235279900022	263.285260200035	0.0499803000129759
185389	50	624	0	0	papaya	1111	6	2	stimuli\papaya\papaya_11n.jpg	10	-1	2	0	papaya_11n.jpg	0	0	0	263.33525740006	263.385261599906	0.0500041998457164
185489	50	625	0	0	ribbon	1308	7	2	stimuli\ribbon\ribbon_08s.jpg	7	-1	2	0	ribbon_08s.jpg	0	0	0	263.435280299978	263.485261599999	0.0499813000205904
185589	50	626	0	0	trumpet	1721	8	2	stimuli\trumpet\trumpet_02s.jpg	1	-1	2	0	trumpet_02s.jpg	0	0	0	263.535289299907	263.585253800033	0.0499645001254976
185689	50	627	0	0	radiator	1272	9	2	stimuli\radiator\radiator_07s.jpg	6	-1	2	0	radiator_07s.jpg	0	0	0	263.635284600081	263.685264799977	0.0499801998957992
185789	50	628	0	0	boy	184	10	2	stimuli\boy\boy_08s.jpg	7	-1	2	0	boy_08s.jpg	0	0	0	263.735288999975	263.785271900008	0.0499829000327736
185889	50	629	0	0	hourglass	807	11	2	stimuli\hourglass\hourglass_08s.jpg	7	-1	2	0	hourglass_08s.jpg	0	0	0	263.83529269998	263.885272299871	0.0499795998912305
185989	50	630	0	0	chin	330	12	2	stimuli\chin\chin_05s.jpg	4	-1	2	0	chin_05s.jpg	0	0	0	263.935283500003	263.985273899976	0.049990399973467
186089	50	631	0	0	bookshelf	167	13	2	stimuli\bookshelf\bookshelf_08s.jpg	7	-1	2	0	bookshelf_08s.jpg	0	0	0	264.035583500052	264.085266599897	0.0496830998454243
186189	50	632	0	0	log	943	14	2	stimuli\log\log_09s.jpg	8	-1	2	0	log_09s.jpg	0	0	0	264.135273199994	264.185252799885	0.0499795998912305
186289	50	633	0	0	yolk	1850	15	2	stimuli\yolk\yolk_08s.jpg	7	-1	2	0	yolk_08s.jpg	0	0	0	264.23527309997	264.285255399998	0.0499823000282049
186389	50	634	0	0	solar_panel	1493	16	2	stimuli\solar_panel\solar_panel_09s.jpg	8	-1	2	0	solar_panel_09s.jpg	0	0	0	264.335278099868	264.385257499991	0.0499794001225382
186489	50	635	0	0	beanbag	103	17	2	stimuli\beanbag\beanbag_12s.jpg	11	-1	2	1	beanbag_12s.jpg	0	0	0	264.435277400073	264.48525989987	0.0499824997968972
186589	50	636	0	0	crouton	445	18	2	stimuli\crouton\crouton_08n.jpg	7	-1	2	0	crouton_08n.jpg	0	0	0	264.535287800012	264.585261099972	0.0499732999596745
186689	50	637	0	0	flyswatter	623	19	2	stimuli\flyswatter\flyswatter_09s.jpg	8	-1	2	0	flyswatter_09s.jpg	0	0	0	264.63528669998	264.685282999882	0.0499962999019772
186789	50	638	0	0	boulder	172	20	2	stimuli\boulder\boulder_03s.jpg	2	-1	2	0	boulder_03s.jpg	0	0	0	264.735287999967	264.785268899985	0.0499809000175446
186889	50	639	0	0	blinder	141	21	2	stimuli\blinder\blinder_07s.jpg	6	-1	2	0	blinder_07s.jpg	0	0	0	264.835291699972	264.885270399973	0.0499787000007927
186989	50	640	0	0	tee	1636	22	2	stimuli\tee\tee_03s.jpg	2	-1	2	0	tee_03s.jpg	0	0	0	264.935289999936	264.985272800084	0.0499828001484275
187089	50	641	0	0	yak	1845	23	2	stimuli\yak\yak_02s.jpg	1	-1	2	0	yak_02s.jpg	1	0.592300199903548	1	265.035310599953	265.085275999969	0.0499654000159353
187189	50	642	0	0	whale	1804	24	2	stimuli\whale\whale_07s.jpg	6	-1	2	0	whale_07s.jpg	0	0	0	265.135298300069	265.185306800064	0.050008499994874
187289	50	643	0	0	bark	74	25	2	stimuli\bark\bark_01s.jpg	0	-1	2	0	bark_01s.jpg	0	0	0	265.235297400039	265.28528010007	0.0499827000312507
187389	50	644	0	0	rudder	1339	26	2	stimuli\rudder\rudder_09s.jpg	8	-1	2	0	rudder_09s.jpg	0	0	0	265.335300799925	265.385312099941	0.0500113000161946
187489	50	645	0	0	trampoline	1701	27	2	stimuli\trampoline\trampoline_10s.jpg	9	-1	2	0	trampoline_10s.jpg	0	0	0	265.435330699896	265.485311199911	0.0499805000144988
187589	50	646	0	0	toilet_paper	1671	28	2	stimuli\toilet_paper\toilet_paper_05s.jpg	4	-1	2	0	toilet_paper_05s.jpg	0	0	0	265.5353188999	265.585315299919	0.049996400019154
187689	50	647	0	0	banana_split	65	29	2	stimuli\banana_split\banana_split_03s.jpg	2	-1	2	0	banana_split_03s.jpg	0	0	0	265.635338400025	265.685341499979	0.0500030999537557
187789	50	648	0	0	blender	138	30	2	stimuli\blender\blender_12s.jpg	11	-1	2	0	blender_12s.jpg	0	0	0	265.735335299978	265.785307700047	0.0499724000692368
187889	50	649	0	0	calculator	240	31	2	stimuli\calculator\calculator_07s.jpg	6	-1	2	0	calculator_07s.jpg	0	0	0	265.835341899889	265.885322999908	0.0499811000190675
187989	50	650	0	0	bib	122	32	2	stimuli\bib\bib_03s.jpg	2	-1	2	0	bib_03s.jpg	0	0	0	265.935347399907	265.985322899884	0.0499754999764264
