onset	duration	eventnumber	blocksequencenumber	isteststim	object	objectnumber	presentationnumber	sequencenumber	stim	stimnumber	teststimnumber	withinsequencenumber	istarget	stimname	response	rt	correct	time_stimon	time_stimoff	stimdur
93991	50	0	0	0	oatmeal	1069	0	0	stimuli\oatmeal\oatmeal_05s.jpg	4	-1	0	0	oatmeal_05s.jpg	0	0	0	87.2961471573435	87.3461204724335	0.0499733150900283
94091	50	1	0	0	jetski	848	1	0	stimuli\jetski\jetski_04s.jpg	3	-1	0	0	jetski_04s.jpg	0	0	0	87.3961237760468	87.4460766111697	0.0499528351228946
94191	50	2	0	0	throne	1652	2	0	stimuli\throne\throne_11s.jpg	10	-1	0	0	throne_11s.jpg	0	0	0	87.4961172175808	87.5461010164636	0.0499837988827494
94291	50	3	0	0	fly	621	3	0	stimuli\fly\fly_05s.jpg	4	-1	0	0	fly_05s.jpg	0	0	0	87.5961572266606	87.646123471286	0.0499662446254661
94391	50	4	0	0	handle	748	4	0	stimuli\handle\handle_11s.jpg	10	-1	0	0	handle_11s.jpg	0	0	0	87.6961455482033	87.746112036637	0.0499664884337108
94491	50	5	0	0	fire_pit	593	5	0	stimuli\fire_pit\fire_pit_12s.jpg	11	-1	0	0	fire_pit_12s.jpg	0	0	0	87.7961302126096	87.8467705894982	0.050640376888623
94591	50	6	0	0	clipper2	357	6	0	stimuli\clipper2\clipper2_09s.jpg	8	-1	0	0	clipper2_09s.jpg	0	0	0	87.8961368198361	87.9461118415893	0.0499750217531982
94691	50	7	0	0	straw1	1568	7	0	stimuli\straw1\straw1_08s.jpg	7	-1	0	0	straw1_08s.jpg	0	0	0	87.996139526118	88.0461138164446	0.0499742903266451
94791	50	8	0	0	silicone	1444	8	0	stimuli\silicone\silicone_02s.jpg	1	-1	0	0	silicone_02s.jpg	0	0	0	88.0961371124067	88.1461479741047	0.050010861697956
94891	50	9	0	0	sidecar	1442	9	0	stimuli\sidecar\sidecar_07s.jpg	6	-1	0	0	sidecar_07s.jpg	0	0	0	88.1961539596196	88.2461577508511	0.0500037912315747
94991	50	10	0	0	panther	1106	10	0	stimuli\panther\panther_05s.jpg	4	-1	0	0	panther_05s.jpg	0	0	0	88.2961720258754	88.3461538742849	0.0499818484095158
95091	50	11	0	0	sandbox	1354	11	0	stimuli\sandbox\sandbox_06s.jpg	5	-1	0	0	sandbox_06s.jpg	0	0	0	88.3961766826305	88.4461551177119	0.049978435081357
95191	50	12	0	0	face	569	12	0	stimuli\face\face_06s.jpg	5	-1	0	0	face_06s.jpg	0	0	0	88.496180364149	88.5461575801837	0.0499772160346765
95291	50	13	0	0	burrito	225	13	0	stimuli\burrito\burrito_05s.jpg	4	-1	0	0	burrito_05s.jpg	0	0	0	88.596162834272	88.6461646750304	0.0500018407583411
95391	50	14	0	0	bagel	55	14	0	stimuli\bagel\bagel_08s.jpg	7	-1	0	0	bagel_08s.jpg	0	0	0	88.6961667595988	88.7461473889616	0.0499806293628353
95491	50	15	0	0	doorknob	509	15	0	stimuli\doorknob\doorknob_01b.jpg	0	-1	0	0	doorknob_01b.jpg	0	0	0	88.7961858010913	88.8461500952435	0.0499642941522325
95591	50	16	0	0	holster	786	16	0	stimuli\holster\holster_10s.jpg	9	-1	0	0	holster_10s.jpg	0	0	0	88.8961904578464	88.9461567024719	0.0499662446254661
95691	50	17	0	0	toga	1669	17	0	stimuli\toga\toga_09s.jpg	8	-1	0	0	toga_09s.jpg	0	0	0	88.9961919450816	89.0461379535482	0.049946008466577
95791	50	18	0	0	squid	1528	18	0	stimuli\squid\squid_05s.jpg	4	-1	0	0	squid_05s.jpg	0	0	0	89.0961585676105	89.1461745492998	0.0500159816892847
95891	50	19	0	0	jumpsuit	859	19	0	stimuli\jumpsuit\jumpsuit_08s.jpg	7	-1	0	0	jumpsuit_08s.jpg	0	0	0	89.1961785843414	89.2461867641377	0.0500081797963503
95991	50	20	0	0	drawer	516	20	0	stimuli\drawer\drawer_05s.jpg	4	-1	0	0	drawer_05s.jpg	0	0	0	89.2961968944073	89.3461641142694	0.0499672198620829
96091	50	21	0	0	vial	1760	21	0	stimuli\vial\vial_11s.jpg	10	-1	0	0	vial_11s.jpg	0	0	0	89.3961996006892	89.4461831557637	0.0499835550745047
96191	50	22	0	0	mouse2	1027	22	0	stimuli\mouse2\mouse2_10s.jpg	9	-1	0	0	mouse2_10s.jpg	0	0	0	89.4961781698657	89.5461517287658	0.049973558900092
96291	50	23	0	0	tent	1643	23	0	stimuli\tent\tent_01b.jpg	0	-1	0	0	tent_01b.jpg	0	0	0	89.5961745371096	89.6461556540926	0.0499811169829627
96391	50	24	0	0	fur_coat	650	24	0	stimuli\fur_coat\fur_coat_11s.jpg	10	-1	0	0	fur_coat_11s.jpg	0	0	0	89.6961809005279	89.7461598232276	0.0499789226996654
96491	50	25	0	0	rifle	1311	25	0	stimuli\rifle\rifle_09s.jpg	8	-1	0	0	rifle_09s.jpg	0	0	0	89.7962021363037	89.8461832532867	0.0499811169829627
96591	50	26	0	0	turkey	1733	26	0	stimuli\turkey\turkey_02s.jpg	1	-1	0	0	turkey_02s.jpg	0	0	0	89.8962045987773	89.9461864471868	0.0499818484095158
96691	50	27	0	0	seed	1401	27	0	stimuli\seed\seed_01b.jpg	0	-1	0	0	seed_01b.jpg	0	0	0	89.9962063298208	90.0461881782303	0.0499818484095158
96791	50	28	0	0	snowmobile	1483	28	0	stimuli\snowmobile\snowmobile_06s.jpg	5	-1	0	0	snowmobile_06s.jpg	0	0	0	90.0962073294395	90.1461940540321	0.0499867245925998
96891	50	29	0	0	icepick	822	29	0	stimuli\icepick\icepick_10s.jpg	9	-1	0	0	icepick_10s.jpg	0	0	0	90.196213936666	90.2461860327112	0.0499720960451668
96991	50	30	0	0	cashew	281	30	0	stimuli\cashew\cashew_07s.jpg	6	-1	0	0	cashew_07s.jpg	0	0	0	90.2961888487062	90.3461685028342	0.0499796541280375
97091	50	31	0	0	pea	1128	31	0	stimuli\pea\pea_07s.jpg	6	-1	0	0	pea_07s.jpg	0	0	0	90.3962244692211	90.4462097309588	0.0499852617376746
97191	50	32	0	0	binoculars	127	32	0	stimuli\binoculars\binoculars_03s.jpg	2	-1	0	0	binoculars_03s.jpg	0	0	0	90.4962113279089	90.5461909820369	0.0499796541280375
97291	50	33	0	0	caterpillar	286	33	0	stimuli\caterpillar\caterpillar_05s.jpg	4	-1	0	0	caterpillar_05s.jpg	0	0	0	90.5962311008298	90.6462114863843	0.0499803855545906
97391	50	34	0	0	toad	1664	34	0	stimuli\toad\toad_08s.jpg	7	-1	0	0	toad_08s.jpg	0	0	0	90.6962167404708	90.7462180936127	0.0500013531418517
97491	50	35	0	0	tank2	1621	35	0	stimuli\tank2\tank2_05s.jpg	4	-1	0	0	tank2_05s.jpg	0	0	0	90.7962201781811	90.8462147046648	0.0499945264837152
97591	50	36	0	0	watering_can	1792	36	0	stimuli\watering_can\watering_can_07s.jpg	6	-1	0	0	watering_can_07s.jpg	0	0	0	90.8962067930588	90.9462037576359	0.0499969645770761
97691	50	37	0	0	cookie_sheet	402	37	0	stimuli\cookie_sheet\cookie_sheet_11s.jpg	10	-1	0	0	cookie_sheet_11s.jpg	0	0	0	90.9962136440954	91.0461854963305	0.0499718522351031
97791	50	38	0	0	chariot	309	38	0	stimuli\chariot\chariot_07s.jpg	6	-1	0	0	chariot_07s.jpg	0	0	0	91.0962087922944	91.1461923473671	0.0499835550726857
97891	50	39	0	0	wheelbarrow	1807	39	0	stimuli\wheelbarrow\wheelbarrow_12s.jpg	11	-1	0	0	wheelbarrow_12s.jpg	0	0	0	91.1962132052395	91.2461972479305	0.0499840426909941
97991	50	40	0	0	silverware	1445	40	0	stimuli\silverware\silverware_07s.jpg	6	-1	0	0	silverware_07s.jpg	0	0	0	91.2962127420014	91.346205561822	0.0499928198205453
98091	50	41	0	0	owl	1091	41	0	stimuli\owl\owl_03s.jpg	2	-1	0	0	owl_03s.jpg	0	0	0	91.3962666482021	91.4462345994907	0.049967951288636
98191	50	42	0	0	pendulum	1144	42	0	stimuli\pendulum\pendulum_05s.jpg	4	-1	0	0	pendulum_05s.jpg	0	0	0	91.4962578954546	91.5462329172078	0.0499750217531982
98291	50	43	0	0	tennis_ball	1642	43	0	stimuli\tennis_ball\tennis_ball_05s.jpg	4	-1	0	0	tennis_ball_05s.jpg	0	0	0	91.5962403655776	91.6462378177712	0.0499974521935656
98391	50	44	0	0	sequin	1404	44	0	stimuli\sequin\sequin_09s.jpg	8	-1	0	0	sequin_09s.jpg	0	0	0	91.6962611137351	91.7462202878942	0.0499591741590848
98491	50	45	0	0	cranberry	430	45	0	stimuli\cranberry\cranberry_04n.jpg	3	-1	0	0	cranberry_04n.jpg	0	0	0	91.7962291991189	91.8462108037183	0.0499816045994521
98591	50	46	0	0	glass	677	46	0	stimuli\glass\glass_08s.jpg	7	-1	0	0	glass_08s.jpg	0	0	0	91.8962355625372	91.9462098528638	0.0499742903266451
98691	50	47	0	0	panda	1105	47	0	stimuli\panda\panda_07s.jpg	6	-1	0	0	panda_07s.jpg	0	0	0	91.9962387564374	92.0462140219988	0.0499752655614429
98791	50	48	0	0	candelabra	252	48	0	stimuli\candelabra\candelabra_09s.jpg	8	-1	0	0	candelabra_09s.jpg	0	0	0	92.0962324417796	92.1462474482323	0.0500150064526679
98891	50	49	0	0	slime	1465	49	0	stimuli\slime\slime_12s.jpg	11	-1	0	0	slime_12s.jpg	0	0	0	92.1962697689596	92.2462511297508	0.0499813607912074
98991	50	50	0	0	ribbon	1308	50	0	stimuli\ribbon\ribbon_08s.jpg	7	-1	0	0	ribbon_08s.jpg	0	0	0	92.2962719876214	92.3462404265301	0.0499684389087633
99091	50	51	0	0	blinder	141	51	0	stimuli\blinder\blinder_08s.jpg	7	-1	0	0	blinder_08s.jpg	0	0	0	92.3962607967824	92.4462548356496	0.0499940388672258
99191	50	52	0	0	footrest	633	52	0	stimuli\footrest\footrest_09s.jpg	8	-1	0	0	footrest_09s.jpg	0	0	0	92.4962781316117	92.5462424257639	0.0499642941522325
99291	50	53	0	0	jam	839	53	0	stimuli\jam\jam_11s.jpg	10	-1	0	0	jam_11s.jpg	0	0	0	92.5962630398262	92.6462856043618	0.0500225645355385
99391	50	54	0	0	bookshelf	167	54	0	stimuli\bookshelf\bookshelf_02s.jpg	1	-1	0	0	bookshelf_02s.jpg	0	0	0	92.6962869575036	92.7462617354486	0.0499747779449535
99491	50	55	0	0	mulch	1038	55	0	stimuli\mulch\mulch_07s.jpg	6	-1	0	0	mulch_07s.jpg	0	0	0	92.796285762839	92.8462661483936	0.0499803855545906
99591	50	56	0	0	vent	1758	56	0	stimuli\vent\vent_09s.jpg	8	-1	0	0	vent_09s.jpg	0	0	0	92.8962738405717	92.9462715365753	0.0499976960036292
99691	50	57	0	0	map	970	57	0	stimuli\map\map_01s.jpg	0	-1	0	0	map_01s.jpg	0	0	0	92.9962892249278	93.0462562009798	0.0499669760520192
99791	50	58	0	0	wire	1828	58	0	stimuli\wire\wire_04s.jpg	3	-1	0	0	wire_04s.jpg	0	0	0	93.096297295011	93.1462723167642	0.0499750217531982
99891	50	59	0	0	possum	1228	59	0	stimuli\possum\possum_12s.jpg	11	-1	0	0	possum_12s.jpg	0	0	0	93.1963000012911	93.2462738039994	0.0499738027083367
99991	50	60	0	0	cd_player	290	60	0	stimuli\cd_player\cd_player_01b.jpg	0	-1	0	0	cd_player_01b.jpg	0	0	0	93.2963049018563	93.3462791921829	0.0499742903266451
100091	50	61	0	0	seal	1397	61	0	stimuli\seal\seal_06s.jpg	5	-1	0	0	seal_06s.jpg	0	0	0	93.3963034633816	93.4462677575339	0.0499642941522325
100191	50	62	0	0	tiramisu	1663	62	0	stimuli\tiramisu\tiramisu_11s.jpg	10	-1	0	0	tiramisu_11s.jpg	0	0	0	93.4962852020781	93.5462685133425	0.049983311264441
100291	50	63	0	0	jacket	836	63	0	stimuli\jacket\jacket_08s.jpg	7	-1	0	0	jacket_08s.jpg	0	0	0	93.5963076568987	93.6462851167435	0.0499774598447402
100391	50	64	0	0	toast	1665	64	0	stimuli\toast\toast_07s.jpg	6	-1	0	0	toast_07s.jpg	0	0	0	93.6963142641271	93.7462907487352	0.0499764846081234
100491	50	65	0	0	mug	1036	65	0	stimuli\mug\mug_06s.jpg	5	-1	0	0	mug_06s.jpg	0	0	0	93.7962942961585	93.8462812645594	0.0499869684008445
100591	50	66	0	0	goldfish	688	66	0	stimuli\goldfish\goldfish_11s.jpg	10	-1	0	0	goldfish_11s.jpg	0	0	0	93.896315044316	93.946288359406	0.0499733150900283
100691	50	67	0	0	arm	36	67	0	stimuli\arm\arm_12s.jpg	11	-1	0	0	arm_12s.jpg	0	0	0	93.9963101925132	94.0462917971145	0.0499816046012711
100791	50	68	0	0	ladder	886	68	0	stimuli\ladder\ladder_02s.jpg	1	-1	0	0	ladder_02s.jpg	0	0	0	94.0963119235585	94.1462932843497	0.0499813607912074
100891	50	69	0	0	headband	762	69	0	stimuli\headband\headband_11s.jpg	10	-1	0	0	headband_11s.jpg	0	0	0	94.1963197498317	94.2462947715867	0.0499750217550172
100991	50	70	0	0	pig	1170	70	0	stimuli\pig\pig_01b.jpg	0	-1	0	0	pig_01b.jpg	0	0	0	94.2963158732673	94.3462818740827	0.0499660008154024
101091	50	71	0	0	bear	105	71	0	stimuli\bear\bear_08s.jpg	7	-1	0	0	bear_08s.jpg	0	0	0	94.3963246747771	94.4463026222402	0.0499779474630486
101191	50	72	0	0	star_fruit	1540	72	0	stimuli\star_fruit\star_fruit_10s.jpg	9	-1	0	0	star_fruit_10s.jpg	0	0	0	94.4962964172973	94.5462750961888	0.0499786788914207
101291	50	73	0	0	spider	1513	73	0	stimuli\spider\spider_01b.jpg	0	-1	0	0	spider_01b.jpg	0	0	0	94.5962896150231	94.6462790215155	0.0499894064923865
101391	50	74	0	0	gumdrop	726	74	0	stimuli\gumdrop\gumdrop_10s.jpg	9	-1	0	0	gumdrop_10s.jpg	0	0	0	94.6962979289146	94.7462785582775	0.0499806293628353
101491	50	75	0	0	beanbag	103	75	0	stimuli\beanbag\beanbag_09s.jpg	8	-1	0	0	beanbag_09s.jpg	0	0	0	94.7962945399668	94.8462815083694	0.0499869684026635
101591	50	76	0	0	marshmallow	977	76	0	stimuli\marshmallow\marshmallow_01b.jpg	0	-1	0	0	marshmallow_01b.jpg	0	0	0	94.8963089490881	94.9462888470243	0.0499798979362822
101691	50	77	0	0	headrest	767	77	0	stimuli\headrest\headrest_11s.jpg	10	-1	0	0	headrest_11s.jpg	0	0	0	94.9963118991782	95.0462903342595	0.049978435081357
101791	50	78	0	0	pipe2	1187	78	0	stimuli\pipe2\pipe2_07s.jpg	6	-1	0	0	pipe2_07s.jpg	0	0	0	95.0963136302234	95.1463230290647	0.0500093988412118
101891	50	79	0	0	sunglasses	1585	79	0	stimuli\sunglasses\sunglasses_01b.jpg	0	-1	0	0	sunglasses_01b.jpg	0	0	0	95.196342180272	95.2463230534468	0.049980873174718
101991	50	80	0	0	airplane	10	80	0	stimuli\airplane\airplane_09n.jpg	8	-1	0	0	airplane_09n.jpg	0	0	0	95.2963385475159	95.3463221025904	0.0499835550745047
102091	50	81	0	0	inkwell	830	81	0	stimuli\inkwell\inkwell_09s.jpg	8	-1	0	0	inkwell_09s.jpg	0	0	0	95.3963427166527	95.4463245650622	0.0499818484095158
102191	50	82	0	0	dish	489	82	0	stimuli\dish\dish_11s.jpg	10	-1	0	0	dish_11s.jpg	0	0	0	95.4963432286513	95.5463221513528	0.0499789227014844
102291	50	83	0	0	calamari	239	83	0	stimuli\calamari\calamari_12s.jpg	11	-1	0	0	calamari_12s.jpg	0	0	0	95.5963452035066	95.6463248576329	0.0499796541262185
102391	50	84	0	0	pelican	1140	84	0	stimuli\pelican\pelican_08s.jpg	7	-1	0	0	pelican_08s.jpg	0	0	0	95.6963525421615	95.746329514388	0.0499769722264318
102491	50	85	0	0	cream_cheese	437	85	0	stimuli\cream_cheese\cream_cheese_02s.jpg	1	-1	0	0	cream_cheese_02s.jpg	0	0	0	95.7963491532137	95.8463312454332	0.0499820922195795
102591	50	86	0	0	wrapping_paper	1838	86	0	stimuli\wrapping_paper\wrapping_paper_05s.jpg	4	-1	0	0	wrapping_paper_05s.jpg	0	0	0	95.8963608804333	95.9463359021884	0.0499750217550172
102691	50	87	0	0	orange_rind	1079	87	0	stimuli\orange_rind\orange_rind_07s.jpg	6	-1	0	0	orange_rind_07s.jpg	0	0	0	95.9963633429052	96.0463339760954	0.0499706331902416
102791	50	88	0	0	hairnet	736	88	0	stimuli\hairnet\hairnet_05s.jpg	4	-1	0	0	hairnet_05s.jpg	0	0	0	96.0963582472941	96.1463405833238	0.0499823360296432
102891	50	89	0	0	belt_buckle	119	89	0	stimuli\belt_buckle\belt_buckle_06s.jpg	5	-1	0	0	belt_buckle_06s.jpg	0	0	0	96.1963638792859	96.2463393886574	0.0499755093715066
102991	50	90	0	0	egg_roll	547	90	0	stimuli\egg_roll\egg_roll_07n.jpg	6	-1	0	0	egg_roll_07n.jpg	0	0	0	96.296362197003	96.3463423387493	0.0499801417463459
103091	50	91	0	0	birdhouse	131	91	0	stimuli\birdhouse\birdhouse_01b.jpg	0	-1	0	0	birdhouse_01b.jpg	0	0	0	96.3963695356579	96.4463469955026	0.0499774598447402
103191	50	92	0	0	tablet	1610	92	0	stimuli\tablet\tablet_10s.jpg	9	-1	0	0	tablet_10s.jpg	0	0	0	96.4963680971832	96.5463531151127	0.0499850179294299
103291	50	93	0	0	eye	564	93	0	stimuli\eye\eye_02s.jpg	1	-1	0	0	eye_02s.jpg	0	0	0	96.5963725101301	96.6463353414256	0.0499628312954883
103391	50	94	0	0	computer	394	94	0	stimuli\computer\computer_10n.jpg	9	-1	0	0	computer_10n.jpg	0	0	0	96.6963535173982	96.7463304896246	0.0499769722264318
103491	50	95	0	0	squirt_gun	1530	95	0	stimuli\squirt_gun\squirt_gun_08s.jpg	7	-1	0	0	squirt_gun_08s.jpg	0	0	0	96.7963506160686	96.8463305140049	0.0499798979362822
103591	50	96	0	0	powder	1236	96	0	stimuli\powder\powder_12s.jpg	11	-1	0	0	powder_12s.jpg	0	0	0	96.8963879432486	96.9463393155147	0.0499513722661504
103691	50	97	0	0	trailer	1697	97	0	stimuli\trailer\trailer_06s.jpg	5	-1	0	0	trailer_06s.jpg	0	0	0	96.9963528591124	97.0463334884771	0.0499806293646543
103791	50	98	0	0	pedometer	1137	98	0	stimuli\pedometer\pedometer_09s.jpg	8	-1	0	0	pedometer_09s.jpg	0	0	0	97.0963580034859	97.1463398518954	0.0499818484095158
103891	50	99	0	0	whistle	1812	99	0	stimuli\whistle\whistle_09s.jpg	8	-1	0	0	whistle_09s.jpg	0	0	0	97.1963487631201	97.2463552362515	0.0500064731313614
103991	50	100	0	0	pear	1133	100	0	stimuli\pear\pear_10s.jpg	9	-1	0	0	pear_10s.jpg	0	0	0	97.2963870655349	97.3463669634712	0.0499798979362822
104091	50	101	0	0	cap	265	101	0	stimuli\cap\cap_01b.jpg	0	-1	0	0	cap_01b.jpg	0	0	0	97.3963919660982	97.4463721078446	0.0499801417463459
104191	50	102	0	0	doorstop	512	102	0	stimuli\doorstop\doorstop_01b.jpg	0	-1	0	0	doorstop_01b.jpg	0	0	0	97.4963922342886	97.5463740826981	0.0499818484095158
104291	50	103	0	0	salad	1348	103	0	stimuli\salad\salad_01b.jpg	0	-1	0	0	salad_01b.jpg	0	0	0	97.5963981100886	97.6463760575516	0.0499779474630486
104391	50	104	0	0	football	629	104	0	stimuli\football\football_09s.jpg	8	-1	0	0	football_09s.jpg	0	0	0	97.696398622089	97.7463780324069	0.0499794103179738
104491	50	105	0	0	green_beans	712	105	0	stimuli\green_beans\green_beans_11s.jpg	10	-1	0	0	green_beans_11s.jpg	0	0	0	97.7963984026592	97.8463895158166	0.0499911131573754
104592	50	106	0	0	gallows	653	106	0	stimuli\gallows\gallows_09s.jpg	8	-1	0	0	gallows_09s.jpg	0	0	0	97.896407204169	97.9463785687858	0.0499713646167947
104691	50	107	0	0	clam	349	107	0	stimuli\clam\clam_04s.jpg	3	-1	0	0	clam_04s.jpg	0	0	0	97.9963813847826	98.0463649398553	0.0499835550726857
104791	50	108	0	0	glove	680	108	0	stimuli\glove\glove_03s.jpg	2	-1	0	0	glove_03s.jpg	0	0	0	98.0963916491473	98.1463961718055	0.0500045226581278
104891	50	109	0	0	branch	192	109	0	stimuli\branch\branch_03s.jpg	2	-1	0	0	branch_03s.jpg	0	0	0	98.1964162982513	98.2463803485934	0.0499640503421688
104991	50	110	0	0	pin	1177	110	0	stimuli\pin\pin_02s.jpg	1	-1	0	0	pin_02s.jpg	0	0	0	98.2963992559926	98.3464020719875	0.0500028159949579
105091	50	111	0	0	ping-pong_table	1184	111	0	stimuli\ping-pong_table\ping-pong_table_02s.jpg	1	-1	0	0	ping-pong_table_02s.jpg	0	0	0	98.3964044003642	98.4463847859188	0.0499803855545906
105191	50	112	0	0	sword	1602	112	0	stimuli\sword\sword_04s.jpg	3	-1	0	0	sword_04s.jpg	0	0	0	98.4963954038067	98.5463996826584	0.0500042788517021
105291	50	113	0	0	envelope	558	113	0	stimuli\envelope\envelope_11s.jpg	10	-1	0	0	envelope_11s.jpg	0	0	0	98.5963978662803	98.6463777642166	0.0499798979362822
105392	50	114	0	0	goggles	686	114	0	stimuli\goggles\goggles_11s.jpg	10	-1	0	0	goggles_11s.jpg	0	0	0	98.6964305610854	98.7463902228628	0.0499596617773932
105492	50	115	0	0	ambulance	19	115	0	stimuli\ambulance\ambulance_06s.jpg	5	-1	0	0	ambulance_06s.jpg	0	0	0	98.7964271721376	98.8464114586386	0.0499842865010578
105592	50	116	0	0	walnut	1778	116	0	stimuli\walnut\walnut_02s.jpg	1	-1	0	0	walnut_02s.jpg	0	0	0	98.8964310974643	98.9464131896839	0.0499820922195795
105691	50	117	0	0	station_wagon	1542	117	0	stimuli\station_wagon\station_wagon_09s.jpg	8	-1	0	0	station_wagon_09s.jpg	0	0	0	98.9964030837946	99.0463866388691	0.0499835550745047
105792	50	118	0	0	urinal	1748	118	0	stimuli\urinal\urinal_05s.jpg	4	-1	0	0	urinal_05s.jpg	0	0	0	99.096414567206	99.1463891013409	0.0499745341348898
105892	50	119	0	0	artichoke	39	119	0	stimuli\artichoke\artichoke_01b.jpg	0	-1	0	0	artichoke_01b.jpg	0	0	0	99.1964070335034	99.2463915638127	0.0499845303093025
105992	50	120	0	0	magnet	956	120	0	stimuli\magnet\magnet_11s.jpg	10	-1	0	0	magnet_11s.jpg	0	0	0	99.2964136407318	99.3464374243122	0.0500237835804
106091	50	121	0	0	spur	1525	121	0	stimuli\spur\spur_10s.jpg	9	-1	0	0	spur_10s.jpg	0	0	0	99.3964156155853	99.4464325725112	0.0500169569259015
106192	50	122	0	0	twig	1740	122	0	stimuli\twig\twig_01b.jpg	0	-1	0	0	twig_01b.jpg	0	0	0	99.4964331942247	99.546400657895	0.0499674636703276
106292	50	123	0	0	wax_paper	1796	123	0	stimuli\wax_paper\wax_paper_08s.jpg	7	-1	0	0	wax_paper_08s.jpg	0	0	0	99.5964680833113	99.6464304269903	0.0499623436789989
106392	50	124	0	0	record_player	1296	124	0	stimuli\record_player\record_player_04s.jpg	3	-1	0	0	record_player_04s.jpg	0	0	0	99.6964366563134	99.746415579013	0.0499789226996654
106492	50	125	0	0	bedpost	110	125	0	stimuli\bedpost\bedpost_04s.jpg	3	-1	0	0	bedpost_04s.jpg	0	0	0	99.7964556978077	99.8464343766973	0.0499786788896017
106592	50	126	0	0	sofa_bed	1492	126	0	stimuli\sofa_bed\sofa_bed_03s.jpg	2	-1	0	0	sofa_bed_03s.jpg	0	0	0	99.896432316511	99.9464058754093	0.049973558898273
106692	50	127	0	0	coral	406	127	0	stimuli\coral\coral_08s.jpg	7	-1	0	0	coral_08s.jpg	0	0	0	99.9964267332816	100.046412482638	0.049985749355983
106792	50	128	0	0	fork	634	128	0	stimuli\fork\fork_05s.jpg	4	-1	0	0	fork_05s.jpg	0	0	0	100.096469424261	100.146445665061	0.0499762407998787
106892	50	129	0	0	duct_tape	528	129	0	stimuli\duct_tape\duct_tape_09s.jpg	8	-1	0	0	duct_tape_09s.jpg	0	0	0	100.19644214202	100.246420577101	0.049978435081357
106992	50	130	0	0	board_game	153	130	0	stimuli\board_game\board_game_06s.jpg	5	-1	0	0	board_game_06s.jpg	0	0	0	100.296440459737	100.346426940519	0.0499864807825361
107092	50	131	0	0	stair	1532	131	0	stimuli\stair\stair_05s.jpg	4	-1	0	0	stair_05s.jpg	0	0	0	100.396442678399	100.446424526808	0.0499818484095158
107192	50	132	0	0	slide	1464	132	0	stimuli\slide\slide_09s.jpg	8	-1	0	0	slide_09s.jpg	0	0	0	100.496442946589	100.546423332144	0.0499803855545906
107292	50	133	0	0	megaphone	993	133	0	stimuli\megaphone\megaphone_08s.jpg	7	-1	0	0	megaphone_08s.jpg	0	0	0	100.596477104249	100.646456270759	0.0499791665097291
107392	50	134	0	0	asparagus	42	134	0	stimuli\asparagus\asparagus_11s.jpg	10	-1	0	0	asparagus_11s.jpg	0	0	0	100.6964603058	100.746454832284	0.0499945264837152
107492	50	135	0	0	radar	1271	135	0	stimuli\radar\radar_04s.jpg	3	-1	0	0	radar_04s.jpg	0	0	0	100.796477884438	100.846459976658	0.0499820922195795
107592	50	136	0	0	periscope	1155	136	0	stimuli\periscope\periscope_11s.jpg	10	-1	0	0	periscope_11s.jpg	0	0	0	100.896480103102	100.946463414366	0.049983311264441
107692	50	137	0	0	olive	1075	137	0	stimuli\olive\olive_10s.jpg	9	-1	0	0	olive_10s.jpg	0	0	0	100.996467205598	101.04646563303	0.0499984274320013
107792	50	138	0	0	whip	1809	138	0	stimuli\whip\whip_12s.jpg	11	-1	0	0	whip_12s.jpg	0	0	0	101.096489172802	101.146447371724	0.049958198922468
107892	50	139	0	0	cassette	283	139	0	stimuli\cassette\cassette_03s.jpg	2	-1	0	0	cassette_03s.jpg	0	0	0	101.196461890559	101.246444470396	0.0499825798378879
107992	50	140	0	0	iguana	825	140	0	stimuli\iguana\iguana_04s.jpg	3	-1	0	0	iguana_04s.jpg	0	0	0	101.29646459684	101.346449127152	0.0499845303111215
108092	50	141	0	0	truck	1720	141	0	stimuli\truck\truck_12s.jpg	11	-1	0	0	truck_12s.jpg	0	0	0	101.396467059312	101.446448176295	0.0499811169829627
108192	50	142	0	0	souffle	1498	142	0	stimuli\souffle\souffle_04s.jpg	3	-1	0	0	souffle_04s.jpg	0	0	0	101.496465377029	101.546449175912	0.0499837988827494
108292	50	143	0	0	pogo_stick	1208	143	0	stimuli\pogo_stick\pogo_stick_02s.jpg	1	-1	0	0	pogo_stick_02s.jpg	0	0	0	101.596471009021	101.646460659324	0.0499896503024502
108392	50	144	0	0	tomato	1672	144	0	stimuli\tomato\tomato_09n.jpg	8	-1	0	0	tomato_09n.jpg	0	0	0	101.696473959111	101.746456538949	0.0499825798378879
108492	50	145	0	0	hot-air_balloon	801	145	0	stimuli\hot-air_balloon\hot-air_balloon_11s.jpg	10	-1	0	0	hot-air_balloon_11s.jpg	0	0	0	101.796469838737	101.846457050948	0.0499872122109082
108592	50	146	0	0	coconut	375	146	0	stimuli\coconut\coconut_10s.jpg	9	-1	0	0	coconut_10s.jpg	0	0	0	101.896481322148	101.946464389603	0.0499830674543773
108692	50	147	0	0	cookie	400	147	0	stimuli\cookie\cookie_05s.jpg	4	-1	0	0	cookie_05s.jpg	0	0	0	101.996479639865	102.046465145411	0.0499855055459193
108792	50	148	0	0	dragonfly	514	148	0	stimuli\dragonfly\dragonfly_07s.jpg	6	-1	0	0	dragonfly_07s.jpg	0	0	0	102.096482833764	102.146494914507	0.0500120807428175
108892	50	149	0	0	charger	308	149	0	stimuli\charger\charger_02s.jpg	1	-1	0	0	charger_02s.jpg	0	0	0	102.196516016187	102.246498839833	0.0499828236461326
108992	50	150	0	0	scrabble	1385	150	0	stimuli\scrabble\scrabble_03s.jpg	2	-1	0	0	scrabble_03s.jpg	0	0	0	102.296514821523	102.346478628057	0.0499638065339241
109092	50	151	0	0	bus	226	151	0	stimuli\bus\bus_06n.jpg	5	-1	0	0	bus_06n.jpg	0	0	0	102.3964987545	102.4464749953	0.0499762407998787
109192	50	152	0	0	crayfish	434	152	0	stimuli\crayfish\crayfish_12s.jpg	11	-1	0	0	crayfish_12s.jpg	0	0	0	102.496495121744	102.546475263491	0.0499801417463459
109292	50	153	0	0	bean	102	153	0	stimuli\bean\bean_09s.jpg	8	-1	0	0	bean_09s.jpg	0	0	0	102.596497828026	102.646476994536	0.0499791665097291
109392	50	154	0	0	pajamas	1099	154	0	stimuli\pajamas\pajamas_07s.jpg	6	-1	0	0	pajamas_07s.jpg	0	0	0	102.69649712098	102.746478481771	0.0499813607912074
109492	50	155	0	0	foam	624	155	0	stimuli\foam\foam_09s.jpg	8	-1	0	0	foam_09s.jpg	0	0	0	102.796496901552	102.846481188053	0.0499842865010578
109592	50	156	0	0	thermostat	1648	156	0	stimuli\thermostat\thermostat_05s.jpg	4	-1	0	0	thermostat_05s.jpg	0	0	0	102.896502289734	102.946486088616	0.0499837988827494
109692	50	157	0	0	fruitcake	646	157	0	stimuli\fruitcake\fruitcake_01b.jpg	0	-1	0	0	fruitcake_01b.jpg	0	0	0	102.996498656978	103.046485625378	0.0499869684008445
109792	50	158	0	0	tile	1660	158	0	stimuli\tile\tile_06s.jpg	5	-1	0	0	tile_06s.jpg	0	0	0	103.096540616531	103.146521489703	0.049980873172899
109892	50	159	0	0	fudge	647	159	0	stimuli\fudge\fudge_01b.jpg	0	-1	0	0	fudge_01b.jpg	0	0	0	103.196523330462	103.246502253161	0.0499789226996654
109992	50	160	0	0	beaker	101	160	0	stimuli\beaker\beaker_01b.jpg	0	-1	0	0	beaker_01b.jpg	0	0	0	103.296539690054	103.346522513701	0.0499828236461326
110092	50	161	0	0	chin	330	161	0	stimuli\chin\chin_06s.jpg	5	-1	0	0	chin_06s.jpg	0	0	0	103.396512164003	103.446495719078	0.0499835550745047
110192	50	162	0	0	jump_rope	858	162	0	stimuli\jump_rope\jump_rope_05s.jpg	4	-1	0	0	jump_rope_05s.jpg	0	0	0	103.496518039803	103.54649549965	0.0499774598465592
110292	50	163	0	0	braid	190	163	0	stimuli\braid\braid_10s.jpg	9	-1	0	0	braid_10s.jpg	0	0	0	103.596521721322	103.646511615432	0.0499898941106949
110392	50	164	0	0	sheet	1415	164	0	stimuli\sheet\sheet_06s.jpg	5	-1	0	0	sheet_06s.jpg	0	0	0	103.696522964749	103.746502375066	0.0499794103179738
110492	50	165	0	0	subway	1578	165	0	stimuli\subway\subway_12s.jpg	11	-1	0	0	subway_12s.jpg	0	0	0	103.796521038656	103.846539946055	0.0500189073991351
110592	50	166	0	0	fox	638	166	0	stimuli\fox\fox_10s.jpg	9	-1	0	0	fox_10s.jpg	0	0	0	103.896557390599	103.946536069489	0.0499786788896017
110692	50	167	0	0	dough	513	167	0	stimuli\dough\dough_05s.jpg	4	-1	0	0	dough_05s.jpg	0	0	0	103.996541323577	104.046539263389	0.0499979398118739
110792	50	168	0	0	sail	1346	168	0	stimuli\sail\sail_10s.jpg	9	-1	0	0	sail_10s.jpg	0	0	0	104.096536959392	104.146512956384	0.049975996991634
110892	50	169	0	0	incense	826	169	0	stimuli\incense\incense_01b.jpg	0	-1	0	0	incense_01b.jpg	0	0	0	104.196532107591	104.246512249336	0.0499801417445269
110992	50	170	0	0	match	983	170	0	stimuli\match\match_02s.jpg	1	-1	0	0	match_02s.jpg	0	0	0	104.296540665291	104.346554208889	0.0500135435977427
111092	50	171	0	0	tuba	1723	171	0	stimuli\tuba\tuba_04s.jpg	3	-1	0	0	tuba_04s.jpg	0	0	0	104.396576773424	104.446533021875	0.0499562484510534
111192	50	172	0	0	pantyhose	1110	172	0	stimuli\pantyhose\pantyhose_05s.jpg	4	-1	0	0	pantyhose_05s.jpg	0	0	0	104.496555098793	104.546551088131	0.0499959893386404
111292	50	173	0	0	bow1	174	173	0	stimuli\bow1\bow1_12s.jpg	11	-1	0	0	bow1_12s.jpg	0	0	0	104.596563412684	104.646534289683	0.0499708769984863
111392	50	174	0	0	paper	1112	174	0	stimuli\paper\paper_11s.jpg	10	-1	0	0	paper_11s.jpg	0	0	0	104.696546614234	104.746527975027	0.0499813607930264
111492	50	175	0	0	retainer	1303	175	0	stimuli\retainer\retainer_02s.jpg	1	-1	0	0	retainer_02s.jpg	0	0	0	104.796545663379	104.846560669832	0.0500150064526679
111592	50	176	0	0	dog	495	176	0	stimuli\dog\dog_11s.jpg	10	-1	0	0	dog_11s.jpg	0	0	0	104.896605664808	104.946562157067	0.0499564922592981
111692	50	177	0	0	cup	460	177	0	stimuli\cup\cup_11s.jpg	10	-1	0	0	cup_11s.jpg	0	0	0	104.996582039703	105.046564131921	0.0499820922177605
111792	50	178	0	0	overalls	1090	178	0	stimuli\overalls\overalls_04s.jpg	3	-1	0	0	overalls_04s.jpg	0	0	0	105.096591816449	105.146568544866	0.0499767284163681
111892	50	179	0	0	easter_egg	543	179	0	stimuli\easter_egg\easter_egg_03s.jpg	2	-1	0	0	easter_egg_03s.jpg	0	0	0	105.19658915893	105.246566862583	0.0499777036529849
111992	50	180	0	0	pincushion	1179	180	0	stimuli\pincushion\pincushion_06s.jpg	5	-1	0	0	pincushion_06s.jpg	0	0	0	105.296590646165	105.346577126948	0.0499864807825361
112092	50	181	0	0	chipmunk	334	181	0	stimuli\chipmunk\chipmunk_05s.jpg	4	-1	0	0	chipmunk_05s.jpg	0	0	0	105.39660066672	105.446577638948	0.0499769722282508
112192	50	182	0	0	television	1641	182	0	stimuli\television\television_01b.jpg	0	-1	0	0	television_01b.jpg	0	0	0	105.49660117872	105.546580832846	0.0499796541262185
112292	50	183	0	0	fishnet_stockings	604	183	0	stimuli\fishnet_stockings\fishnet_stockings_01b.jpg	0	-1	0	0	fishnet_stockings_01b.jpg	0	0	0	105.596631679242	105.646586708646	0.0499550294043729
112392	50	184	0	0	bead	100	184	0	stimuli\bead\bead_11s.jpg	10	-1	0	0	bead_11s.jpg	0	0	0	105.696605859855	105.746569910198	0.0499640503421688
112492	50	185	0	0	snowplow	1484	185	0	stimuli\snowplow\snowplow_09s.jpg	8	-1	0	0	snowplow_09s.jpg	0	0	0	105.796606859472	105.846591145973	0.0499842865010578
112592	50	186	0	0	metal_detector	996	186	0	stimuli\metal_detector\metal_detector_08s.jpg	7	-1	0	0	metal_detector_08s.jpg	0	0	0	105.896617123837	105.94659214559	0.0499750217531982
112692	50	187	0	0	playpen	1200	187	0	stimuli\playpen\playpen_08s.jpg	7	-1	0	0	playpen_08s.jpg	0	0	0	105.996616904409	106.046584611888	0.0499677074785723
112792	50	188	0	0	hot_tub	804	188	0	stimuli\hot_tub\hot_tub_04s.jpg	3	-1	0	0	hot_tub_04s.jpg	0	0	0	106.096601812624	106.146595363871	0.0499935512470984
112892	50	189	0	0	toaster_oven	1667	189	0	stimuli\toaster_oven\toaster_oven_04s.jpg	3	-1	0	0	toaster_oven_04s.jpg	0	0	0	106.196601105577	106.246598801581	0.0499976960036292
112992	50	190	0	0	crystal_ball	455	190	0	stimuli\crystal_ball\crystal_ball_02s.jpg	1	-1	0	0	crystal_ball_02s.jpg	0	0	0	106.296621122307	106.346602483098	0.0499813607912074
113092	50	191	0	0	pearl	1134	191	0	stimuli\pearl\pearl_01b.jpg	0	-1	0	0	pearl_01b.jpg	0	0	0	106.39662894858	106.446602995098	0.0499740465184004
113192	50	192	0	0	jack	835	192	0	stimuli\jack\jack_07s.jpg	6	-1	0	0	jack_07s.jpg	0	0	0	106.496611174894	106.546606676615	0.049995501720332
113292	50	193	0	0	nest	1056	193	0	stimuli\nest\nest_11s.jpg	10	-1	0	0	nest_11s.jpg	0	0	0	106.59663241067	106.646626693346	0.0499942826754705
113392	50	194	0	0	ramp	1283	194	0	stimuli\ramp\ramp_12s.jpg	11	-1	0	0	ramp_12s.jpg	0	0	0	106.696630484577	106.746593072066	0.0499625874890626
113492	50	195	0	0	leg	911	195	0	stimuli\leg\leg_08s.jpg	7	-1	0	0	leg_08s.jpg	0	0	0	106.796631728004	106.846619427834	0.0499876998292166
113592	50	196	0	0	bologna	158	196	0	stimuli\bologna\bologna_03s.jpg	2	-1	0	0	bologna_03s.jpg	0	0	0	106.896626632393	106.946600191293	0.049973558900092
113692	50	197	0	0	lock	940	197	0	stimuli\lock\lock_11s.jpg	10	-1	0	0	lock_11s.jpg	0	0	0	106.996613491081	107.046587293789	0.0499738027083367
113792	50	198	0	0	stapler	1539	198	0	stimuli\stapler\stapler_08s.jpg	7	-1	0	0	stapler_08s.jpg	0	0	0	107.096605225952	107.146595851489	0.049990625537248
113892	50	199	0	0	crowbar	447	199	0	stimuli\crowbar\crowbar_03s.jpg	2	-1	0	0	crowbar_03s.jpg	0	0	0	107.196629143627	107.246608066327	0.0499789226996654
113992	50	200	0	0	dagger	469	200	0	stimuli\dagger\dagger_07s.jpg	6	-1	0	0	dagger_07s.jpg	0	0	0	107.296627948963	107.346626620203	0.049998671240246
114092	50	201	0	0	meatball	989	201	0	stimuli\meatball\meatball_06s.jpg	5	-1	0	0	meatball_06s.jpg	0	0	0	107.396647478075	107.446612503654	0.0499650255787856
114192	50	202	0	0	furnace	651	202	0	stimuli\furnace\furnace_03s.jpg	2	-1	0	0	furnace_03s.jpg	0	0	0	107.496633849143	107.546631057528	0.0499972083853208
114292	50	203	0	0	coleslaw	386	203	0	stimuli\coleslaw\coleslaw_10s.jpg	9	-1	0	0	coleslaw_10s.jpg	0	0	0	107.596652403019	107.646637664757	0.0499852617376746
114392	50	204	0	0	handbrake	745	204	0	stimuli\handbrake\handbrake_04s.jpg	3	-1	0	0	handbrake_04s.jpg	0	0	0	107.69663828647	107.746635738664	0.0499974521935656
114492	50	205	0	0	popsicle	1225	205	0	stimuli\popsicle\popsicle_11s.jpg	10	-1	0	0	popsicle_11s.jpg	0	0	0	107.796641967989	107.846629667818	0.0499876998292166
114592	50	206	0	0	balance_beam	58	206	0	stimuli\balance_beam\balance_beam_07s.jpg	6	-1	0	0	balance_beam_07s.jpg	0	0	0	107.896630777148	107.946609456039	0.0499786788914207
114692	50	207	0	0	sprouts	1524	207	0	stimuli\sprouts\sprouts_04s.jpg	3	-1	0	0	sprouts_04s.jpg	0	0	0	107.996629338675	108.046612406129	0.0499830674543773
114792	50	208	0	0	pinecone	1183	208	0	stimuli\pinecone\pinecone_04s.jpg	3	-1	0	0	pinecone_04s.jpg	0	0	0	108.096638140185	108.146615112411	0.0499769722264318
114892	50	209	0	0	photo_booth	1163	209	0	stimuli\photo_booth\photo_booth_05s.jpg	4	-1	0	0	photo_booth_05s.jpg	0	0	0	108.196630362674	108.246613673939	0.049983311264441
114992	50	210	0	0	nose	1063	210	0	stimuli\nose\nose_09s.jpg	8	-1	0	0	nose_09s.jpg	0	0	0	108.296635019427	108.346651488735	0.0500164693075931
115092	50	211	0	0	kebab	865	211	0	stimuli\kebab\kebab_12n.jpg	11	-1	0	0	kebab_12n.jpg	0	0	0	108.396674784699	108.446635177903	0.0499603932039463
115192	50	212	0	0	bedpan	109	212	0	stimuli\bedpan\bedpan_06s.jpg	5	-1	0	0	bedpan_06s.jpg	0	0	0	108.496676759552	108.546662265098	0.0499855055459193
115292	50	213	0	0	ginger	673	213	0	stimuli\ginger\ginger_01b.jpg	0	-1	0	0	ginger_01b.jpg	0	0	0	108.596682635352	108.646626937154	0.0499443018015882
115392	50	214	0	0	ukulele	1742	214	0	stimuli\ukulele\ukulele_04s.jpg	3	-1	0	0	ukulele_04s.jpg	0	0	0	108.696644625508	108.746624767253	0.0499801417445269
115492	50	215	0	0	cigarette_holder	346	215	0	stimuli\cigarette_holder\cigarette_holder_11s.jpg	10	-1	0	0	cigarette_holder_11s.jpg	0	0	0	108.79664440608	108.846663069669	0.0500186635890714
115592	50	216	0	0	peeler	1138	216	0	stimuli\peeler\peeler_12s.jpg	11	-1	0	0	peeler_12s.jpg	0	0	0	108.89668709706	108.946650415975	0.0499633189156157
115692	50	217	0	0	dart	473	217	0	stimuli\dart\dart_10s.jpg	9	-1	0	0	dart_10s.jpg	0	0	0	108.996686877632	109.046652390829	0.049965513197094
115792	50	218	0	0	punch2	1255	218	0	stimuli\punch2\punch2_11s.jpg	10	-1	0	0	punch2_11s.jpg	0	0	0	109.09667373632	109.146639005707	0.0499652693870303
115892	50	219	0	0	french_fries	641	219	0	stimuli\french_fries\french_fries_10s.jpg	9	-1	0	0	french_fries_10s.jpg	0	0	0	109.196652793114	109.246639517707	0.0499867245925998
115992	50	220	0	0	harmonica	753	220	0	stimuli\harmonica\harmonica_07s.jpg	6	-1	0	0	harmonica_07s.jpg	0	0	0	109.296662813669	109.346674894412	0.0500120807428175
116092	50	221	0	0	clay	352	221	0	stimuli\clay\clay_01b.jpg	0	-1	0	0	clay_01b.jpg	0	0	0	109.39670526084	109.446647855979	0.0499425951384183
116192	50	222	0	0	steamroller	1545	222	0	stimuli\steamroller\steamroller_09s.jpg	8	-1	0	0	steamroller_09s.jpg	0	0	0	109.496670176706	109.546650806069	0.0499806293628353
116292	50	223	0	0	crank	432	223	0	stimuli\crank\crank_07s.jpg	6	-1	0	0	crank_07s.jpg	0	0	0	109.59667507727	109.646654487588	0.0499794103179738
116392	50	224	0	0	yolk	1850	224	0	stimuli\yolk\yolk_03s.jpg	2	-1	0	0	yolk_03s.jpg	0	0	0	109.69667534546	109.74665426816	0.0499789226996654
116492	50	225	0	0	ladybug	888	225	0	stimuli\ladybug\ladybug_12s.jpg	11	-1	0	0	ladybug_12s.jpg	0	0	0	109.796688779343	109.846653804922	0.0499650255787856
116592	50	226	0	0	gurney	728	226	0	stimuli\gurney\gurney_06s.jpg	5	-1	0	0	gurney_06s.jpg	0	0	0	109.896709771308	109.946690888291	0.0499811169829627
116692	50	227	0	0	letter_opener	919	227	0	stimuli\letter_opener\letter_opener_08s.jpg	7	-1	0	0	letter_opener_08s.jpg	0	0	0	109.996701506179	110.046666531758	0.0499650255787856
116792	50	228	0	0	polar_bear	1211	228	0	stimuli\polar_bear\polar_bear_05s.jpg	4	-1	0	0	polar_bear_05s.jpg	0	0	0	110.096718109582	110.146682159924	0.0499640503421688
116892	50	229	0	0	brake	191	229	0	stimuli\brake\brake_09s.jpg	8	-1	0	0	brake_09s.jpg	0	0	0	110.196697410185	110.246666092902	0.0499686827170081
116992	50	230	0	0	noose	1062	230	0	stimuli\noose\noose_04s.jpg	3	-1	0	0	noose_04s.jpg	0	0	0	110.296691583148	110.346673675367	0.0499820922195795
117092	50	231	0	0	bullet	216	231	0	stimuli\bullet\bullet_01s.jpg	0	-1	0	0	bullet_01s.jpg	0	0	0	110.396692582764	110.446672968321	0.0499803855564096
117192	50	232	0	0	odometer	1071	232	0	stimuli\odometer\odometer_03s.jpg	2	-1	0	0	odometer_03s.jpg	0	0	0	110.496718207105	110.546675430793	0.0499572236876702
117292	50	233	0	0	anchor	21	233	0	stimuli\anchor\anchor_11n.jpg	10	-1	0	0	anchor_11n.jpg	0	0	0	110.596696776282	110.646680087546	0.049983311264441
117392	50	234	0	0	compost	393	234	0	stimuli\compost\compost_01b.jpg	0	-1	0	0	compost_01b.jpg	0	0	0	110.696700213992	110.746680355736	0.0499801417445269
117492	50	235	0	0	tomato_sauce	1673	235	0	stimuli\tomato_sauce\tomato_sauce_08s.jpg	7	-1	0	0	tomato_sauce_08s.jpg	0	0	0	110.796702676464	110.846709881023	0.0500072045597335
117592	50	236	0	0	sickle	1441	236	0	stimuli\sickle\sickle_04s.jpg	3	-1	0	0	sickle_04s.jpg	0	0	0	110.896735615077	110.946714781587	0.0499791665097291
117692	50	237	0	0	vase	1753	237	0	stimuli\vase\vase_03s.jpg	2	-1	0	0	vase_03s.jpg	0	0	0	110.996738077551	111.046696032665	0.0499579551142233
117792	50	238	0	0	strainer	1566	238	0	stimuli\strainer\strainer_10s.jpg	9	-1	0	1	strainer_10s.jpg	0	0	0	111.096743953351	111.146709466548	0.049965513197094
117892	50	239	0	0	clover	366	239	0	stimuli\clover\clover_05s.jpg	4	-1	0	0	clover_05s.jpg	0	0	0	111.19670765017	111.246691936671	0.0499842865010578
117992	50	240	0	0	lettuce	920	240	0	stimuli\lettuce\lettuce_08n.jpg	7	-1	0	0	lettuce_08n.jpg	0	0	0	111.296782036337	111.346696349616	0.0499143132783502
118092	50	241	0	0	lumber	949	241	0	stimuli\lumber\lumber_08s.jpg	7	-1	0	0	lumber_08s.jpg	0	0	0	111.396727691281	111.446710027309	0.0499823360278242
118192	50	242	0	0	leggings	912	242	0	stimuli\leggings\leggings_03s.jpg	2	-1	0	0	leggings_03s.jpg	1	0.441899673027365	1	111.496731372799	111.546741015451	0.0500096426512755
118292	50	243	0	0	mouthpiece	1032	243	0	stimuli\mouthpiece\mouthpiece_04s.jpg	3	-1	0	0	mouthpiece_04s.jpg	0	0	0	111.596755778093	111.646736407458	0.0499806293646543
118392	50	244	0	0	cash_register	280	244	0	stimuli\cash_register\cash_register_12s.jpg	11	-1	0	0	cash_register_12s.jpg	0	0	0	111.696753364384	111.746735700412	0.0499823360278242
118492	50	245	0	0	painting	1098	245	0	stimuli\painting\painting_10s.jpg	9	-1	0	0	painting_10s.jpg	0	0	0	111.796759727802	111.846738650502	0.0499789226996654
118592	50	246	0	0	patch	1125	246	0	stimuli\patch\patch_09s.jpg	8	-1	0	0	patch_09s.jpg	0	0	0	111.896761946464	111.946739893929	0.0499779474648676
118692	50	247	0	0	marble	972	247	0	stimuli\marble\marble_02s.jpg	1	-1	0	0	marble_02s.jpg	0	0	0	111.996764896556	112.046744794492	0.0499798979362822
118792	50	248	0	0	lightbulb	927	248	0	stimuli\lightbulb\lightbulb_04s.jpg	3	-1	0	0	lightbulb_04s.jpg	0	0	0	112.096767115218	112.146728971278	0.0499618560606905
118892	50	249	0	0	ant	24	249	0	stimuli\ant\ant_07s.jpg	6	-1	0	0	ant_07s.jpg	0	0	0	112.196743977731	112.246726313759	0.0499823360278242
118992	50	250	0	0	fishhook	602	250	0	stimuli\fishhook\fishhook_04s.jpg	3	-1	0	0	fishhook_04s.jpg	0	0	0	112.296745952584	112.346730239087	0.0499842865028768
119092	50	251	0	0	earplug	539	251	0	stimuli\earplug\earplug_11s.jpg	10	-1	0	0	earplug_11s.jpg	0	0	0	112.396781573099	112.446758789136	0.0499772160364955
119192	50	252	0	0	cocoon	376	252	0	stimuli\cocoon\cocoon_06s.jpg	5	-1	0	0	cocoon_06s.jpg	0	0	0	112.496759410849	112.546758569708	0.0499991588585544
119292	50	253	0	0	altar	16	253	0	stimuli\altar\altar_12s.jpg	11	-1	0	0	altar_12s.jpg	0	0	0	112.596778208534	112.646759813135	0.0499816046012711
119392	50	254	0	0	magnifier	957	254	0	stimuli\magnifier\magnifier_10s.jpg	9	-1	0	0	magnifier_10s.jpg	0	0	0	112.696781158626	112.746762519417	0.0499813607912074
119492	50	255	0	0	golf_club	690	255	0	stimuli\golf_club\golf_club_05s.jpg	4	-1	0	0	golf_club_05s.jpg	0	0	0	112.796784596334	112.84674498954	0.0499603932057653
119592	50	256	0	0	warthog	1781	256	0	stimuli\warthog\warthog_06s.jpg	5	-1	0	0	warthog_06s.jpg	0	0	0	112.896764140747	112.946743551065	0.0499794103179738
119692	50	257	0	0	telescope	1640	257	0	stimuli\telescope\telescope_11n.jpg	10	-1	0	0	telescope_11n.jpg	0	0	0	112.996759776563	113.046746988774	0.0499872122109082
119792	50	258	0	0	taxi	1630	258	0	stimuli\taxi\taxi_12s.jpg	11	-1	0	1	taxi_12s.jpg	0	0	0	113.096768334264	113.146747013156	0.0499786788914207
119892	50	259	0	0	beard	106	259	0	stimuli\beard\beard_05s.jpg	4	-1	0	0	beard_05s.jpg	0	0	0	113.196765920553	113.246750694672	0.0499847741193662
119992	50	260	0	0	viewfinder	1763	260	0	stimuli\viewfinder\viewfinder_09s.jpg	8	-1	0	0	viewfinder_09s.jpg	0	0	0	113.296772527781	113.346755595237	0.0499830674561963
120092	50	261	0	0	broccoli	201	261	0	stimuli\broccoli\broccoli_06s.jpg	5	-1	0	0	broccoli_06s.jpg	0	0	0	113.396769138833	113.446757813899	0.0499886750658334
120192	50	262	0	0	noisemaker	1060	262	0	stimuli\noisemaker\noisemaker_09s.jpg	8	-1	0	0	noisemaker_09s.jpg	0	0	0	113.49677623368	113.546757594471	0.0499813607912074
120292	50	263	0	0	saw	1366	263	0	stimuli\saw\saw_06s.jpg	5	-1	0	0	saw_06s.jpg	1	0.492158976236169	1	113.596805027539	113.646767615028	0.0499625874890626
120392	50	264	0	0	shovel	1432	264	0	stimuli\shovel\shovel_06s.jpg	5	-1	0	0	shovel_06s.jpg	0	0	0	113.696783596715	113.746761787988	0.0499781912731123
120492	50	265	0	0	apple_tree	31	265	0	stimuli\apple_tree\apple_tree_06s.jpg	5	-1	0	0	apple_tree_06s.jpg	0	0	0	113.796786546807	113.846765957125	0.0499794103179738
120592	50	266	0	0	bagpipe	56	266	0	stimuli\bagpipe\bagpipe_03s.jpg	2	-1	0	0	bagpipe_03s.jpg	0	0	0	113.896786814998	113.946769151025	0.0499823360278242
120692	50	267	0	0	button2	231	267	0	stimuli\button2\button2_09s.jpg	8	-1	0	0	button2_09s.jpg	0	0	0	113.996785864141	114.046764055414	0.0499781912731123
120792	50	268	0	0	mango	966	268	0	stimuli\mango\mango_04s.jpg	3	-1	0	0	mango_04s.jpg	0	0	0	114.096772966637	114.146798213074	0.0500252464371442
120892	50	269	0	0	ski_lift	1454	269	0	stimuli\ski_lift\ski_lift_06s.jpg	5	-1	0	0	ski_lift_06s.jpg	0	0	0	114.196793958605	114.246772149878	0.0499781912731123
120992	50	270	0	0	floss	617	270	0	stimuli\floss\floss_09s.jpg	8	-1	0	0	floss_09s.jpg	0	0	0	114.296799834405	114.346780219959	0.0499803855545906
121092	50	271	0	0	pumpkin	1253	271	0	stimuli\pumpkin\pumpkin_07s.jpg	6	-1	0	0	pumpkin_07s.jpg	0	0	0	114.39679278832	114.446780975768	0.049988187447525
121192	50	272	0	0	corsage	417	272	0	stimuli\corsage\corsage_02s.jpg	1	-1	0	0	corsage_02s.jpg	0	0	0	114.49680158983	114.546784169668	0.0499825798378879
121292	50	273	0	0	brooch	202	273	0	stimuli\brooch\brooch_04s.jpg	3	-1	0	0	brooch_04s.jpg	0	0	0	114.596811854195	114.64679248356	0.0499806293646543
121392	50	274	0	0	badger	53	274	0	stimuli\badger\badger_02s.jpg	1	-1	0	0	badger_02s.jpg	0	0	0	114.696815779522	114.746792995558	0.0499772160364955
121492	50	275	0	0	lingerie	932	275	0	stimuli\lingerie\lingerie_04s.jpg	3	-1	0	0	lingerie_04s.jpg	0	0	0	114.796837746726	114.846816181807	0.049978435081357
121592	50	276	0	0	table	1608	276	0	stimuli\table\table_08s.jpg	7	-1	0	0	table_08s.jpg	0	0	0	114.896822167322	114.946814743333	0.0499925760104816
121692	50	277	0	0	stilt	1555	277	0	stimuli\stilt\stilt_09s.jpg	8	-1	0	0	stilt_09s.jpg	0	0	0	114.99683974596	115.046823544842	0.0499837988827494
121792	50	278	0	0	crystal2	454	278	0	stimuli\crystal2\crystal2_04s.jpg	3	-1	0	0	crystal2_04s.jpg	0	0	0	115.096822947511	115.146802601639	0.0499796541280375
121892	50	279	0	0	roof_rack	1329	279	0	stimuli\roof_rack\roof_rack_02s.jpg	1	-1	0	0	roof_rack_02s.jpg	0	0	0	115.19682077761	115.246809208866	0.0499884312557697
121992	50	280	0	0	ballot_box	61	280	0	stimuli\ballot_box\ballot_box_12s.jpg	11	-1	0	0	ballot_box_12s.jpg	0	0	0	115.296827141028	115.346806307538	0.0499791665097291
122092	50	281	0	0	ice_cube	819	281	0	stimuli\ice_cube\ice_cube_03s.jpg	2	-1	0	0	ice_cube_03s.jpg	0	0	0	115.396847401567	115.446829006169	0.0499816046012711
122192	50	282	0	0	can_opener	251	282	0	stimuli\can_opener\can_opener_07s.jpg	6	-1	0	0	can_opener_07s.jpg	0	0	0	115.496832065972	115.546830249594	0.0499981836219376
122292	50	283	0	0	kiwi	876	283	0	stimuli\kiwi\kiwi_11s.jpg	10	-1	0	0	kiwi_11s.jpg	0	0	0	115.596853789366	115.646832224449	0.049978435083176
122392	50	284	0	0	violin	1764	284	0	stimuli\violin\violin_02s.jpg	1	-1	0	0	violin_02s.jpg	0	0	0	115.696853813748	115.746833955493	0.0499801417445269
122492	50	285	0	0	speedometer	1512	285	0	stimuli\speedometer\speedometer_03s.jpg	2	-1	0	0	speedometer_03s.jpg	0	0	0	115.79685627622	115.846819595135	0.0499633189156157
122592	50	286	0	0	pancake	1104	286	0	stimuli\pancake\pancake_02n.jpg	1	-1	0	0	pancake_02n.jpg	0	0	0	115.896838746343	115.946819375707	0.0499806293646543
122692	50	287	0	0	bib	122	287	0	stimuli\bib\bib_06s.jpg	5	-1	0	0	bib_06s.jpg	0	0	0	115.996837307868	116.046847681948	0.0500103740796476
122792	50	288	0	0	coin	385	288	0	stimuli\coin\coin_09s.jpg	8	-1	0	0	coin_09s.jpg	0	0	0	116.096851473179	116.146826251124	0.0499747779449535
122892	50	289	0	0	pan	1103	289	0	stimuli\pan\pan_05s.jpg	4	-1	0	0	pan_05s.jpg	0	0	0	116.196845402332	116.246830907879	0.0499855055477383
122992	50	290	0	0	eagle	537	290	0	stimuli\eagle\eagle_10s.jpg	9	-1	0	0	eagle_10s.jpg	0	0	0	116.296853960033	116.346831907496	0.0499779474630486
123092	50	291	0	0	eggshell	551	291	0	stimuli\eggshell\eggshell_07s.jpg	6	-1	0	0	eggshell_07s.jpg	0	0	0	116.396848620612	116.44683388235	0.0499852617376746
123192	50	292	0	0	gyro	730	292	0	stimuli\gyro\gyro_05s.jpg	4	-1	0	0	gyro_05s.jpg	0	0	0	116.496854252604	116.54683707625	0.0499828236461326
123292	50	293	0	0	gravy	711	293	0	stimuli\gravy\gravy_12s.jpg	11	-1	0	0	gravy_12s.jpg	0	0	0	116.596881339799	116.646859774881	0.049978435081357
123392	50	294	0	0	paper_bag	1113	294	0	stimuli\paper_bag\paper_bag_03s.jpg	2	-1	0	0	paper_bag_03s.jpg	0	0	0	116.696881120371	116.746860530689	0.0499794103179738
123492	50	295	0	0	pitcher	1190	295	0	stimuli\pitcher\pitcher_02s.jpg	1	-1	0	0	pitcher_02s.jpg	0	0	0	116.796884801888	116.84686348078	0.0499786788914207
123592	50	296	0	0	jug	853	296	0	stimuli\jug\jug_08s.jpg	7	-1	0	0	jug_08s.jpg	0	0	0	116.896884094842	116.946843756621	0.0499596617792122
123692	50	297	0	0	wagon	1772	297	0	stimuli\wagon\wagon_07s.jpg	6	-1	0	0	wagon_07s.jpg	0	0	0	116.99686266402	117.046873281908	0.0500106178878923
123792	50	298	0	0	alpaca	15	298	0	stimuli\alpaca\alpaca_06s.jpg	5	-1	0	0	alpaca_06s.jpg	0	0	0	117.096879267421	117.146851851085	0.0499725836634752
123892	50	299	0	0	omelet	1076	299	0	stimuli\omelet\omelet_04n.jpg	3	-1	0	0	omelet_04n.jpg	0	0	0	117.196866126109	117.246854313556	0.049988187447525
123992	50	300	0	0	stamp2	1536	300	0	stimuli\stamp2\stamp2_12s.jpg	11	-1	0	0	stamp2_12s.jpg	0	0	0	117.296872001909	117.34687871885	0.0500067169414251
124092	50	301	0	0	gopher	694	301	0	stimuli\gopher\gopher_01b.jpg	0	-1	0	0	gopher_01b.jpg	0	0	0	117.396869832008	117.446852899464	0.0499830674561963
124192	50	302	0	0	book	165	302	0	stimuli\book\book_09s.jpg	8	-1	0	0	book_09s.jpg	0	0	0	117.496875707808	117.546855118126	0.0499794103179738
124292	50	303	0	0	stalagmite	1534	303	0	stimuli\stalagmite\stalagmite_03s.jpg	2	-1	0	0	stalagmite_03s.jpg	0	0	0	117.596884265509	117.646863188209	0.0499789226996654
124392	50	304	0	0	banjo	68	304	0	stimuli\banjo\banjo_08s.jpg	7	-1	0	0	banjo_08s.jpg	0	0	0	117.696884777508	117.746864431636	0.0499796541280375
124492	50	305	0	0	ram	1282	305	0	stimuli\ram\ram_08s.jpg	7	-1	0	0	ram_08s.jpg	0	0	0	117.796891872355	117.846870063626	0.0499781912712933
124592	50	306	0	0	sonogram	1496	306	0	stimuli\sonogram\sonogram_03s.jpg	2	-1	0	0	sonogram_03s.jpg	0	0	0	117.896894334826	117.946870088008	0.0499757531815703
124692	50	307	0	0	file1	583	307	0	stimuli\file1\file1_06s.jpg	5	-1	0	0	file1_06s.jpg	0	0	0	117.996889239215	118.046873525716	0.0499842865010578
124792	50	308	0	0	gazelle	666	308	0	stimuli\gazelle\gazelle_02s.jpg	1	-1	0	0	gazelle_02s.jpg	0	0	0	118.096918033074	118.146877207235	0.0499591741609038
134842	50	309	0	0	garlic	658	0	1	stimuli\garlic\garlic_12n.jpg	11	-1	1	0	garlic_12n.jpg	0	0	0	128.147161488689	128.197138948533	0.0499774598447402
134942	50	310	0	0	calculator	240	1	1	stimuli\calculator\calculator_02s.jpg	1	-1	1	0	calculator_02s.jpg	0	0	0	128.247164682589	128.297119955801	0.0499552732126176
135042	50	311	0	0	goat	684	2	1	stimuli\goat\goat_09s.jpg	8	-1	1	0	goat_09s.jpg	0	0	0	128.347133743209	128.397113641146	0.0499798979362822
135142	50	312	0	0	cannon	260	3	1	stimuli\cannon\cannon_01b.jpg	0	-1	1	0	cannon_01b.jpg	0	0	0	128.447138643773	128.497150968324	0.0500123245510622
135242	50	313	0	0	palm_tree	1102	4	1	stimuli\palm_tree\palm_tree_06s.jpg	5	-1	1	0	palm_tree_06s.jpg	0	0	0	128.547167681441	128.597150017469	0.0499823360278242
135342	50	314	0	0	doily	498	5	1	stimuli\doily\doily_09s.jpg	8	-1	1	0	doily_09s.jpg	0	0	0	128.647171362958	128.697151504704	0.0499801417463459
135442	50	315	0	0	mold1	1012	6	1	stimuli\mold1\mold1_04s.jpg	3	-1	1	0	mold1_04s.jpg	0	0	0	128.747150907371	128.797130317691	0.0499794103197928
135542	50	316	0	0	ferry	580	7	1	stimuli\ferry\ferry_11s.jpg	10	-1	1	0	ferry_11s.jpg	0	0	0	128.847151419372	128.897131804926	0.0499803855545906
135642	50	317	0	0	leaf	906	8	1	stimuli\leaf\leaf_02s.jpg	1	-1	1	0	leaf_02s.jpg	0	0	0	128.947155344698	128.997157916885	0.0500025721867132
135742	50	318	0	0	candy	255	9	1	stimuli\candy\candy_02s.jpg	1	-1	1	0	candy_02s.jpg	0	0	0	129.047176824284	129.09715964793	0.0499828236461326
135842	50	319	0	0	drum	522	10	1	stimuli\drum\drum_09s.jpg	8	-1	1	0	drum_09s.jpg	0	0	0	129.147176117236	129.197156258982	0.0499801417463459
135942	50	320	0	0	doormat	511	11	1	stimuli\doormat\doormat_07s.jpg	6	-1	1	0	doormat_07s.jpg	0	0	0	129.247177604473	129.297163353829	0.049985749355983
136042	50	321	0	0	boa	150	12	1	stimuli\boa\boa_09s.jpg	8	-1	1	0	boa_09s.jpg	0	0	0	129.347179335518	129.397165084873	0.049985749354164
136142	50	322	0	0	seafood	1394	13	1	stimuli\seafood\seafood_01b.jpg	0	-1	1	0	seafood_01b.jpg	0	0	0	129.447184236082	129.497164621636	0.0499803855545906
136242	50	323	0	0	kaleidoscope	861	14	1	stimuli\kaleidoscope\kaleidoscope_09s.jpg	8	-1	1	0	kaleidoscope_09s.jpg	0	0	0	129.547187917598	129.597165133635	0.0499772160364955
136342	50	324	0	0	forklift	635	15	1	stimuli\forklift\forklift_01b.jpg	0	-1	1	0	forklift_01b.jpg	0	0	0	129.647186235316	129.697169302772	0.0499830674561963
136442	50	325	0	0	seesaw	1402	16	1	stimuli\seesaw\seesaw_09s.jpg	8	-1	1	0	seesaw_09s.jpg	0	0	0	129.747192842544	129.797171521435	0.0499786788914207
136542	50	326	0	0	corkboard	410	17	1	stimuli\corkboard\corkboard_10s.jpg	9	-1	1	0	corkboard_10s.jpg	0	0	0	129.847178969803	129.897160330594	0.0499813607912074
136642	50	327	0	0	meat_grinder	988	18	1	stimuli\meat_grinder\meat_grinder_07s.jpg	6	-1	1	1	meat_grinder_07s.jpg	0	0	0	129.947172411337	129.997188149218	0.05001573788104
136742	50	328	0	0	yoke	1849	19	1	stimuli\yoke\yoke_11s.jpg	10	-1	1	0	yoke_11s.jpg	0	0	0	130.047215589937	130.097186954554	0.0499713646167947
136842	50	329	0	0	canoe	262	20	1	stimuli\canoe\canoe_05s.jpg	4	-1	1	0	canoe_05s.jpg	0	0	0	130.147193183877	130.19717405705	0.049980873172899
136942	50	330	0	0	vulture	1768	21	1	stimuli\vulture\vulture_09s.jpg	8	-1	1	0	vulture_09s.jpg	0	0	0	130.247212712988	130.297194805207	0.0499820922195795
137042	50	331	0	0	mud	1033	22	1	stimuli\mud\mud_10s.jpg	9	-1	1	0	mud_10s.jpg	0	0	0	130.347213712606	130.397178006757	0.0499642941504135
137142	50	332	0	0	pigeon	1171	23	1	stimuli\pigeon\pigeon_06s.jpg	5	-1	1	0	pigeon_06s.jpg	1	0.492181894294845	1	130.447204228431	130.497203874907	0.0499996464768628
137242	50	333	0	0	checkbook	310	24	1	stimuli\checkbook\checkbook_03s.jpg	2	-1	1	0	checkbook_03s.jpg	0	0	0	130.547202302338	130.597199998341	0.0499976960036292
137342	50	334	0	0	fishbowl	601	25	1	stimuli\fishbowl\fishbowl_02s.jpg	1	-1	1	0	fishbowl_02s.jpg	0	0	0	130.64722475716	130.69720099796	0.0499762407998787
137442	50	335	0	0	bottle	170	26	1	stimuli\bottle\bottle_04s.jpg	3	-1	1	0	bottle_04s.jpg	0	0	0	130.747226488205	130.797205654713	0.0499791665079101
137542	50	336	0	0	lamppost	892	27	1	stimuli\lamppost\lamppost_02s.jpg	1	-1	1	0	lamppost_02s.jpg	0	0	0	130.847210177373	130.89720714195	0.0499969645770761
137642	50	337	0	0	lanyard	896	28	1	stimuli\lanyard\lanyard_07s.jpg	6	-1	1	0	lanyard_07s.jpg	0	0	0	130.947204594144	130.997188880645	0.0499842865010578
137742	50	338	0	0	orchid	1081	29	1	stimuli\orchid\orchid_04s.jpg	3	-1	1	0	orchid_04s.jpg	0	0	0	131.047209250899	131.097188173599	0.0499789226996654
137842	50	339	0	0	hookah	795	30	1	stimuli\hookah\hookah_12s.jpg	11	-1	1	0	hookah_12s.jpg	0	0	0	131.147209275279	131.197189173216	0.0499798979362822
137942	50	340	0	0	window	1818	31	1	stimuli\window\window_11s.jpg	10	-1	1	0	window_11s.jpg	0	0	0	131.247210274898	131.297192367116	0.0499820922177605
138042	50	341	0	0	power_line	1237	32	1	stimuli\power_line\power_line_04s.jpg	3	-1	1	0	power_line_04s.jpg	0	0	0	131.347209324042	131.39718580865	0.0499764846081234
138142	50	342	0	0	cheetah	315	33	1	stimuli\cheetah\cheetah_10s.jpg	9	-1	1	0	cheetah_10s.jpg	0	0	0	131.447212274132	131.497232400576	0.0500201264439966
138242	50	343	0	0	sarcophagus	1358	34	1	stimuli\sarcophagus\sarcophagus_02s.jpg	1	-1	1	0	sarcophagus_02s.jpg	0	0	0	131.547227902298	131.597200242151	0.0499723398534115
138342	50	344	0	0	penguin	1145	35	1	stimuli\penguin\penguin_07s.jpg	6	-1	1	0	penguin_07s.jpg	0	0	0	131.647219637169	131.697198559868	0.0499789226996654
138442	50	345	0	0	cello	292	36	1	stimuli\cello\cello_03s.jpg	2	-1	1	0	cello_03s.jpg	0	0	0	131.747221124404	131.797204435668	0.049983311264441
138542	50	346	0	0	chisel	336	37	1	stimuli\chisel\chisel_04s.jpg	3	-1	1	0	chisel_04s.jpg	0	0	0	131.847221392594	131.897208848613	0.0499874560191529
138642	50	347	0	0	pliers	1201	38	1	stimuli\pliers\pliers_11s.jpg	10	-1	1	0	pliers_11s.jpg	0	0	0	131.947226049348	131.9972410558	0.0500150064526679
138742	50	348	0	0	padlock	1095	39	1	stimuli\padlock\padlock_03s.jpg	2	-1	1	0	padlock_03s.jpg	0	0	0	132.04724289656	132.097236203999	0.0499933074388537
138842	50	349	0	0	funnel	649	40	1	stimuli\funnel\funnel_02s.jpg	1	-1	1	0	funnel_02s.jpg	0	0	0	132.147259743771	132.197228182678	0.0499684389069444
138942	50	350	0	0	moccasin	1010	41	1	stimuli\moccasin\moccasin_05s.jpg	4	-1	1	0	moccasin_05s.jpg	0	0	0	132.247245139604	132.297245029889	0.0499998902851075
139042	50	351	0	0	fencepost	576	42	1	stimuli\fencepost\fencepost_08s.jpg	7	-1	1	0	fencepost_08s.jpg	0	0	0	132.347265400143	132.39724505427	0.0499796541262185
139142	50	352	0	0	ironing_board	833	43	1	stimuli\ironing_board\ironing_board_02s.jpg	1	-1	1	0	ironing_board_02s.jpg	0	0	0	132.447248114075	132.49724824817	0.0500001340951712
139242	50	353	0	0	bison	134	44	1	stimuli\bison\bison_02s.jpg	1	-1	1	0	bison_02s.jpg	0	0	0	132.547271544134	132.597234131621	0.0499625874872436
139342	50	354	0	0	quill	1263	45	1	stimuli\quill\quill_11s.jpg	10	-1	1	1	quill_11s.jpg	0	0	0	132.647253526638	132.697253904542	0.0500003779034159
139442	50	355	0	0	dial	483	46	1	stimuli\dial\dial_02s.jpg	1	-1	1	0	dial_02s.jpg	0	0	0	132.747275981459	132.797240519421	0.0499645379622962
139542	50	356	0	0	cigarette_butt	345	47	1	stimuli\cigarette_butt\cigarette_butt_05s.jpg	4	-1	1	0	cigarette_butt_05s.jpg	0	0	0	132.847247723981	132.897226159062	0.049978435081357
139642	50	357	0	0	skirt	1457	48	1	stimuli\skirt\skirt_08s.jpg	7	-1	1	0	skirt_08s.jpg	1	0.300196095688079	1	132.947251649308	132.997265192906	0.0500135435977427
139742	50	358	0	0	wick	1815	49	1	stimuli\wick\wick_07s.jpg	6	-1	1	0	wick_07s.jpg	0	0	0	133.047258744153	133.097231815434	0.0499730712817836
139842	50	359	0	0	detonator	482	50	1	stimuli\detonator\detonator_11s.jpg	10	-1	1	0	detonator_11s.jpg	0	0	0	133.14725437997	133.19723647219	0.0499820922195795
139942	50	360	0	0	kite	874	51	1	stimuli\kite\kite_12s.jpg	11	-1	1	0	kite_12s.jpg	0	0	0	133.247248065314	133.297271605086	0.0500235397721553
140042	50	361	0	0	parking_meter	1120	52	1	stimuli\parking_meter\parking_meter_02s.jpg	1	-1	1	0	parking_meter_02s.jpg	0	0	0	133.347287586774	133.397269435185	0.0499818484113348
140142	50	362	0	0	steak	1544	53	1	stimuli\steak\steak_09s.jpg	8	-1	1	0	steak_09s.jpg	0	0	0	133.447291024484	133.497253855779	0.0499628312954883
140242	50	363	0	0	xylophone	1843	54	1	stimuli\xylophone\xylophone_11s.jpg	10	-1	1	0	xylophone_11s.jpg	0	0	0	133.54727251937	133.597250223023	0.0499777036529849
140342	50	364	0	0	leash	907	55	1	stimuli\leash\leash_07s.jpg	6	-1	1	0	leash_07s.jpg	0	0	0	133.647270837087	133.697263656908	0.0499928198205453
140442	50	365	0	0	wolf	1831	56	1	stimuli\wolf\wolf_11n.jpg	10	-1	1	0	wolf_11n.jpg	0	0	0	133.747274274796	133.79725734225	0.0499830674543773
140542	50	366	0	0	cantaloupe	263	57	1	stimuli\cantaloupe\cantaloupe_11s.jpg	10	-1	1	0	cantaloupe_11s.jpg	0	0	0	133.847276737268	133.897255659967	0.0499789226996654
140642	50	367	0	0	fire_alarm	591	58	1	stimuli\fire_alarm\fire_alarm_02s.jpg	1	-1	1	0	fire_alarm_02s.jpg	0	0	0	133.94729602257	133.997273238607	0.0499772160364955
140742	50	368	0	0	dogfood	496	59	1	stimuli\dogfood\dogfood_04s.jpg	3	-1	1	0	dogfood_04s.jpg	0	0	0	134.047283612686	134.097289354391	0.0500057417048083
140842	50	369	0	0	money	1015	60	1	stimuli\money\money_11s.jpg	10	-1	1	0	money_11s.jpg	0	0	0	134.147282905638	134.19726475405	0.0499818484113348
140942	50	370	0	0	tortellini	1686	61	1	stimuli\tortellini\tortellini_10s.jpg	9	-1	1	0	tortellini_10s.jpg	0	0	0	134.24728293002	134.297263315575	0.0499803855545906
141042	50	371	0	0	mousepad	1028	62	1	stimuli\mousepad\mousepad_06s.jpg	5	-1	1	0	mousepad_06s.jpg	0	0	0	134.347284661066	134.397283819922	0.0499991588567354
141142	50	372	0	0	comic_book	391	63	1	stimuli\comic_book\comic_book_03s.jpg	2	-1	1	0	comic_book_03s.jpg	0	0	0	134.447301995895	134.497302861417	0.0500008655217243
141242	50	373	0	0	washing_machine	1784	64	1	stimuli\washing_machine\washing_machine_09s.jpg	8	-1	1	0	washing_machine_09s.jpg	0	0	0	134.547306652648	134.597271678229	0.0499650255806046
141342	50	374	0	0	aloe	14	65	1	stimuli\aloe\aloe_01b.jpg	0	-1	1	0	aloe_01b.jpg	0	0	0	134.647288391345	134.697300228278	0.0500118369327538
141442	50	375	0	0	reindeer	1301	66	1	stimuli\reindeer\reindeer_07s.jpg	6	-1	1	0	reindeer_07s.jpg	0	0	0	134.747330350898	134.797280260311	0.0499499094130442
141542	50	376	0	0	can	250	67	1	stimuli\can\can_06s.jpg	5	-1	1	0	can_06s.jpg	0	0	0	134.847300630563	134.897280528499	0.0499798979362822
141642	50	377	0	0	tweezers	1739	68	1	stimuli\tweezers\tweezers_05s.jpg	4	-1	1	0	tweezers_05s.jpg	0	0	0	134.947308700646	134.997284941446	0.0499762407998787
141742	50	378	0	0	mixer	1009	69	1	stimuli\mixer\mixer_08s.jpg	7	-1	1	0	mixer_08s.jpg	0	0	0	135.047306774553	135.097281552498	0.0499747779449535
141842	50	379	0	0	bolo_tie	157	70	1	stimuli\bolo_tie\bolo_tie_01b.jpg	0	-1	1	0	bolo_tie_01b.jpg	0	0	0	135.147303629416	135.197279870215	0.0499762407998787
141942	50	380	0	0	knitting_needle	881	71	1	stimuli\knitting_needle\knitting_needle_01b.jpg	0	-1	1	0	knitting_needle_01b.jpg	0	0	0	135.247307310934	135.297320123103	0.0500128121693706
142042	50	381	0	0	bowl	177	72	1	stimuli\bowl\bowl_09s.jpg	8	-1	1	0	bowl_09s.jpg	0	0	0	135.347339030503	135.397305275128	0.0499662446254661
142142	50	382	0	0	needle	1055	73	1	stimuli\needle\needle_04s.jpg	3	-1	1	0	needle_04s.jpg	0	0	0	135.447355633905	135.497327729949	0.0499720960433478
142242	50	383	0	0	hedgehog	774	74	1	stimuli\hedgehog\hedgehog_04s.jpg	3	-1	1	0	hedgehog_04s.jpg	0	0	0	135.547344443065	135.597324584811	0.0499801417463459
142342	50	384	0	0	doll	499	75	1	stimuli\doll\doll_02s.jpg	1	-1	1	0	doll_02s.jpg	0	0	0	135.647322524625	135.697302910179	0.0499803855545906
142442	50	385	0	0	cinnamon	348	76	1	stimuli\cinnamon\cinnamon_02s.jpg	1	-1	1	0	cinnamon_02s.jpg	0	0	0	135.747322061387	135.797302203133	0.0499801417463459
142542	50	386	0	0	blouse	144	77	1	stimuli\blouse\blouse_02s.jpg	1	-1	1	0	blouse_02s.jpg	0	0	0	135.847322817195	135.897302471323	0.0499796541280375
142642	50	387	0	0	flamethrower	607	78	1	stimuli\flamethrower\flamethrower_04s.jpg	3	-1	1	0	flamethrower_04s.jpg	0	0	0	135.947325279667	135.997337848028	0.0500125683611259
142742	50	388	0	0	blueberry	149	79	1	stimuli\blueberry\blueberry_09s.jpg	8	-1	1	0	blueberry_09s.jpg	0	0	0	136.047356755427	136.097320318151	0.0499635627238604
142842	50	389	0	0	fire	590	80	1	stimuli\fire\fire_09s.jpg	8	-1	1	0	fire_09s.jpg	0	0	0	136.147360680754	136.197341797737	0.0499811169829627
142942	50	390	0	0	gorilla	695	81	1	stimuli\gorilla\gorilla_11s.jpg	10	-1	1	0	gorilla_11s.jpg	0	0	0	136.247364362272	136.297324511668	0.0499601493957016
143042	50	391	0	0	loveseat	947	82	1	stimuli\loveseat\loveseat_01b.jpg	0	-1	1	1	loveseat_01b.jpg	0	0	0	136.347340980976	136.397310882738	0.0499699017618696
143142	50	392	0	0	soda_fountain	1491	83	1	stimuli\soda_fountain\soda_fountain_11s.jpg	10	-1	1	0	soda_fountain_11s.jpg	0	0	0	136.44733710441	136.497326023285	0.0499889188758971
143242	50	393	0	0	champagne	304	84	1	stimuli\champagne\champagne_08s.jpg	7	-1	1	0	champagne_08s.jpg	0	0	0	136.547345174493	136.597325560047	0.0499803855545906
143342	50	394	0	0	chaps	306	85	1	stimuli\chaps\chaps_12s.jpg	11	-1	1	0	chaps_12s.jpg	1	0.341896479127172	1	136.647339347455	136.697356060571	0.0500167131158378
143442	50	395	0	0	eclair	544	86	1	stimuli\eclair\eclair_09s.jpg	8	-1	1	0	eclair_09s.jpg	0	0	0	136.747374480352	136.797335604984	0.0499611246323184
143542	50	396	0	0	footbath	631	87	1	stimuli\footbath\footbath_09s.jpg	8	-1	1	0	footbath_09s.jpg	0	0	0	136.847350611437	136.897330996992	0.0499803855545906
143642	50	397	0	0	hole	785	88	1	stimuli\hole\hole_01b.jpg	0	-1	1	0	hole_01b.jpg	0	0	0	136.947353073909	136.997361253705	0.0500081797963503
143742	50	398	0	0	tea	1631	89	1	stimuli\tea\tea_08s.jpg	7	-1	1	0	tea_08s.jpg	0	0	0	137.047381136341	137.097348843819	0.0499677074785723
143842	50	399	0	0	umbrella	1743	90	1	stimuli\umbrella\umbrella_07s.jpg	6	-1	1	0	umbrella_07s.jpg	0	0	0	137.14736750741	137.197365447222	0.0499979398118739
143942	50	400	0	0	navel	1052	91	1	stimuli\navel\navel_06s.jpg	5	-1	1	0	navel_06s.jpg	0	0	0	137.247389718423	137.297368641122	0.0499789226996654
144042	50	401	0	0	recliner	1294	92	1	stimuli\recliner\recliner_09s.jpg	8	-1	1	0	recliner_09s.jpg	0	0	0	137.347373163782	137.397367934076	0.0499947702937789
144142	50	402	0	0	cellphone	293	93	1	stimuli\cellphone\cellphone_05s.jpg	4	-1	1	0	cellphone_05s.jpg	0	0	0	137.447377332917	137.497372103213	0.0499947702955978
144242	50	403	0	0	lampshade	893	94	1	stimuli\lampshade\lampshade_04s.jpg	3	-1	1	0	lampshade_04s.jpg	0	0	0	137.547396130603	137.597374078066	0.0499779474630486
144342	50	404	0	0	buggy	213	95	1	stimuli\buggy\buggy_03s.jpg	2	-1	1	0	buggy_03s.jpg	0	0	0	137.647379088345	137.697378491011	0.0499994026667991
144442	50	405	0	0	rudder	1339	96	1	stimuli\rudder\rudder_11s.jpg	10	-1	1	0	rudder_11s.jpg	0	0	0	137.747399592692	137.797381441102	0.0499818484095158
144542	50	406	0	0	rake	1281	97	1	stimuli\rake\rake_01b.jpg	0	-1	1	0	rake_01b.jpg	0	0	0	137.84738620757	137.897368055981	0.0499818484113348
144642	50	407	0	0	duct	527	98	1	stimuli\duct\duct_05s.jpg	4	-1	1	0	duct_05s.jpg	0	0	0	137.947401591928	137.997386853665	0.0499852617376746
144742	50	408	0	0	diaper	485	99	1	stimuli\diaper\diaper_01b.jpg	0	-1	1	0	diaper_01b.jpg	0	0	0	138.047386012524	138.097356401904	0.0499703893801779
144842	50	409	0	0	cross	443	100	1	stimuli\cross\cross_07s.jpg	6	-1	1	0	cross_07s.jpg	0	0	0	138.147376528348	138.197361058657	0.0499845303093025
144942	50	410	0	0	cream	436	101	1	stimuli\cream\cream_01b.jpg	0	-1	1	0	cream_01b.jpg	0	0	0	138.247391181278	138.297364496368	0.0499733150900283
145042	50	411	0	0	paper_towel	1115	102	1	stimuli\paper_towel\paper_towel_04s.jpg	3	-1	1	0	paper_towel_04s.jpg	0	0	0	138.347383647575	138.397361838848	0.0499781912731123
145142	50	412	0	0	hash	756	103	1	stimuli\hash\hash_09s.jpg	8	-1	1	0	hash_09s.jpg	0	0	0	138.447384647192	138.497371127976	0.0499864807843551
145242	50	413	0	0	skeleton	1450	104	1	stimuli\skeleton\skeleton_06s.jpg	5	-1	1	0	skeleton_06s.jpg	0	0	0	138.547394911557	138.597371639975	0.0499767284181871
145342	50	414	0	0	headscarf	768	105	1	stimuli\headscarf\headscarf_06s.jpg	5	-1	1	0	headscarf_06s.jpg	0	0	0	138.647392010229	138.697374102447	0.0499820922177605
145442	50	415	0	0	electric_chair	553	106	1	stimuli\electric_chair\electric_chair_02s.jpg	1	-1	1	0	electric_chair_02s.jpg	0	0	0	138.747395691746	138.797376564919	0.049980873172899
145542	50	416	0	0	bone	161	107	1	stimuli\bone\bone_09s.jpg	8	-1	1	0	bone_09s.jpg	0	0	0	138.847395228509	138.897377564537	0.0499823360278242
145642	50	417	0	0	football_helmet	630	108	1	stimuli\football_helmet\football_helmet_12s.jpg	11	-1	1	0	football_helmet_12s.jpg	0	0	0	138.947396715745	138.997372712734	0.049975996989815
145742	50	418	0	0	inhaler	828	109	1	stimuli\inhaler\inhaler_06s.jpg	5	-1	1	0	inhaler_06s.jpg	0	0	0	139.047418195329	139.097410039914	0.0499918445857475
145842	50	419	0	0	roller	1324	110	1	stimuli\roller\roller_03s.jpg	2	-1	1	0	roller_03s.jpg	0	0	0	139.147418219711	139.197392266227	0.0499740465165814
145942	50	420	0	0	cornucopia	416	111	1	stimuli\cornucopia\cornucopia_05s.jpg	4	-1	1	0	cornucopia_05s.jpg	0	0	0	139.247404834588	139.297388145853	0.049983311264441
146042	50	421	0	0	traffic_light	1696	112	1	stimuli\traffic_light\traffic_light_08s.jpg	7	-1	1	0	traffic_light_08s.jpg	0	0	0	139.347408516107	139.397387926425	0.0499794103179738
146142	50	422	0	0	syringe	1604	113	1	stimuli\syringe\syringe_12s.jpg	11	-1	1	0	syringe_12s.jpg	0	0	0	139.44744754995	139.497404286018	0.0499567360675428
146242	50	423	0	0	barbell	72	114	1	stimuli\barbell\barbell_05s.jpg	4	-1	1	0	barbell_05s.jpg	0	0	0	139.547416854379	139.597398702788	0.0499818484095158
146342	50	424	0	0	piano	1165	115	1	stimuli\piano\piano_05n.jpg	4	-1	1	0	piano_05n.jpg	0	0	0	139.647420779705	139.697430178549	0.0500093988430308
146442	50	425	0	0	pizza	1192	116	1	stimuli\pizza\pizza_10s.jpg	9	-1	1	0	pizza_10s.jpg	0	0	0	139.747447866901	139.797428008647	0.0499801417463459
146542	50	426	0	0	bike	123	117	1	stimuli\bike\bike_07s.jpg	6	-1	1	0	bike_07s.jpg	0	0	0	139.847453986511	139.897418280663	0.0499642941522325
146642	50	427	0	0	guardrail	720	118	1	stimuli\guardrail\guardrail_10s.jpg	9	-1	1	0	guardrail_10s.jpg	0	0	0	139.947456692793	139.997439272629	0.0499825798360689
146742	50	428	0	0	scooter	1382	119	1	stimuli\scooter\scooter_04s.jpg	3	-1	1	0	scooter_04s.jpg	0	0	0	140.047429898168	140.097411015151	0.0499811169829627
146842	50	429	0	0	root	1331	120	1	stimuli\root\root_10s.jpg	9	-1	1	0	root_10s.jpg	0	0	0	140.147431873022	140.197414209049	0.0499823360278242
146942	50	430	0	0	mistletoe	1007	121	1	stimuli\mistletoe\mistletoe_09s.jpg	8	-1	1	0	mistletoe_09s.jpg	0	0	0	140.24743531073	140.297416183905	0.049980873174718
147042	50	431	0	0	incubator	827	122	1	stimuli\incubator\incubator_12s.jpg	11	-1	1	0	incubator_12s.jpg	1	0	0	140.347437529394	140.397416452093	0.0499789226996654
147142	50	432	0	0	keg	866	123	1	stimuli\keg\keg_06s.jpg	5	-1	1	0	keg_06s.jpg	0	0	0	140.447438041394	140.4974545107	0.0500164693057741
147242	50	433	0	0	pug	1249	124	1	stimuli\pug\pug_12s.jpg	11	-1	1	0	pug_12s.jpg	0	0	0	140.547470004771	140.597425034175	0.0499550294043729
147342	50	434	0	0	dumbwaiter	531	125	1	stimuli\dumbwaiter\dumbwaiter_10s.jpg	9	-1	1	0	dumbwaiter_10s.jpg	0	0	0	140.647443697766	140.697421645229	0.0499779474630486
147442	50	435	0	0	shawl	1411	126	1	stimuli\shawl\shawl_12s.jpg	11	-1	1	0	shawl_12s.jpg	0	0	0	140.747480293518	140.797430690547	0.0499503970295336
147542	50	436	0	0	flower	619	127	1	stimuli\flower\flower_01b.jpg	0	-1	1	0	flower_01b.jpg	0	0	0	140.84744886652	140.897431446356	0.0499825798360689
147642	50	437	0	0	taco	1613	128	1	stimuli\taco\taco_02s.jpg	1	-1	1	0	taco_02s.jpg	0	0	0	140.947453279465	140.997437078348	0.0499837988827494
147742	50	438	0	0	chinchilla	332	129	1	stimuli\chinchilla\chinchilla_06s.jpg	5	-1	1	0	chinchilla_06s.jpg	0	0	0	141.047460130501	141.09743685892	0.0499767284181871
147842	50	439	0	0	jewel	849	130	1	stimuli\jewel\jewel_09s.jpg	8	-1	1	0	jewel_09s.jpg	0	0	0	141.147459667263	141.197463458497	0.0500037912333937
147943	50	440	0	0	sifter	1443	131	1	stimuli\sifter\sifter_12s.jpg	11	-1	1	0	sifter_12s.jpg	0	0	0	141.247487485887	141.297449829564	0.0499623436771799
148043	50	441	0	0	collar	387	132	1	stimuli\collar\collar_03s.jpg	2	-1	1	0	collar_03s.jpg	0	0	0	141.347472150292	141.397468139632	0.0499959893404593
148143	50	442	0	0	cow	426	133	1	stimuli\cow\cow_04s.jpg	3	-1	1	0	cow_04s.jpg	0	0	0	141.447491435594	141.497447927854	0.0499564922592981
148242	50	443	0	0	hammock	742	134	1	stimuli\hammock\hammock_08s.jpg	7	-1	1	0	hammock_08s.jpg	0	0	0	141.547463909543	141.597443319861	0.0499794103179738
148342	50	444	0	0	cookie_cutter	401	135	1	stimuli\cookie_cutter\cookie_cutter_06s.jpg	5	-1	1	0	cookie_cutter_06s.jpg	0	0	0	141.647468322488	141.697482353704	0.0500140312160511
148442	50	445	0	0	dalmatian	471	136	1	stimuli\dalmatian\dalmatian_01b.jpg	0	-1	1	0	dalmatian_01b.jpg	0	0	0	141.747475173524	141.797447757188	0.0499725836634752
148543	50	446	0	0	recorder	1297	137	1	stimuli\recorder\recorder_01b.jpg	0	-1	1	0	recorder_01b.jpg	0	0	0	141.847472516005	141.89745290156	0.0499803855545906
148643	50	447	0	0	highchair	777	138	1	stimuli\highchair\highchair_12s.jpg	11	-1	1	0	highchair_12s.jpg	0	0	0	141.947475222287	141.997458045933	0.0499828236461326
148743	50	448	0	0	blowfish	146	139	1	stimuli\blowfish\blowfish_12s.jpg	11	-1	1	0	blowfish_12s.jpg	0	0	0	142.04747719714	142.097455388413	0.0499781912731123
148843	50	449	0	0	tostada	1688	140	1	stimuli\tostada\tostada_04s.jpg	3	-1	1	0	tostada_04s.jpg	0	0	0	142.147478684377	142.197459801358	0.0499811169811437
148942	50	450	0	0	salami	1349	141	1	stimuli\salami\salami_02s.jpg	1	-1	1	0	salami_02s.jpg	0	0	0	142.247475051619	142.2974907895	0.05001573788104
149043	50	451	0	0	coop	404	142	1	stimuli\coop\coop_02s.jpg	1	-1	1	0	coop_02s.jpg	0	0	0	142.347498237868	142.397490082454	0.0499918445857475
149143	50	452	0	0	gun	727	143	1	stimuli\gun\gun_09s.jpg	8	-1	1	0	gun_09s.jpg	0	0	0	142.447524106019	142.497503272529	0.0499791665097291
149243	50	453	0	0	motorcycle	1025	144	1	stimuli\motorcycle\motorcycle_09s.jpg	8	-1	1	1	motorcycle_09s.jpg	0	0	0	142.547518766598	142.597482816942	0.0499640503439878
149343	50	454	0	0	candy_bar	256	145	1	stimuli\candy_bar\candy_bar_06s.jpg	5	-1	1	0	candy_bar_06s.jpg	0	0	0	142.647497335776	142.697477233713	0.0499798979362822
149443	50	455	0	0	plastic_film	1196	146	1	stimuli\plastic_film\plastic_film_09s.jpg	8	-1	1	0	plastic_film_09s.jpg	0	0	0	142.747525642017	142.797515536127	0.0499898941106949
149543	50	456	0	0	medal	991	147	1	stimuli\medal\medal_02s.jpg	1	-1	1	0	medal_02s.jpg	1	0.341893797227385	1	142.847507136903	142.897476551047	0.0499694141435612
149643	50	457	0	0	lavender	904	148	1	stimuli\lavender\lavender_08s.jpg	7	-1	1	0	lavender_08s.jpg	0	0	0	142.947533005052	142.997510221088	0.0499772160364955
149743	50	458	0	0	roll	1323	149	1	stimuli\roll\roll_02s.jpg	1	-1	1	0	roll_02s.jpg	0	0	0	143.047535223715	143.097511952134	0.0499767284181871
149843	50	459	0	0	bowling_ball	179	150	1	stimuli\bowling_ball\bowling_ball_12s.jpg	11	-1	1	0	bowling_ball_12s.jpg	0	0	0	143.147531834768	143.197490765118	0.0499589303508401
149943	50	460	0	0	car_door	268	151	1	stimuli\car_door\car_door_04s.jpg	3	-1	1	0	car_door_04s.jpg	0	0	0	143.247511622991	143.297508343758	0.0499967207670124
150043	50	461	0	0	soldering_iron	1494	152	1	stimuli\soldering_iron\soldering_iron_02s.jpg	1	-1	1	0	soldering_iron_02s.jpg	0	0	0	143.347532371148	143.397511293848	0.0499789226996654
150143	50	462	0	0	sponge	1517	153	1	stimuli\sponge\sponge_02s.jpg	1	-1	1	0	sponge_02s.jpg	0	0	0	143.447516060318	143.497492301116	0.0499762407980597
150243	50	463	0	0	hotplate	806	154	1	stimuli\hotplate\hotplate_04s.jpg	3	-1	1	0	hotplate_04s.jpg	0	0	0	143.547511696133	143.597508173092	0.0499964769587677
150343	50	464	0	0	cushion	466	155	1	stimuli\cushion\cushion_11s.jpg	10	-1	1	0	cushion_11s.jpg	0	0	0	143.647543659512	143.697522826022	0.0499791665097291
150443	50	465	0	0	wine_bottle	1824	156	1	stimuli\wine_bottle\wine_bottle_07s.jpg	6	-1	1	0	wine_bottle_07s.jpg	0	0	0	143.747547828647	143.797524557065	0.0499767284181871
150543	50	466	0	0	helicopter	775	157	1	stimuli\helicopter\helicopter_12s.jpg	11	-1	1	0	helicopter_12s.jpg	0	0	0	143.847532980672	143.897507514806	0.0499745341348898
150643	50	467	0	0	memory_stick	995	158	1	stimuli\memory_stick\memory_stick_06s.jpg	5	-1	1	0	memory_stick_06s.jpg	0	0	0	143.947557142157	143.99753240772	0.0499752655632619
150743	50	468	0	0	goblet	685	159	1	stimuli\goblet\goblet_10s.jpg	9	-1	1	0	goblet_10s.jpg	0	0	0	144.047540099898	144.097523167353	0.0499830674543773
150843	50	469	0	0	waffle_iron	1771	160	1	stimuli\waffle_iron\waffle_iron_02s.jpg	1	-1	1	0	waffle_iron_02s.jpg	0	0	0	144.147558897583	144.19752465459	0.0499657570071577
150943	50	470	0	0	gel	669	161	1	stimuli\gel\gel_03s.jpg	2	-1	1	0	gel_03s.jpg	0	0	0	144.247565748619	144.297543939892	0.0499781912731123
151043	50	471	0	0	honeypot	790	162	1	stimuli\honeypot\honeypot_10s.jpg	9	-1	1	0	honeypot_10s.jpg	0	0	0	144.347564310145	144.39752787287	0.0499635627256794
151143	50	472	0	0	credit_card	438	163	1	stimuli\credit_card\credit_card_07s.jpg	6	-1	1	0	credit_card_07s.jpg	0	0	0	144.447548730741	144.497545451508	0.0499967207670124
151243	50	473	0	0	clipboard	355	164	1	stimuli\clipboard\clipboard_05s.jpg	4	-1	1	0	clipboard_05s.jpg	0	0	0	144.547567040809	144.597533041624	0.0499660008154024
151343	50	474	0	0	snack	1475	165	1	stimuli\snack\snack_10s.jpg	9	-1	1	0	snack_10s.jpg	0	0	0	144.647553168068	144.69755720311	0.0500040350416384
151443	50	475	0	0	anklet	23	166	1	stimuli\anklet\anklet_01b.jpg	0	-1	1	0	anklet_01b.jpg	0	0	0	144.747576598125	144.797555033208	0.049978435083176
151543	50	476	0	0	mantle	969	167	1	stimuli\mantle\mantle_01s.jpg	0	-1	1	0	mantle_01s.jpg	0	0	0	144.847545902556	144.897528482392	0.0499825798360689
151643	50	477	0	0	briefcase	200	168	1	stimuli\briefcase\briefcase_08s.jpg	7	-1	1	0	briefcase_08s.jpg	0	0	0	144.947551046929	144.997534602002	0.0499835550726857
151743	50	478	0	0	iron	832	169	1	stimuli\iron\iron_03s.jpg	2	-1	1	0	iron_03s.jpg	0	0	0	145.047565212239	145.097564858715	0.0499996464768628
151843	50	479	0	0	rope	1332	170	1	stimuli\rope\rope_04s.jpg	3	-1	1	0	rope_04s.jpg	0	0	0	145.147568162331	145.197562201196	0.0499940388654068
151943	50	480	0	0	measuring_cup	986	171	1	stimuli\measuring_cup\measuring_cup_12s.jpg	11	-1	1	0	measuring_cup_12s.jpg	0	0	0	145.247587935251	145.297564907478	0.0499769722264318
152043	50	481	0	0	broom	203	172	1	stimuli\broom\broom_02s.jpg	1	-1	1	0	broom_02s.jpg	0	0	0	145.347586740587	145.397568832805	0.0499820922177605
152143	50	482	0	0	swizzle_stick	1601	173	1	stimuli\swizzle_stick\swizzle_stick_05s.jpg	4	-1	1	0	swizzle_stick_05s.jpg	0	0	0	145.447588959249	145.497552765783	0.0499638065339241
152243	50	483	0	0	monkey	1017	174	1	stimuli\monkey\monkey_12s.jpg	11	-1	1	0	monkey_12s.jpg	0	0	0	145.547569722708	145.597549376836	0.0499796541280375
152343	50	484	0	0	bamboo	62	175	1	stimuli\bamboo\bamboo_02s.jpg	1	-1	1	0	bamboo_02s.jpg	0	0	0	145.647593640384	145.6975542774	0.049960637015829
152443	50	485	0	0	earwig	541	176	1	stimuli\earwig\earwig_10n.jpg	9	-1	1	0	earwig_10n.jpg	0	0	0	145.747574647652	145.79754845036	0.0499738027083367
152543	50	486	0	0	walker2	1774	177	1	stimuli\walker2\walker2_05s.jpg	4	-1	1	0	walker2_05s.jpg	0	0	0	145.847574184416	145.897584070875	0.0500098864595202
152643	50	487	0	0	canvas	264	178	1	stimuli\canvas\canvas_05s.jpg	4	-1	1	0	canvas_05s.jpg	0	0	0	145.947608585884	145.997586533349	0.0499779474648676
152743	50	488	0	0	cord	407	179	1	stimuli\cord\cord_09s.jpg	8	-1	1	0	cord_09s.jpg	0	0	0	146.047607147411	146.09756949109	0.0499623436789989
152843	50	489	0	0	chick	321	180	1	stimuli\chick\chick_04s.jpg	3	-1	1	0	chick_04s.jpg	0	0	0	146.147595956572	146.197590970674	0.0499950141020236
152943	50	490	0	0	duck	525	181	1	stimuli\duck\duck_05s.jpg	4	-1	1	0	duck_05s.jpg	0	0	0	146.247599150471	146.297560275105	0.0499611246341374
153043	50	491	0	0	chair	300	182	1	stimuli\chair\chair_03s.jpg	2	-1	1	0	chair_03s.jpg	0	0	0	146.347580645357	146.397562249958	0.0499816046012711
153143	50	492	0	0	barcode	73	183	1	stimuli\barcode\barcode_06s.jpg	5	-1	1	0	barcode_06s.jpg	0	0	0	146.447618216345	146.4975986019	0.0499803855545906
153243	50	493	0	0	candlestick	254	184	1	stimuli\candlestick\candlestick_11s.jpg	10	-1	1	0	candlestick_11s.jpg	0	0	0	146.547601661705	146.597583022496	0.0499813607912074
153343	50	494	0	0	firetruck	596	185	1	stimuli\firetruck\firetruck_10s.jpg	9	-1	1	0	firetruck_10s.jpg	0	0	0	146.647622897481	146.697599138281	0.0499762407998787
153443	50	495	0	0	lava	903	186	1	stimuli\lava\lava_11s.jpg	10	-1	1	0	lava_11s.jpg	0	0	0	146.747622921863	146.797605014081	0.0499820922177605
153543	50	496	0	0	tuning_fork	1728	187	1	stimuli\tuning_fork\tuning_fork_03s.jpg	2	-1	1	0	tuning_fork_03s.jpg	0	0	0	146.847609292932	146.897581388976	0.0499720960433478
153643	50	497	0	0	stained_glass	1531	188	1	stimuli\stained_glass\stained_glass_02s.jpg	1	-1	1	0	stained_glass_02s.jpg	0	0	0	146.947604928748	146.997584826684	0.0499798979362822
153743	50	498	0	0	flagpole	606	189	1	stimuli\flagpole\flagpole_09s.jpg	8	-1	1	0	flagpole_09s.jpg	0	0	0	147.047605440746	147.097585582493	0.0499801417463459
153843	50	499	0	0	punch1	1254	190	1	stimuli\punch1\punch1_10s.jpg	9	-1	1	0	punch1_10s.jpg	0	0	0	147.147611804165	147.197589995438	0.0499781912731123
153943	50	500	0	0	seagull	1395	191	1	stimuli\seagull\seagull_09s.jpg	8	-1	1	0	seagull_09s.jpg	0	0	0	147.247637916123	147.297600015994	0.0499620998707542
154043	50	501	0	0	dumpling	532	192	1	stimuli\dumpling\dumpling_09s.jpg	8	-1	1	0	dumpling_09s.jpg	0	0	0	147.347637940506	147.397628566043	0.049990625537248
154143	50	502	0	0	outlet	1088	193	1	stimuli\outlet\outlet_07s.jpg	6	-1	1	0	outlet_07s.jpg	0	0	0	147.447622117292	147.497594944763	0.0499728274717199
154243	50	503	0	0	fountain_pen	637	194	1	stimuli\fountain_pen\fountain_pen_08s.jpg	7	-1	1	0	fountain_pen_08s.jpg	0	0	0	147.547611657879	147.597594725336	0.0499830674561963
154343	50	504	0	0	roller_coaster	1325	195	1	stimuli\roller_coaster\roller_coaster_04s.jpg	3	-1	1	0	roller_coaster_04s.jpg	0	0	0	147.647619727963	147.697597187807	0.0499774598447402
154443	50	505	0	0	scraper	1387	196	1	stimuli\scraper\scraper_10s.jpg	9	-1	1	0	scraper_10s.jpg	0	0	0	147.747651935149	147.797613303592	0.0499613684423821
154543	50	506	0	0	nightstand	1059	197	1	stimuli\nightstand\nightstand_02s.jpg	1	-1	1	0	nightstand_02s.jpg	0	0	0	147.847648302393	147.897634539368	0.0499862369742914
154643	50	507	0	0	typewriter	1741	198	1	stimuli\typewriter\typewriter_11s.jpg	10	-1	1	0	typewriter_11s.jpg	0	0	0	147.947640768691	147.997608963789	0.0499681950986997
154743	50	508	0	0	pepperoni	1153	199	1	stimuli\pepperoni\pepperoni_07s.jpg	6	-1	1	0	pepperoni_07s.jpg	0	0	0	148.047627871189	148.097609719598	0.0499818484095158
154843	50	509	0	0	bank	69	200	1	stimuli\bank\bank_08s.jpg	7	-1	1	0	bank_08s.jpg	0	0	0	148.147660809802	148.19764338964	0.0499825798378879
154943	50	510	0	0	rollerblade	1326	201	1	stimuli\rollerblade\rollerblade_03s.jpg	2	-1	1	0	rollerblade_03s.jpg	0	0	0	148.247643767543	148.297640244502	0.0499964769587677
155043	50	511	0	0	banana	63	202	1	stimuli\banana\banana_05s.jpg	4	-1	1	0	banana_05s.jpg	0	0	0	148.347664271892	148.397644413637	0.0499801417445269
155143	50	512	0	0	submarine	1577	203	1	stimuli\submarine\submarine_01b.jpg	0	-1	1	0	submarine_01b.jpg	0	0	0	148.447652593433	148.497623226624	0.0499706331902416
155243	50	513	0	0	steering_wheel	1546	204	1	stimuli\steering_wheel\steering_wheel_08s.jpg	7	-1	1	0	steering_wheel_08s.jpg	0	0	0	148.547642621641	148.597622519577	0.0499798979362822
155343	50	514	0	0	spareribs	1505	205	1	stimuli\spareribs\spareribs_02s.jpg	1	-1	1	0	spareribs_02s.jpg	0	0	0	148.647650935533	148.697626688714	0.0499757531815703
155443	50	515	0	0	pump	1252	206	1	stimuli\pump\pump_05s.jpg	4	-1	1	0	pump_05s.jpg	0	0	0	148.747650716105	148.797626225476	0.0499755093715066
155543	50	516	0	0	sewage	1405	207	1	stimuli\sewage\sewage_09s.jpg	8	-1	1	0	sewage_09s.jpg	0	0	0	148.847647570967	148.897630150803	0.0499825798360689
155643	50	517	0	0	beer	113	208	1	stimuli\beer\beer_08s.jpg	7	-1	1	0	beer_08s.jpg	0	0	0	148.9476836791	148.997638464694	0.0499547855943092
155743	50	518	0	0	exhaust_pipe	562	209	1	stimuli\exhaust_pipe\exhaust_pipe_10s.jpg	9	-1	1	0	exhaust_pipe_10s.jpg	0	0	0	149.04765517781	149.09763751384	0.0499823360296432
155843	50	519	0	0	fishing_pole	603	210	1	stimuli\fishing_pole\fishing_pole_06s.jpg	5	-1	1	0	fishing_pole_06s.jpg	0	0	0	149.147660322184	149.19766289437	0.0500025721867132
155943	50	520	0	0	quesadilla	1261	211	1	stimuli\quesadilla\quesadilla_08s.jpg	7	-1	1	0	quesadilla_08s.jpg	0	0	0	149.247685458906	149.297668526362	0.0499830674561963
156043	50	521	0	0	guacamole	719	212	1	stimuli\guacamole\guacamole_07s.jpg	6	-1	1	0	guacamole_07s.jpg	0	0	0	149.347690115661	149.397670988834	0.049980873172899
156143	50	522	0	0	scallop	1373	213	1	stimuli\scallop\scallop_07s.jpg	6	-1	1	0	scallop_07s.jpg	0	0	0	149.447690383851	149.497672476069	0.0499820922177605
156243	50	523	0	0	trampoline	1701	214	1	stimuli\trampoline\trampoline_03s.jpg	2	-1	1	0	trampoline_03s.jpg	0	0	0	149.547679436821	149.597673231878	0.0499937950571621
156343	50	524	0	0	mouse1	1026	215	1	stimuli\mouse1\mouse1_09s.jpg	8	-1	1	0	mouse1_09s.jpg	0	0	0	149.647676047873	149.697654970574	0.0499789227014844
156443	50	525	0	0	bun	220	216	1	stimuli\bun\bun_04s.jpg	3	-1	1	1	bun_04s.jpg	0	0	0	149.747675584636	149.797652800671	0.0499772160346765
156543	50	526	0	0	bathmat	89	217	1	stimuli\bathmat\bathmat_06s.jpg	5	-1	1	0	bathmat_06s.jpg	0	0	0	149.847674389972	149.897658676473	0.0499842865010578
156643	50	527	0	0	hay	761	218	1	stimuli\hay\hay_10s.jpg	9	-1	1	0	hay_10s.jpg	0	0	0	149.947676852444	149.997658213235	0.0499813607912074
156743	50	528	0	0	snowball	1480	219	1	stimuli\snowball\snowball_07s.jpg	6	-1	1	0	snowball_07s.jpg	0	0	0	150.047685897762	150.097661163325	0.0499752655632619
156843	50	529	0	0	mask	980	220	1	stimuli\mask\mask_01b.jpg	0	-1	1	0	mask_01b.jpg	1	0.392150662342829	1	150.147684946907	150.197663869607	0.0499789226996654
156943	50	530	0	0	lemon	914	221	1	stimuli\lemon\lemon_08s.jpg	7	-1	1	0	lemon_08s.jpg	0	0	0	150.247684239861	150.297662674942	0.049978435081357
157043	50	531	0	0	gingerbread_man	674	222	1	stimuli\gingerbread_man\gingerbread_man_05s.jpg	4	-1	1	0	gingerbread_man_05s.jpg	0	0	0	150.347684264241	150.397665868843	0.0499816046012711
157143	50	532	0	0	scissors	1379	223	1	stimuli\scissors\scissors_04s.jpg	3	-1	1	0	scissors_04s.jpg	0	0	0	150.447719153328	150.497668818933	0.0499496656047995
157243	50	533	0	0	hanger	751	224	1	stimuli\hanger\hanger_12s.jpg	11	-1	1	0	hanger_12s.jpg	0	0	0	150.54768772633	150.597673719496	0.0499859931660467
157343	50	534	0	0	crucifix	449	225	1	stimuli\crucifix\crucifix_07s.jpg	6	-1	1	0	crucifix_07s.jpg	0	0	0	150.647697990695	150.697675450541	0.0499774598465592
157443	50	535	0	0	switch	1600	226	1	stimuli\switch\switch_02s.jpg	1	-1	1	0	switch_02s.jpg	0	0	0	150.747693626512	150.797672793022	0.0499791665097291
157543	50	536	0	0	pot	1230	227	1	stimuli\pot\pot_09s.jpg	8	-1	1	0	pot_09s.jpg	0	0	0	150.847694138511	150.897677449775	0.049983311264441
157643	50	537	0	0	cabbage	232	228	1	stimuli\cabbage\cabbage_08s.jpg	7	-1	1	0	cabbage_08s.jpg	0	0	0	150.947701233357	150.997680887485	0.0499796541280375
157743	50	538	0	0	grenade	713	229	1	stimuli\grenade\grenade_10s.jpg	9	-1	1	0	grenade_10s.jpg	0	0	0	151.047703208211	151.097684081384	0.049980873172899
157843	50	539	0	0	tape_measure	1623	230	1	stimuli\tape_measure\tape_measure_12s.jpg	11	-1	1	0	tape_measure_12s.jpg	0	0	0	151.147702501165	151.197689713375	0.0499872122109082
157943	50	540	0	0	sled	1460	231	1	stimuli\sled\sled_06s.jpg	5	-1	1	0	sled_06s.jpg	0	0	0	151.247712521721	151.297690956802	0.049978435081357
158043	50	541	0	0	hobbyhorse	782	232	1	stimuli\hobbyhorse\hobbyhorse_09s.jpg	8	-1	1	0	hobbyhorse_09s.jpg	0	0	0	151.34771303372	151.397722920179	0.0500098864595202
158143	50	542	0	0	cactus	235	233	1	stimuli\cactus\cactus_11s.jpg	10	-1	1	0	cactus_11s.jpg	0	0	0	151.44771598381	151.497691493181	0.0499755093715066
158243	50	543	0	0	pulpit	1251	234	1	stimuli\pulpit\pulpit_05s.jpg	4	-1	1	0	pulpit_05s.jpg	0	0	0	151.5477135701	151.597699075646	0.0499855055459193
158343	50	544	0	0	pencil	1142	235	1	stimuli\pencil\pencil_08s.jpg	7	-1	1	0	pencil_08s.jpg	0	0	0	151.647721640182	151.697705195256	0.0499835550745047
158443	50	545	0	0	bongo	162	236	1	stimuli\bongo\bongo_12s.jpg	11	-1	1	1	bongo_12s.jpg	0	0	0	151.747721420754	151.797703269163	0.0499818484095158
158543	50	546	0	0	basketball	83	237	1	stimuli\basketball\basketball_09s.jpg	8	-1	1	0	basketball_09s.jpg	0	0	0	151.847722664181	151.897739377297	0.0500167131158378
158643	50	547	0	0	hot-water_bottle	802	238	1	stimuli\hot-water_bottle\hot-water_bottle_04s.jpg	3	-1	1	0	hot-water_bottle_04s.jpg	0	0	0	151.947752433276	151.997732087404	0.0499796541280375
158743	50	548	0	0	burner	224	239	1	stimuli\burner\burner_05s.jpg	4	-1	1	0	burner_05s.jpg	0	0	0	152.047752945275	152.09771894609	0.0499660008154024
158843	50	549	0	0	loincloth	944	240	1	stimuli\loincloth\loincloth_04s.jpg	3	-1	1	0	loincloth_04s.jpg	0	0	0	152.147734927779	152.197710437153	0.0499755093733256
158943	50	550	0	0	cement_mixer	294	241	1	stimuli\cement_mixer\cement_mixer_09s.jpg	8	-1	1	0	cement_mixer_09s.jpg	0	0	0	152.247732757878	152.297715825334	0.0499830674561963
159043	50	551	0	0	cooler	403	242	1	stimuli\cooler\cooler_06s.jpg	5	-1	1	0	cooler_06s.jpg	0	0	0	152.347731563214	152.397746082048	0.0500145188343595
159143	50	552	0	0	parrot	1121	243	1	stimuli\parrot\parrot_03s.jpg	2	-1	1	0	parrot_03s.jpg	0	0	0	152.447741827578	152.497719043615	0.0499772160364955
159243	50	553	0	0	sticker	1553	244	1	stimuli\sticker\sticker_12s.jpg	11	-1	1	0	sticker_12s.jpg	0	0	0	152.547737951014	152.597709315631	0.0499713646167947
159343	50	554	0	0	batter	96	245	1	stimuli\batter\batter_04s.jpg	3	-1	1	0	batter_04s.jpg	0	0	0	152.647780641993	152.697751518992	0.0499708769984863
159443	50	555	0	0	eggnog	549	246	1	stimuli\eggnog\eggnog_03s.jpg	2	-1	1	0	eggnog_03s.jpg	0	0	0	152.74775921117	152.797739109106	0.0499798979362822
159543	50	556	0	0	armor	37	247	1	stimuli\armor\armor_01b.jpg	0	-1	1	0	armor_01b.jpg	0	0	0	152.847774107908	152.897756200127	0.0499820922195795
159643	50	557	0	0	police_car	1214	248	1	stimuli\police_car\police_car_07s.jpg	6	-1	1	0	police_car_07s.jpg	0	0	0	152.947779739899	152.997741108342	0.0499613684423821
159743	50	558	0	0	bulletin_board	217	249	1	stimuli\bulletin_board\bulletin_board_03s.jpg	2	-1	1	0	bulletin_board_03s.jpg	0	0	0	153.047764404304	153.097744058432	0.0499796541280375
159843	50	559	0	0	breadstick	196	250	1	stimuli\breadstick\breadstick_11s.jpg	10	-1	1	0	breadstick_11s.jpg	0	0	0	153.147783689607	153.197753103752	0.0499694141453801
159943	50	560	0	0	catfish	287	251	1	stimuli\catfish\catfish_09s.jpg	8	-1	1	0	catfish_09s.jpg	0	0	0	153.247768841631	153.297736549112	0.0499677074803913
160043	50	561	0	0	marijuana	974	252	1	stimuli\marijuana\marijuana_10s.jpg	9	-1	1	0	marijuana_10s.jpg	0	0	0	153.347756431745	153.397772169626	0.05001573788104
160143	50	562	0	0	crumb	451	253	1	stimuli\crumb\crumb_09s.jpg	8	-1	1	0	crumb_09s.jpg	0	0	0	153.447764745637	153.497743668337	0.0499789226996654
160243	50	563	0	0	footprint	632	254	1	stimuli\footprint\footprint_01b.jpg	0	-1	1	0	footprint_01b.jpg	0	0	0	153.547763550972	153.597744667955	0.0499811169829627
160343	50	564	0	0	flipper	615	255	1	stimuli\flipper\flipper_01b.jpg	0	-1	1	0	flipper_01b.jpg	0	0	0	153.647764550589	153.697750543755	0.0499859931660467
160443	50	565	0	0	flute	620	256	1	stimuli\flute\flute_08s.jpg	7	-1	1	0	flute_08s.jpg	0	0	0	153.747771157818	153.797762270975	0.0499911131573754
160543	50	566	0	0	printer	1240	257	1	stimuli\printer\printer_07s.jpg	6	-1	1	0	printer_07s.jpg	0	0	0	153.847799707868	153.897783750559	0.0499840426909941
160643	50	567	0	0	whoopee_cushion	1814	258	1	stimuli\whoopee_cushion\whoopee_cushion_06s.jpg	5	-1	1	0	whoopee_cushion_06s.jpg	0	0	0	153.947803145576	153.997785969223	0.0499828236461326
160743	50	568	0	0	peanut	1131	259	1	stimuli\peanut\peanut_08s.jpg	7	-1	1	0	peanut_08s.jpg	0	0	0	154.047791223309	154.097785993603	0.0499947702937789
160843	50	569	0	0	aquarium	34	260	1	stimuli\aquarium\aquarium_11s.jpg	10	-1	1	0	aquarium_11s.jpg	0	0	0	154.147809289567	154.197764806589	0.0499555170226813
160943	50	570	0	0	lantern	895	261	1	stimuli\lantern\lantern_02s.jpg	1	-1	1	0	lantern_02s.jpg	0	0	0	154.247780544469	154.29775946717	0.0499789227014844
161043	50	571	0	0	box	181	262	1	stimuli\box\box_06s.jpg	5	-1	1	0	box_06s.jpg	0	0	0	154.347782519324	154.397767537252	0.0499850179276109
161143	50	572	0	0	wrap	1837	263	1	stimuli\wrap\wrap_04s.jpg	3	-1	1	0	wrap_04s.jpg	0	0	0	154.447818383647	154.497796818729	0.049978435081357
161243	50	573	0	0	air_pump	6	264	1	stimuli\air_pump\air_pump_02s.jpg	1	-1	1	0	air_pump_02s.jpg	0	0	0	154.547800366152	154.597781970753	0.0499816046012711
161343	50	574	0	0	revolver	1304	265	1	stimuli\revolver\revolver_10s.jpg	9	-1	1	0	revolver_10s.jpg	0	0	0	154.647819651454	154.697803694147	0.0499840426928131
161443	50	575	0	0	bug	212	266	1	stimuli\bug\bug_08s.jpg	7	-1	1	0	bug_08s.jpg	0	0	0	154.747821870118	154.797775924286	0.0499540541677561
161543	50	576	0	0	gearshift	668	267	1	stimuli\gearshift\gearshift_01b.jpg	0	-1	1	0	gearshift_01b.jpg	0	0	0	154.847795563112	154.897779118186	0.0499835550745047
161643	50	577	0	0	train_car	1699	268	1	stimuli\train_car\train_car_04s.jpg	3	-1	1	0	train_car_04s.jpg	0	0	0	154.94780217034	154.997794502542	0.0499923322022369
161743	50	578	0	0	gate	662	269	1	stimuli\gate\gate_08s.jpg	7	-1	1	0	gate_08s.jpg	0	0	0	155.047813166133	155.097798427869	0.0499852617358556
161843	50	579	0	0	tick	1656	270	1	stimuli\tick\tick_02s.jpg	1	-1	1	0	tick_02s.jpg	0	0	0	155.147809045759	155.19778431132	0.0499752655614429
161943	50	580	0	0	bell_pepper	117	271	1	stimuli\bell_pepper\bell_pepper_05s.jpg	4	-1	1	0	bell_pepper_05s.jpg	0	0	0	155.247809313947	155.297788968075	0.0499796541280375
162043	50	581	0	0	metronome	997	272	1	stimuli\metronome\metronome_06s.jpg	5	-1	1	0	metronome_06s.jpg	0	0	0	155.347809094519	155.397826051445	0.0500169569259015
162143	50	582	0	0	toucan	1690	273	1	stimuli\toucan\toucan_05s.jpg	4	-1	1	0	toucan_05s.jpg	0	0	0	155.447822284594	155.497792917784	0.0499706331902416
162243	50	583	0	0	paddle	1094	274	1	stimuli\paddle\paddle_04s.jpg	3	-1	1	0	paddle_04s.jpg	0	0	0	155.547810606136	155.597793673591	0.0499830674543773
162343	50	584	0	0	magnifying_glass	958	275	1	stimuli\magnifying_glass\magnifying_glass_04s.jpg	3	-1	1	0	magnifying_glass_04s.jpg	0	0	0	155.647850371406	155.697830269342	0.0499798979362822
162443	50	585	0	0	flamingo	608	276	1	stimuli\flamingo\flamingo_05s.jpg	4	-1	1	0	flamingo_05s.jpg	0	0	0	155.747845031987	155.797811032802	0.0499660008154024
162543	50	586	0	0	prune	1244	277	1	stimuli\prune\prune_08s.jpg	7	-1	1	0	prune_08s.jpg	0	0	0	155.847850176358	155.897833731433	0.0499835550745047
162643	50	587	0	0	streetlight	1571	278	1	stimuli\streetlight\streetlight_07s.jpg	6	-1	1	0	streetlight_07s.jpg	0	0	0	155.947826063635	155.997804742527	0.0499786788914207
162743	50	588	0	0	triangle	1710	279	1	stimuli\triangle\triangle_06s.jpg	5	-1	1	0	triangle_06s.jpg	0	0	0	156.047823649926	156.09780671738	0.0499830674543773
162843	50	589	0	0	speedboat	1511	280	1	stimuli\speedboat\speedboat_06s.jpg	5	-1	1	0	speedboat_06s.jpg	0	0	0	156.147863171385	156.19781868841	0.0499555170245003
162943	50	590	0	0	blower	145	281	1	stimuli\blower\blower_03s.jpg	2	-1	1	0	blower_03s.jpg	0	0	0	156.247834426289	156.297815299462	0.049980873172899
163043	50	591	0	0	garter	659	282	1	stimuli\garter\garter_01b.jpg	0	-1	1	0	garter_01b.jpg	0	0	0	156.347835182098	156.397815811461	0.0499806293628353
163143	50	592	0	0	baseball_bat	79	283	1	stimuli\baseball_bat\baseball_bat_01b.jpg	0	-1	1	0	baseball_bat_01b.jpg	0	0	0	156.447867876903	156.497850944357	0.0499830674543773
163243	50	593	0	0	quilt	1264	284	1	stimuli\quilt\quilt_05s.jpg	4	-1	1	0	quilt_05s.jpg	0	0	0	156.547850103216	156.597834145909	0.0499840426928131
163343	50	594	0	0	spring_roll	1521	285	1	stimuli\spring_roll\spring_roll_08s.jpg	7	-1	1	0	spring_roll_08s.jpg	0	0	0	156.647870607565	156.697833682671	0.049963075105552
163443	50	595	0	0	squeegee	1527	286	1	stimuli\squeegee\squeegee_01b.jpg	0	-1	1	0	squeegee_01b.jpg	0	0	0	156.747870875755	156.797835169908	0.0499642941522325
163543	50	596	0	0	toilet	1670	287	1	stimuli\toilet\toilet_06s.jpg	5	-1	1	0	toilet_06s.jpg	0	0	0	156.84785846587	156.89785713711	0.049998671240246
163643	50	597	0	0	touchpad	1691	288	1	stimuli\touchpad\touchpad_10s.jpg	9	-1	1	0	touchpad_10s.jpg	0	0	0	156.947878726409	156.99786033101	0.0499816046012711
163743	50	598	0	0	toothpaste	1680	289	1	stimuli\toothpaste\toothpaste_06s.jpg	5	-1	1	0	toothpaste_06s.jpg	0	0	0	157.04787021747	157.097861086819	0.0499908693491307
163843	50	599	0	0	bungee	221	290	1	stimuli\bungee\bungee_11s.jpg	10	-1	1	0	bungee_11s.jpg	0	0	0	157.147866340905	157.197844775987	0.049978435081357
163943	50	600	0	0	hip	780	291	1	stimuli\hip\hip_08s.jpg	7	-1	1	0	hip_08s.jpg	0	0	0	157.247859051011	157.297840167994	0.0499811169829627
164043	50	601	0	0	beetle	115	292	1	stimuli\beetle\beetle_04s.jpg	3	-1	1	0	beetle_04s.jpg	0	0	0	157.347862001103	157.397841655229	0.0499796541262185
164143	50	602	0	0	milkshake	1002	293	1	stimuli\milkshake\milkshake_11s.jpg	10	-1	1	0	milkshake_11s.jpg	0	0	0	157.447864951193	157.497846555794	0.0499816046012711
164243	50	603	0	0	neck	1053	294	1	stimuli\neck\neck_03s.jpg	2	-1	1	0	neck_03s.jpg	0	0	0	157.547866438428	157.597859258249	0.0499928198205453
164343	50	604	0	0	wedding_cake	1800	295	1	stimuli\wedding_cake\wedding_cake_04s.jpg	3	-1	1	0	wedding_cake_04s.jpg	0	0	0	157.647868413284	157.697850749311	0.0499823360278242
164443	50	605	0	0	jet	847	296	1	stimuli\jet\jet_10s.jpg	9	-1	1	0	jet_10s.jpg	0	0	0	157.747879652883	157.797849554647	0.0499699017636885
164543	50	606	0	0	torso	1685	297	1	stimuli\torso\torso_09s.jpg	8	-1	1	0	torso_09s.jpg	0	0	0	157.847873338227	157.897853236163	0.0499798979362822
164643	50	607	0	0	pine_tree	1181	298	1	stimuli\pine_tree\pine_tree_08s.jpg	7	-1	1	0	pine_tree_08s.jpg	0	0	0	157.947905301606	157.997889831915	0.0499845303093025
164743	50	608	0	0	dirt_bike	488	299	1	stimuli\dirt_bike\dirt_bike_08s.jpg	7	-1	1	0	dirt_bike_08s.jpg	0	0	0	158.047909714551	158.097895220097	0.0499855055459193
164843	50	609	0	0	peppermint	1152	300	1	stimuli\peppermint\peppermint_11s.jpg	10	-1	1	0	peppermint_11s.jpg	0	0	0	158.147891940864	158.197859160726	0.0499672198620829
164943	50	610	0	0	soccer_ball	1488	301	1	stimuli\soccer_ball\soccer_ball_07s.jpg	6	-1	1	0	soccer_ball_07s.jpg	0	0	0	158.247880993835	158.297864305099	0.049983311264441
165043	50	611	0	0	ink	829	302	1	stimuli\ink\ink_06s.jpg	5	-1	1	0	ink_06s.jpg	0	0	0	158.347901498182	158.397898462759	0.0499969645770761
165143	50	612	0	0	pothole	1233	303	1	stimuli\pothole\pothole_03n.jpg	2	-1	1	0	pothole_03n.jpg	0	0	0	158.44791956444	158.497900925231	0.0499813607912074
165243	50	613	0	0	swab	1590	304	1	stimuli\swab\swab_04s.jpg	3	-1	1	0	swab_04s.jpg	0	0	0	158.547920807867	158.597903143895	0.0499823360278242
165343	50	614	0	0	stuffing	1575	305	1	stimuli\stuffing\stuffing_08s.jpg	7	-1	1	0	stuffing_08s.jpg	0	0	0	158.647908885599	158.697888052109	0.0499791665097291
165443	50	615	0	0	glasses	678	306	1	stimuli\glasses\glasses_02s.jpg	1	-1	1	0	glasses_02s.jpg	0	0	0	158.747890380486	158.797883687925	0.0499933074388537
165543	50	616	0	0	dartboard	474	307	1	stimuli\dartboard\dartboard_03s.jpg	2	-1	1	0	dartboard_03s.jpg	0	0	0	158.847896012478	158.897877373269	0.0499813607912074
165643	50	617	0	0	wire_cutters	1829	308	1	stimuli\wire_cutters\wire_cutters_04s.jpg	3	-1	1	0	wire_cutters_04s.jpg	0	0	0	158.947931145374	158.9979107995	0.0499796541262185
173843	50	618	0	0	manatee	964	0	2	stimuli\manatee\manatee_06s.jpg	5	-1	2	0	manatee_06s.jpg	0	0	0	167.14813355572	167.19810979652	0.0499762407998787
173943	50	619	0	0	frog	644	1	2	stimuli\frog\frog_05s.jpg	4	-1	2	0	frog_05s.jpg	0	0	0	167.248134311529	167.2981098209	0.0499755093715066
174043	50	620	0	0	sweet_potato	1595	2	2	stimuli\sweet_potato\sweet_potato_11s.jpg	10	-1	2	0	sweet_potato_11s.jpg	0	0	0	167.348133848291	167.398116671937	0.0499828236461326
174143	50	621	0	0	suit	1580	3	2	stimuli\suit\suit_04s.jpg	3	-1	2	0	suit_04s.jpg	0	0	0	167.448138505046	167.498114258226	0.0499757531797513
174243	50	622	0	0	costume	419	4	2	stimuli\costume\costume_11s.jpg	10	-1	2	0	costume_11s.jpg	0	0	0	167.548136578953	167.598115257844	0.0499786788914207
174343	50	623	0	0	ottoman	1086	5	2	stimuli\ottoman\ottoman_08s.jpg	7	-1	2	0	ottoman_08s.jpg	0	0	0	167.648128313824	167.69810796795	0.0499796541262185
174443	50	624	0	0	rack2	1269	6	2	stimuli\rack2\rack2_10s.jpg	9	-1	2	0	rack2_10s.jpg	0	0	0	167.748126631541	167.798107504714	0.049980873172899
174543	50	625	0	0	shell2	1418	7	2	stimuli\shell2\shell2_08s.jpg	7	-1	2	0	shell2_08s.jpg	0	0	0	167.848159326346	167.898118744315	0.0499594179691485
174643	50	626	0	0	latch	900	8	2	stimuli\latch\latch_05s.jpg	4	-1	2	0	latch_05s.jpg	0	0	0	167.948133506958	167.99811754965	0.0499840426928131
174743	50	627	0	0	screwdriver	1391	9	2	stimuli\screwdriver\screwdriver_01s.jpg	0	-1	2	0	screwdriver_01s.jpg	0	0	0	168.048138895139	168.098372598388	0.0502337032485229
174843	50	628	0	0	turf	1732	10	2	stimuli\turf\turf_06s.jpg	5	-1	2	0	turf_06s.jpg	0	0	0	168.148122828117	168.198141004088	0.050018175970763
174943	50	629	0	0	landmine	894	11	2	stimuli\landmine\landmine_12s.jpg	11	-1	2	0	landmine_12s.jpg	0	0	0	168.248149427694	168.298147367506	0.0499979398118739
175043	50	630	0	0	beaver	107	12	2	stimuli\beaver\beaver_09s.jpg	8	-1	2	0	beaver_09s.jpg	0	0	0	168.348150671121	168.398144709987	0.0499940388654068
175143	50	631	0	0	sausage	1365	13	2	stimuli\sausage\sausage_02s.jpg	1	-1	2	0	sausage_02s.jpg	0	0	0	168.448174101179	168.498148147697	0.0499740465184004
175243	50	632	0	0	camper	249	14	2	stimuli\camper\camper_09s.jpg	8	-1	2	0	camper_09s.jpg	0	0	0	168.548175588416	168.598153535879	0.0499779474630486
175343	50	633	0	0	doorknocker	510	15	2	stimuli\doorknocker\doorknocker_01b.jpg	0	-1	2	0	doorknocker_01b.jpg	0	0	0	168.648155864255	168.698131373627	0.0499755093715066
175443	50	634	0	0	album	11	16	2	stimuli\album\album_04s.jpg	3	-1	2	0	album_04s.jpg	0	0	0	168.748153694354	168.798133348482	0.0499796541280375
175543	50	635	0	0	dumbbell	530	17	2	stimuli\dumbbell\dumbbell_05s.jpg	4	-1	2	0	dumbbell_05s.jpg	0	0	0	168.848158351109	168.898142881419	0.0499845303093025
175643	50	636	0	0	beanie	104	18	2	stimuli\beanie\beanie_03s.jpg	2	-1	2	0	beanie_03s.jpg	0	0	0	168.948173004039	168.998144368656	0.0499713646167947
175743	50	637	0	0	dustpan	535	19	2	stimuli\dustpan\dustpan_06s.jpg	5	-1	2	0	dustpan_06s.jpg	0	0	0	169.048167176999	169.098147074936	0.0499798979362822
175843	50	638	0	0	hamburger	740	20	2	stimuli\hamburger\hamburger_08s.jpg	7	-1	2	0	hamburger_08s.jpg	0	0	0	169.148169639471	169.198147830744	0.0499781912731123
175943	50	639	0	0	knee	877	21	2	stimuli\knee\knee_04s.jpg	3	-1	2	0	knee_04s.jpg	0	0	0	169.248171126708	169.298151512263	0.0499803855545906
176043	50	640	0	0	hood	791	22	2	stimuli\hood\hood_08s.jpg	7	-1	2	0	hood_08s.jpg	0	0	0	169.348173101562	169.398147148078	0.0499740465165814
176143	50	641	0	0	baton2	93	23	2	stimuli\baton2\baton2_03s.jpg	2	-1	2	0	baton2_03s.jpg	0	0	0	169.448171906897	169.49814985436	0.0499779474630486
176243	50	642	0	0	racket	1270	24	2	stimuli\racket\racket_01b.jpg	0	-1	2	0	racket_01b.jpg	0	0	0	169.548206552176	169.598166945381	0.0499603932057653
176343	50	643	0	0	penholder	1146	25	2	stimuli\penholder\penholder_04s.jpg	3	-1	2	0	penholder_04s.jpg	0	0	0	169.648183414689	169.69815892406	0.0499755093715066
176443	50	644	0	0	nutcracker	1067	26	2	stimuli\nutcracker\nutcracker_03s.jpg	2	-1	2	0	nutcracker_03s.jpg	0	0	0	169.748177587649	169.798191862676	0.0500142750261148
176543	50	645	0	0	sushi	1588	27	2	stimuli\sushi\sushi_03s.jpg	2	-1	2	0	sushi_03s.jpg	0	0	0	169.848208575791	169.898166043287	0.0499574674959149
176643	50	646	0	0	backgammon	48	28	2	stimuli\backgammon\backgammon_08s.jpg	7	-1	2	0	backgammon_08s.jpg	0	0	0	169.948185925923	169.99816289815	0.0499769722264318
176743	50	647	0	0	pants	1108	29	2	stimuli\pants\pants_02s.jpg	1	-1	2	0	pants_02s.jpg	0	0	0	170.048203016942	170.098193642481	0.049990625539067
176843	50	648	0	0	gauge	663	30	2	stimuli\gauge\gauge_11s.jpg	10	-1	2	0	gauge_11s.jpg	0	0	0	170.148201090851	170.198173430705	0.0499723398534115
176943	50	649	0	0	sledgehammer	1461	31	2	stimuli\sledgehammer\sledgehammer_07s.jpg	6	-1	2	0	sledgehammer_07s.jpg	0	0	0	170.24819599524	170.298192959815	0.0499969645752572
177043	50	650	0	0	cleat	353	32	2	stimuli\cleat\cleat_11s.jpg	10	-1	2	0	cleat_11s.jpg	0	0	0	170.348197726285	170.398204930845	0.0500072045597335
177143	50	651	0	0	hair	733	33	2	stimuli\hair\hair_06s.jpg	5	-1	2	0	hair_06s.jpg	0	0	0	170.448220181106	170.498187400968	0.0499672198620829
177243	50	652	0	0	playing_card	1199	34	2	stimuli\playing_card\playing_card_04s.jpg	3	-1	2	0	playing_card_04s.jpg	0	0	0	170.548223618815	170.598203516751	0.0499798979362822
177343	50	653	0	0	spam	1504	35	2	stimuli\spam\spam_02s.jpg	1	-1	2	0	spam_02s.jpg	0	0	0	170.648206088938	170.698180866882	0.0499747779449535
