onset	duration	eventnumber	blocksequencenumber	isteststim	object	objectnumber	presentationnumber	sequencenumber	stim	stimnumber	teststimnumber	withinsequencenumber	istarget	stimname	response	rt	correct	time_stimon	time_stimoff	stimdur
39694	50	0	0	0	luggage	948	0	0	stimuli\luggage\luggage_05s.jpg	4	-1	0	0	luggage_05s.jpg	1	0	0	55.7870504645398	55.8370245232945	0.0499740587547421
39794	50	1	0	0	punch2	1255	1	0	stimuli\punch2\punch2_11s.jpg	10	-1	0	0	punch2_11s.jpg	0	0	0	55.8870461247861	55.9370504157851	0.0500042909989133
39894	50	2	0	0	headlamp	764	2	0	stimuli\headlamp\headlamp_07s.jpg	6	-1	0	0	headlamp_07s.jpg	0	0	0	55.9870473926421	56.0370333979372	0.049986005295068
39994	50	3	0	0	egg_roll	547	3	0	stimuli\egg_roll\egg_roll_12n.jpg	11	-1	0	0	egg_roll_12n.jpg	0	0	0	56.0870659708744	56.1370312523795	0.0499652815051377
40094	50	4	0	0	cassette	283	4	0	stimuli\cassette\cassette_11n.jpg	10	-1	0	0	cassette_11n.jpg	0	0	0	56.1870569987223	56.2370186231565	0.0499616244342178
40194	50	5	0	0	coffee_table	381	5	0	stimuli\coffee_table\coffee_table_11s.jpg	10	-1	0	0	coffee_table_11s.jpg	0	0	0	56.2870626550866	56.3374543589307	0.0503917038440704
40294	50	6	0	0	walker2	1774	6	0	stimuli\walker2\walker2_07s.jpg	6	-1	0	0	walker2_07s.jpg	0	0	0	56.3870592904277	56.4370235968381	0.0499643064104021
40394	50	7	0	0	scrabble	1385	7	0	stimuli\scrabble\scrabble_11s.jpg	10	-1	0	0	scrabble_11s.jpg	0	0	0	56.4870434916811	56.5370472950162	0.0500038033351302
40494	50	8	0	0	almond	13	8	0	stimuli\almond\almond_06s.jpg	5	-1	0	0	almond_06s.jpg	0	0	0	56.5870652394369	56.6370275953086	0.0499623558716848
40594	50	9	0	0	gong	692	9	0	stimuli\gong\gong_03s.jpg	2	-1	0	0	gong_03s.jpg	0	0	0	56.6870474901516	56.737044954556	0.0499974644044414
40694	50	10	0	0	mousetrap	1029	10	0	stimuli\mousetrap\mousetrap_05s.jpg	4	-1	0	0	mousetrap_05s.jpg	0	0	0	56.7870660683839	56.837048416608	0.0499823482241482
40794	50	11	0	0	lumber	949	11	0	stimuli\lumber\lumber_07s.jpg	6	-1	0	0	lumber_07s.jpg	0	0	0	56.8870712370845	56.9370494405739	0.0499782034894451
40894	50	12	0	0	wreath	1839	12	0	stimuli\wreath\wreath_08s.jpg	7	-1	0	0	wreath_08s.jpg	0	0	0	56.9870569010964	57.0370568035869	0.0499999024905264
40994	50	13	0	0	praying_mantis	1238	13	0	stimuli\praying_mantis\praying_mantis_04s.jpg	3	-1	0	0	praying_mantis_04s.jpg	0	0	0	57.0870781613048	57.137055145693	0.049976984388195
41094	50	14	0	0	book	165	14	0	stimuli\book\book_11s.jpg	10	-1	0	0	book_11s.jpg	0	0	0	57.187065044418	57.2370473926421	0.0499823482241482
41194	50	15	0	0	goat	684	15	0	stimuli\goat\goat_05n.jpg	4	-1	0	0	goat_05n.jpg	0	0	0	57.2870858169626	57.3370628013508	0.049976984388195
41294	50	16	0	0	pecan	1135	16	0	stimuli\pecan\pecan_05s.jpg	4	-1	0	0	pecan_05s.jpg	0	0	0	57.3870824523037	57.4370935700135	0.0500111177098006
41394	50	17	0	0	quiche	1262	17	0	stimuli\quiche\quiche_07s.jpg	6	-1	0	0	quiche_07s.jpg	0	0	0	57.4870864020195	57.5370689941337	0.0499825921142474
41494	50	18	0	0	shower	1433	18	0	stimuli\shower\shower_07s.jpg	6	-1	0	0	shower_07s.jpg	0	0	0	57.5870959593449	57.637068311451	0.0499723521061242
41594	50	19	0	0	basketball	83	19	0	stimuli\basketball\basketball_03s.jpg	2	-1	0	0	basketball_03s.jpg	0	0	0	57.6870891815051	57.7370720172767	0.049982835771516
41694	50	20	0	0	soda_fountain	1491	20	0	stimuli\soda_fountain\soda_fountain_01s.jpg	0	-1	0	0	soda_fountain_01s.jpg	0	0	0	57.7870814283378	57.837079136516	0.0499977081781253
41794	50	21	0	0	helmet	776	21	0	stimuli\helmet\helmet_05s.jpg	4	-1	0	0	helmet_05s.jpg	0	0	0	57.8870985438116	57.9370769910747	0.0499784472631291
41894	50	22	0	0	cigarette_holder	346	22	0	stimuli\cigarette_holder\cigarette_holder_05s.jpg	4	-1	0	0	cigarette_holder_05s.jpg	0	0	0	57.9870990801137	58.0370787464781	0.0499796663643792
41994	50	23	0	0	shutter	1440	23	0	stimuli\shutter\shutter_10s.jpg	9	-1	0	0	shutter_10s.jpg	0	0	0	58.087102298392	58.1370841590688	0.0499818606767803
42094	50	24	0	0	lifesaver	925	24	0	stimuli\lifesaver\lifesaver_02s.jpg	1	-1	0	0	lifesaver_02s.jpg	0	0	0	58.187107467209	58.2370661658933	0.0499586986843497
42194	50	25	0	0	snowplow	1484	25	0	stimuli\snowplow\snowplow_12s.jpg	11	-1	0	0	snowplow_12s.jpg	0	0	0	58.2871053216513	58.3370759669924	0.0499706453410909
42294	50	26	0	0	kebab	865	26	0	stimuli\kebab\kebab_10n.jpg	9	-1	0	0	kebab_10n.jpg	0	0	0	58.3870934237493	58.4370916195912	0.0499981958419085
42394	50	27	0	0	chick	321	27	0	stimuli\chick\chick_11s.jpg	10	-1	0	0	chick_11s.jpg	0	0	0	58.4871115144342	58.5370943502057	0.049982835771516
42494	50	28	0	0	cigarette	344	28	0	stimuli\cigarette\cigarette_08s.jpg	7	-1	0	0	cigarette_08s.jpg	0	0	0	58.5871130260639	58.637078307569	0.0499652815051377
42594	50	29	0	0	dip	487	29	0	stimuli\dip\dip_03s.jpg	2	-1	0	0	dip_03s.jpg	0	0	0	58.687103566248	58.7370864020195	0.049982835771516
42694	50	30	0	0	bear	105	30	0	stimuli\bear\bear_06n.jpg	5	-1	0	0	bear_06n.jpg	0	0	0	58.7871092226123	58.8370920583839	0.049982835771516
42794	50	31	0	0	bush	227	31	0	stimuli\bush\bush_04s.jpg	3	-1	0	0	bush_04s.jpg	0	0	0	58.8871117094532	58.9370923510287	0.0499806415755302
42894	50	32	0	0	card	271	32	0	stimuli\card\card_09s.jpg	8	-1	0	0	card_09s.jpg	0	0	0	58.9871161468327	59.037110929261	0.0499947824282572
42994	50	33	0	0	mug	1036	33	0	stimuli\mug\mug_04s.jpg	3	-1	0	0	mug_04s.jpg	0	0	0	59.0871103440877	59.1371041514212	0.0499938073335215
43094	50	34	0	0	wasp	1785	34	0	stimuli\wasp\wasp_08s.jpg	7	-1	0	0	wasp_08s.jpg	0	0	0	59.1871259966865	59.2370934725041	0.0499674758175388
43194	50	35	0	0	poinsettia	1209	35	0	stimuli\poinsettia\poinsettia_03s.jpg	2	-1	0	0	poinsettia_03s.jpg	0	0	0	59.2871092226123	59.3370862070005	0.049976984388195
43294	50	36	0	0	birdbath	129	36	0	stimuli\birdbath\birdbath_04s.jpg	3	-1	0	0	birdbath_04s.jpg	0	0	0	59.3871346275555	59.4370974709745	0.0499628434190527
43394	50	37	0	0	sunglasses	1585	37	0	stimuli\sunglasses\sunglasses_09s.jpg	8	-1	0	0	sunglasses_09s.jpg	0	0	0	59.4871115144342	59.5371189749567	0.0500074605224654
43494	50	38	0	0	shark	1409	38	0	stimuli\shark\shark_05s.jpg	4	-1	0	0	shark_05s.jpg	0	0	0	59.5871239973931	59.6371024446562	0.0499784472631291
43594	50	39	0	0	hole	785	39	0	stimuli\hole\hole_01b.jpg	0	-1	0	0	hole_01b.jpg	0	0	0	59.6871396499919	59.7371063943719	0.0499667443800718
43694	50	40	0	0	taillight	1617	40	0	stimuli\taillight\taillight_01b.jpg	0	-1	0	0	taillight_01b.jpg	0	0	0	59.7871450625826	59.8371252164943	0.049980153911747
43794	50	41	0	0	squid	1528	41	0	stimuli\squid\squid_06s.jpg	5	-1	0	0	squid_06s.jpg	0	0	0	59.887145355111	59.9371091738576	0.0499638187466189
43894	50	42	0	0	bubble_wrap	208	42	0	stimuli\bubble_wrap\bubble_wrap_08s.jpg	7	-1	0	0	bubble_wrap_08s.jpg	0	0	0	59.9871512553655	60.0371543272631	0.0500030718976632
43994	50	43	0	0	firetruck	596	43	0	stimuli\firetruck\firetruck_09s.jpg	8	-1	0	0	firetruck_09s.jpg	0	0	0	60.0871581307147	60.1371324332431	0.0499743025284261
44094	50	44	0	0	costume	419	44	0	stimuli\costume\costume_07s.jpg	6	-1	0	0	costume_07s.jpg	0	0	0	60.1871513528749	60.237133457209	0.0499821043340489
44194	50	45	0	0	scone	1380	45	0	stimuli\scone\scone_04s.jpg	3	-1	0	0	scone_04s.jpg	0	0	0	60.2871592034353	60.3371439897455	0.0499847863102332
44294	50	46	0	0	cummerbund	459	46	0	stimuli\cummerbund\cummerbund_12s.jpg	11	-1	0	0	cummerbund_12s.jpg	0	0	0	60.3871573017677	60.4371411128668	0.0499838110990822
44394	50	47	0	0	snowsuit	1486	47	0	stimuli\snowsuit\snowsuit_04s.jpg	3	-1	0	0	snowsuit_04s.jpg	0	0	0	60.4871600323822	60.5371470130049	0.0499869806226343
44494	50	48	0	0	tape_recorder	1624	48	0	stimuli\tape_recorder\tape_recorder_03s.jpg	2	-1	0	1	tape_recorder_03s.jpg	0	0	0	60.5871710525826	60.6371273132972	0.04995626071468
44594	50	49	0	0	kayak	863	49	0	stimuli\kayak\kayak_07s.jpg	6	-1	0	0	kayak_07s.jpg	0	0	0	60.6871657376178	60.7371471105143	0.0499813728965819
44694	50	50	0	0	bowling_ball	179	50	0	stimuli\bowling_ball\bowling_ball_05s.jpg	4	-1	0	0	bowling_ball_05s.jpg	1	0.25255877757445	1	60.7871679805685	60.8371513041202	0.0499833235517144
44794	50	51	0	0	sundae	1582	51	0	stimuli\sundae\sundae_05s.jpg	4	-1	0	0	sundae_05s.jpg	0	0	0	60.8871704675257	60.9371457452653	0.049975277739577
44894	50	52	0	0	egg	546	52	0	stimuli\egg\egg_09s.jpg	8	-1	0	0	egg_09s.jpg	0	0	0	60.9871695409529	61.037153352052	0.0499838110990822
44994	50	53	0	0	cracker	429	53	0	stimuli\cracker\cracker_07s.jpg	6	-1	0	0	cracker_07s.jpg	0	0	0	61.0871712964727	61.1371526693692	0.0499813728965819
45094	50	54	0	0	hummus	812	54	0	stimuli\hummus\hummus_11s.jpg	10	-1	0	0	hummus_11s.jpg	0	0	0	61.1871747585246	61.2371541809989	0.04997942247428
45194	50	55	0	0	fence	575	55	0	stimuli\fence\fence_05s.jpg	4	-1	0	0	fence_05s.jpg	0	0	0	61.2871801711153	61.3371627631132	0.0499825919978321
45294	50	56	0	0	gramophone	699	56	0	stimuli\gramophone\gramophone_02s.jpg	1	-1	0	0	gramophone_02s.jpg	0	0	0	61.387182414066	61.4371625680942	0.0499801540281624
45394	50	57	0	0	ticktacktoe	1657	57	0	stimuli\ticktacktoe\ticktacktoe_12s.jpg	11	-1	0	0	ticktacktoe_12s.jpg	0	0	0	61.4871827067109	61.5371613977477	0.049978691036813
45494	50	58	0	0	bat2	88	58	0	stimuli\bat2\bat2_02s.jpg	1	-1	0	0	bat2_02s.jpg	0	0	0	61.5871873878641	61.6371633970411	0.049976009177044
45594	50	59	0	0	cordon_bleu	408	59	0	stimuli\cordon_bleu\cordon_bleu_02s.jpg	1	-1	0	0	cordon_bleu_02s.jpg	0	0	0	61.6871871927287	61.737169784843	0.0499825921142474
45694	50	60	0	0	skewer	1451	60	0	stimuli\skewer\skewer_01b.jpg	0	-1	0	0	skewer_01b.jpg	0	0	0	61.7871923615457	61.8371722716838	0.0499799101380631
45794	50	61	0	0	airplane	10	61	0	stimuli\airplane\airplane_06n.jpg	5	-1	0	0	airplane_06n.jpg	0	0	0	61.8871950921603	61.9371767089469	0.0499816167866811
45894	50	62	0	0	jeans	842	62	0	stimuli\jeans\jeans_11s.jpg	10	-1	0	0	jeans_11s.jpg	0	0	0	61.9871944095939	62.0371796834515	0.049985273857601
45994	50	63	0	0	beehive	112	63	0	stimuli\beehive\beehive_08s.jpg	7	-1	0	0	beehive_08s.jpg	0	0	0	62.0871951896697	62.1371653474635	0.049970157793723
46094	50	64	0	0	helicopter	775	64	0	stimuli\helicopter\helicopter_10s.jpg	9	-1	0	0	helicopter_10s.jpg	0	0	0	62.1871852423064	62.237199041876	0.0500137995695695
46194	50	65	0	0	turf	1732	65	0	stimuli\turf\turf_02s.jpg	1	-1	0	0	turf_02s.jpg	0	0	0	62.2872162548592	62.3371929954737	0.0499767406145111
46294	50	66	0	0	mistletoe	1007	66	0	stimuli\mistletoe\mistletoe_05n.jpg	4	-1	0	0	mistletoe_05n.jpg	0	0	0	62.3871882655658	62.4371469642501	0.0499586986843497
46394	50	67	0	0	cat	284	67	0	stimuli\cat\cat_04s.jpg	3	-1	0	0	cat_04s.jpg	0	0	0	62.4871824629372	62.5371631043963	0.0499806414591148
46494	50	68	0	0	backgammon	48	68	0	stimuli\backgammon\backgammon_07s.jpg	6	-1	0	0	backgammon_07s.jpg	0	0	0	62.5871876316378	62.6371829017298	0.0499952700920403
46594	50	69	0	0	diamond	484	69	0	stimuli\diamond\diamond_11s.jpg	10	-1	0	0	diamond_11s.jpg	0	0	0	62.6871862175176	62.7371710038278	0.0499847863102332
46694	50	70	0	0	key	869	70	0	stimuli\key\key_03s.jpg	2	-1	0	0	key_03s.jpg	0	0	0	62.7871879729209	62.8371691021603	0.0499811292393133
46794	50	71	0	0	sparkler	1507	71	0	stimuli\sparkler\sparkler_08s.jpg	7	-1	0	0	sparkler_08s.jpg	0	0	0	62.8871909474256	62.9371635433054	0.0499725958798081
46894	50	72	0	0	ukulele	1742	72	0	stimuli\ukulele\ukulele_10s.jpg	9	-1	0	0	ukulele_10s.jpg	0	0	0	62.9872265923768	63.0371874853736	0.0499608929967508
46994	50	73	0	0	butterfly	229	73	0	stimuli\butterfly\butterfly_03s.jpg	2	-1	0	0	butterfly_03s.jpg	0	0	0	63.0872215210693	63.1372014312074	0.0499799101380631
47094	50	74	0	0	pool_table	1222	74	0	stimuli\pool_table\pool_table_02s.jpg	1	-1	0	0	pool_table_02s.jpg	0	0	0	63.1872279088711	63.2372075752355	0.0499796663643792
47194	50	75	0	0	airbag	7	75	0	stimuli\airbag\airbag_05s.jpg	4	-1	0	0	airbag_05s.jpg	0	0	0	63.2872269824147	63.3372073802166	0.0499803978018463
47294	50	76	0	0	camera_lens	248	76	0	stimuli\camera_lens\camera_lens_10s.jpg	9	-1	0	0	camera_lens_10s.jpg	0	0	0	63.3872294692555	63.4372191317379	0.0499896624824032
47394	50	77	0	0	straightjacket	1565	77	0	stimuli\straightjacket\straightjacket_12s.jpg	11	-1	0	0	straightjacket_12s.jpg	0	0	0	63.4872339066351	63.5372155234218	0.0499816167866811
47494	50	78	0	0	pinwheel	1185	78	0	stimuli\pinwheel\pinwheel_11s.jpg	10	-1	0	0	pinwheel_11s.jpg	0	0	0	63.5872344430536	63.6372184979264	0.0499840548727661
47594	50	79	0	0	coop	404	79	0	stimuli\coop\coop_03s.jpg	2	-1	0	0	coop_03s.jpg	0	0	0	63.6872393679805	63.737222203752	0.049982835771516
47694	50	80	0	0	underwear	1745	80	0	stimuli\underwear\underwear_07s.jpg	6	-1	0	0	underwear_07s.jpg	0	0	0	63.7872403919464	63.8372203020845	0.0499799101380631
47794	50	81	0	0	cornmeal	415	81	0	stimuli\cornmeal\cornmeal_10s.jpg	9	-1	0	0	cornmeal_10s.jpg	0	0	0	63.8872411721386	63.9372244955739	0.0499833234352991
47894	50	82	0	0	girl	676	82	0	stimuli\girl\girl_04s.jpg	3	-1	0	0	girl_04s.jpg	0	0	0	63.9872526798863	64.0372284452897	0.0499757654033601
47994	50	83	0	0	altar	16	83	0	stimuli\altar\altar_08s.jpg	7	-1	0	0	altar_08s.jpg	0	0	0	64.087252728641	64.1372267873958	0.0499740587547421
48094	50	84	0	0	bottle_opener	171	84	0	stimuli\bottle_opener\bottle_opener_06s.jpg	5	-1	0	0	bottle_opener_06s.jpg	0	0	0	64.1872522898484	64.2372321999865	0.0499799101380631
48194	50	85	0	0	cardboard	272	85	0	stimuli\cardboard\cardboard_07s.jpg	6	-1	0	0	cardboard_07s.jpg	0	0	0	64.2872557519004	64.3372312735301	0.0499755216296762
48294	50	86	0	0	panda	1105	86	0	stimuli\panda\panda_10s.jpg	9	-1	0	0	panda_10s.jpg	0	0	0	64.3872450730996	64.437215474667	0.049970401567407
48394	50	87	0	0	arch	35	87	0	stimuli\arch\arch_01b.jpg	0	-1	0	0	arch_01b.jpg	0	0	0	64.4872341504088	64.5372428300325	0.0500086796237156
48494	50	88	0	0	motorcycle	1025	88	0	stimuli\motorcycle\motorcycle_01b.jpg	0	-1	0	0	motorcycle_01b.jpg	0	0	0	64.5872656506253	64.6372465359746	0.0499808853492141
48594	50	89	0	0	bouquet	173	89	0	stimuli\bouquet\bouquet_10s.jpg	9	-1	0	0	bouquet_10s.jpg	0	0	0	64.6872666745912	64.7372480476042	0.0499813730129972
48694	50	90	0	0	piglet	1173	90	0	stimuli\piglet\piglet_10s.jpg	9	-1	0	0	piglet_10s.jpg	0	0	0	64.7872579462128	64.8372561420547	0.0499981958419085
48794	50	91	0	0	monkey	1017	91	0	stimuli\monkey\monkey_03s.jpg	2	-1	0	0	monkey_03s.jpg	0	0	0	64.8872745740227	64.937253996497	0.04997942247428
48894	50	92	0	0	palette	1100	92	0	stimuli\palette\palette_04s.jpg	3	-1	0	0	palette_04s.jpg	0	0	0	64.9872736475663	65.0372494128533	0.0499757652869448
48994	50	93	0	0	copier	405	93	0	stimuli\copier\copier_02s.jpg	1	-1	0	0	copier_02s.jpg	0	0	0	65.0872749153059	65.1372531187953	0.0499782034894451
49094	50	94	0	0	kale	860	94	0	stimuli\kale\kale_07s.jpg	6	-1	0	1	kale_07s.jpg	0	0	0	65.187277158373	65.2372563370736	0.0499791787005961
49194	50	95	0	0	blind	140	95	0	stimuli\blind\blind_11s.jpg	10	-1	0	0	blind_11s.jpg	0	0	0	65.2872818395263	65.3372576049296	0.0499757654033601
49294	50	96	0	0	hyena	815	96	0	stimuli\hyena\hyena_05s.jpg	4	-1	0	0	hyena_05s.jpg	0	0	0	65.3872855454683	65.4372610669816	0.0499755215132609
49394	50	97	0	0	compost	393	97	0	stimuli\compost\compost_10s.jpg	9	-1	0	0	compost_10s.jpg	1	0.350162425660528	1	65.4872826684732	65.5372684299946	0.0499857615213841
49494	50	98	0	0	ribbon	1308	98	0	stimuli\ribbon\ribbon_02s.jpg	1	-1	0	0	ribbon_02s.jpg	0	0	0	65.5872836924391	65.637266528327	0.0499828358879313
49594	50	99	0	0	strainer	1566	99	0	stimuli\strainer\strainer_10s.jpg	9	-1	0	0	strainer_10s.jpg	0	0	0	65.6872915431159	65.7372702341527	0.049978691036813
49694	50	100	0	0	brake	191	100	0	stimuli\brake\brake_05s.jpg	4	-1	0	0	brake_05s.jpg	0	0	0	65.7872903728858	65.8372695515864	0.0499791787005961
49794	50	101	0	0	shower_curtain	1435	101	0	stimuli\shower_curtain\shower_curtain_02s.jpg	1	-1	0	0	shower_curtain_02s.jpg	0	0	0	65.887293347274	65.937273257412	0.0499799101380631
49894	50	102	0	0	pipe2	1187	102	0	stimuli\pipe2\pipe2_03s.jpg	2	-1	0	0	pipe2_03s.jpg	0	0	0	65.9872926645912	66.037278426229	0.0499857616377994
49994	50	103	0	0	cereal	297	103	0	stimuli\cereal\cereal_03s.jpg	2	-1	0	0	cereal_03s.jpg	0	0	0	66.087296614307	66.1372650654521	0.0499684511451051
50094	50	104	0	0	cleat	353	104	0	stimuli\cleat\cleat_11s.jpg	10	-1	0	0	cleat_11s.jpg	0	0	0	66.1872795964591	66.237259994261	0.0499803978018463
50194	50	105	0	0	puddle	1247	105	0	stimuli\puddle\puddle_08s.jpg	7	-1	0	0	puddle_08s.jpg	0	0	0	66.2873071957147	66.337289056275	0.049981860560365
50294	50	106	0	0	smoke_alarm	1473	106	0	stimuli\smoke_alarm\smoke_alarm_11s.jpg	10	-1	0	0	smoke_alarm_11s.jpg	0	0	0	66.3873123644153	66.4372917868895	0.04997942247428
50394	50	107	0	0	basketball_hoop	84	107	0	stimuli\basketball_hoop\basketball_hoop_07s.jpg	6	-1	0	0	basketball_hoop_07s.jpg	0	0	0	66.4873111941852	66.5372908604331	0.0499796662479639
50494	50	108	0	0	bedpost	110	108	0	stimuli\bedpost\bedpost_12s.jpg	11	-1	0	0	bedpost_12s.jpg	0	0	0	66.5873156314483	66.6372982234461	0.0499825919978321
50594	50	109	0	0	elbow	552	109	0	stimuli\elbow\elbow_03s.jpg	2	-1	0	0	elbow_03s.jpg	0	0	0	66.6873193373904	66.7372963217786	0.049976984388195
50694	50	110	0	0	pedal	1136	110	0	stimuli\pedal\pedal_09s.jpg	8	-1	0	0	pedal_09s.jpg	0	0	0	66.7873196299188	66.8373022219166	0.0499825919978321
50794	50	111	0	0	seatbelt	1399	111	0	stimuli\seatbelt\seatbelt_09s.jpg	8	-1	0	0	seatbelt_09s.jpg	0	0	0	66.887324311072	66.937309585046	0.0499852739740163
50894	50	112	0	0	prism	1241	112	0	stimuli\prism\prism_03s.jpg	2	-1	0	0	prism_03s.jpg	0	0	0	66.9873233846156	67.037303782301	0.0499803976854309
50994	50	113	0	0	chandelier	305	113	0	stimuli\chandelier\chandelier_04s.jpg	3	-1	0	0	chandelier_04s.jpg	0	0	0	67.0873270905577	67.137310413993	0.0499833234352991
51094	50	114	0	0	squash	1526	114	0	stimuli\squash\squash_02s.jpg	1	-1	0	1	squash_02s.jpg	0	0	0	67.1873322592583	67.2373350874986	0.0500028282403946
51194	50	115	0	0	eggnog	549	115	0	stimuli\eggnog\eggnog_06s.jpg	5	-1	0	0	eggnog_06s.jpg	0	0	0	67.2873149975203	67.3373105115024	0.0499955139821395
51294	50	116	0	0	speaker	1509	116	0	stimuli\speaker\speaker_09s.jpg	8	-1	0	0	speaker_09s.jpg	0	0	0	67.3873350386275	67.4373000764754	0.0499650378478691
51394	50	117	0	0	pinball	1178	117	0	stimuli\pinball\pinball_05s.jpg	4	-1	0	0	pinball_05s.jpg	0	0	0	67.4873363064835	67.5373176794965	0.0499813730129972
51494	50	118	0	0	banner	70	118	0	stimuli\banner\banner_04s.jpg	3	-1	0	0	banner_04s.jpg	0	0	0	67.5873397685355	67.6373040749459	0.0499643064104021
51594	50	119	0	0	wallpaper	1777	119	0	stimuli\wallpaper\wallpaper_05s.jpg	4	-1	0	0	wallpaper_05s.jpg	1	0.541933475178666	1	67.6873451811261	67.7373231408419	0.0499779597157612
51694	50	120	0	0	silicone	1444	120	0	stimuli\silicone\silicone_10s.jpg	9	-1	0	0	silicone_10s.jpg	0	0	0	67.7873432794586	67.8373266028939	0.0499833234352991
51794	50	121	0	0	icicle	824	121	0	stimuli\icicle\icicle_09s.jpg	8	-1	0	0	icicle_09s.jpg	0	0	0	67.8873469852842	67.9373042212101	0.0499572359258309
51894	50	122	0	0	washing_machine	1784	122	0	stimuli\washing_machine\washing_machine_03s.jpg	2	-1	0	0	washing_machine_03s.jpg	0	0	0	67.9873302112101	68.0373157289578	0.0499855177477002
51994	50	123	0	0	chinaware	331	123	0	stimuli\chinaware\chinaware_05s.jpg	4	-1	0	0	chinaware_05s.jpg	0	0	0	68.087336842902	68.1373347948538	0.0499979519518092
52094	50	124	0	0	pulpit	1251	124	0	stimuli\pulpit\pulpit_06s.jpg	5	-1	0	0	pulpit_06s.jpg	0	0	0	68.1873539582593	68.2373336246237	0.0499796663643792
52194	50	125	0	0	muff	1034	125	0	stimuli\muff\muff_02s.jpg	1	-1	0	0	muff_02s.jpg	0	0	0	68.2873547384515	68.3373251400189	0.049970401567407
52294	50	126	0	0	wax	1795	126	0	stimuli\wax\wax_01b.jpg	0	-1	0	0	wax_01b.jpg	0	0	0	68.3873621014645	68.4373412801651	0.0499791787005961
52394	50	127	0	0	washboard	1782	127	0	stimuli\washboard\washboard_03s.jpg	2	-1	0	0	washboard_03s.jpg	0	0	0	68.487364100758	68.537345473771	0.0499813730129972
52494	50	128	0	0	handlebar	749	128	0	stimuli\handlebar\handlebar_05s.jpg	4	-1	0	0	handlebar_05s.jpg	0	0	0	68.5873631743016	68.6373440596508	0.0499808853492141
52594	50	129	0	0	wheelchair	1808	129	0	stimuli\wheelchair\wheelchair_11n.jpg	10	-1	0	0	wheelchair_11n.jpg	0	0	0	68.6873680992285	68.7373385007959	0.049970401567407
52694	50	130	0	0	oatmeal	1069	130	0	stimuli\oatmeal\oatmeal_12s.jpg	11	-1	0	0	oatmeal_12s.jpg	0	0	0	68.7873596146237	68.8373414753005	0.0499818606767803
52794	50	131	0	0	pogo_stick	1208	131	0	stimuli\pogo_stick\pogo_stick_02s.jpg	1	-1	0	0	pogo_stick_02s.jpg	0	0	0	68.8873642957769	68.9373451811261	0.0499808853492141
52894	50	132	0	0	pet_food	1157	132	0	stimuli\pet_food\pet_food_06s.jpg	5	-1	0	0	pet_food_06s.jpg	0	0	0	68.9873677578289	69.0373505937168	0.0499828358879313
52994	50	133	0	0	sunroof	1586	133	0	stimuli\sunroof\sunroof_09s.jpg	8	-1	0	0	sunroof_09s.jpg	0	0	0	69.0873695133487	69.1373506424716	0.049981129122898
53094	50	134	0	0	shaker	1408	134	0	stimuli\shaker\shaker_07s.jpg	6	-1	0	0	shaker_07s.jpg	0	0	0	69.1873710248619	69.2373504474526	0.0499794225906953
53194	50	135	0	0	bowl	177	135	0	stimuli\bowl\bowl_08s.jpg	7	-1	0	0	bowl_08s.jpg	0	0	0	69.2873744870303	69.3373524466297	0.0499779595993459
53294	50	136	0	0	gravy	711	136	0	stimuli\gravy\gravy_02s.jpg	1	-1	0	0	gravy_02s.jpg	0	0	0	69.3873794119572	69.4373602973064	0.0499808853492141
53394	50	137	0	0	burrito	225	137	0	stimuli\burrito\burrito_04s.jpg	3	-1	0	0	burrito_04s.jpg	0	0	0	69.4873745845398	69.5373520565918	0.0499774720519781
53494	50	138	0	0	plastic_film	1196	138	0	stimuli\plastic_film\plastic_film_03s.jpg	2	-1	0	0	plastic_film_03s.jpg	0	0	0	69.5873726828722	69.637347472948	0.0499747900757939
53594	50	139	0	0	handle	748	139	0	stimuli\handle\handle_01b.jpg	0	-1	0	0	handle_01b.jpg	0	0	0	69.6873756572604	69.7373621502193	0.0499864929588512
53694	50	140	0	0	life_jacket	924	140	0	stimuli\life_jacket\life_jacket_10s.jpg	9	-1	0	0	life_jacket_10s.jpg	0	0	0	69.7873788755387	69.8373592733406	0.0499803978018463
53794	50	141	0	0	cranberry	430	141	0	stimuli\cranberry\cranberry_05s.jpg	4	-1	0	0	cranberry_05s.jpg	0	0	0	69.8873823377071	69.9373854096048	0.0500030718976632
53894	50	142	0	0	iceskate	823	142	0	stimuli\iceskate\iceskate_09s.jpg	8	-1	0	0	iceskate_09s.jpg	0	0	0	69.9874009159394	70.0373798508663	0.0499789349269122
53994	50	143	0	0	cord	407	143	0	stimuli\cord\cord_09s.jpg	8	-1	0	0	cord_09s.jpg	0	0	0	70.0873895057011	70.1373818500433	0.0499923443421721
54094	50	144	0	0	pillow	1176	144	0	stimuli\pillow\pillow_09s.jpg	8	-1	0	0	pillow_09s.jpg	0	0	0	70.1874071087223	70.237387262634	0.049980153911747
54194	50	145	0	0	squeegee	1527	145	0	stimuli\squeegee\squeegee_09s.jpg	8	-1	0	0	squeegee_09s.jpg	0	0	0	70.2873893593205	70.3373875551624	0.0499981958419085
54294	50	146	0	0	armor	37	146	0	stimuli\armor\armor_04s.jpg	3	-1	0	0	armor_04s.jpg	0	0	0	70.3874118386302	70.4373917486519	0.0499799100216478
54394	50	147	0	0	woman	1832	147	0	stimuli\woman\woman_12s.jpg	11	-1	0	0	woman_12s.jpg	0	0	0	70.4874131063698	70.5373944793828	0.0499813730129972
54494	50	148	0	0	teepee	1637	148	0	stimuli\teepee\teepee_11s.jpg	10	-1	0	0	teepee_11s.jpg	0	0	0	70.5874141303357	70.6373845319031	0.049970401567407
54594	50	149	0	0	prune	1244	149	0	stimuli\prune\prune_03s.jpg	2	-1	0	0	prune_03s.jpg	0	0	0	70.6874175925041	70.7373970149783	0.04997942247428
54694	50	150	0	0	ginger	673	150	0	stimuli\ginger\ginger_02s.jpg	1	-1	0	0	ginger_02s.jpg	0	0	0	70.7874183726963	70.8373834104277	0.0499650377314538
54794	50	151	0	0	abacus	1	151	0	stimuli\abacus\abacus_04s.jpg	3	-1	0	0	abacus_04s.jpg	0	0	0	70.887426223373	70.9374093029182	0.0499830795451999
54894	50	152	0	0	ladle	887	152	0	stimuli\ladle\ladle_06s.jpg	5	-1	0	0	ladle_06s.jpg	0	0	0	70.9874243215891	71.0374035002897	0.0499791787005961
54994	50	153	0	0	butter	228	153	0	stimuli\butter\butter_01b.jpg	0	-1	0	0	butter_01b.jpg	0	0	0	71.0874126675772	71.1374101318652	0.0499974642880261
55094	50	154	0	0	cream_cheese	437	154	0	stimuli\cream_cheese\cream_cheese_10s.jpg	9	-1	0	0	cream_cheese_10s.jpg	0	0	0	71.1874334401218	71.2373955521034	0.0499621119815856
55194	50	155	0	0	crystal2	454	155	0	stimuli\crystal2\crystal2_09s.jpg	8	-1	0	0	crystal2_09s.jpg	0	0	0	71.2874156907201	71.3374119361397	0.0499962454196066
55294	50	156	0	0	leech	909	156	0	stimuli\leech\leech_09s.jpg	8	-1	0	0	leech_09s.jpg	0	0	0	71.3874371947022	71.4374161296291	0.0499789349269122
55394	50	157	0	0	undershirt	1744	157	0	stimuli\undershirt\undershirt_01s.jpg	0	-1	0	0	undershirt_01s.jpg	0	0	0	71.4874374873471	71.5374188602436	0.0499813728965819
55494	50	158	0	0	gavel	665	158	0	stimuli\gavel\gavel_07s.jpg	6	-1	0	0	gavel_07s.jpg	0	0	0	71.5874382675393	71.6374228099594	0.0499845424201339
55594	50	159	0	0	toe	1668	159	0	stimuli\toe\toe_06s.jpg	5	-1	0	0	toe_06s.jpg	0	0	0	71.6874431924662	71.7374109120574	0.0499677195912227
55694	50	160	0	0	box	181	160	0	stimuli\box\box_07s.jpg	6	-1	0	0	box_07s.jpg	0	0	0	71.7874298316892	71.8374297341798	0.0499999024905264
55794	50	161	0	0	football	629	161	0	stimuli\football\football_06s.jpg	5	-1	0	1	football_06s.jpg	0	0	0	71.8874471909367	71.9374271010747	0.0499799101380631
55894	50	162	0	0	ravioli	1289	162	0	stimuli\ravioli\ravioli_05s.jpg	4	-1	0	0	ravioli_05s.jpg	0	0	0	71.9874479711289	72.0374293440254	0.0499813728965819
55994	50	163	0	0	file1	583	163	0	stimuli\file1\file1_03s.jpg	2	-1	0	0	file1_03s.jpg	0	0	0	72.087450214196	72.1374350005062	0.0499847863102332
56094	50	164	0	0	buffet	211	164	0	stimuli\buffet\buffet_01b.jpg	0	-1	0	0	buffet_01b.jpg	1	0.341950688045472	1	72.1874551391229	72.2374201768544	0.0499650377314538
56194	50	165	0	0	nightstand	1059	165	0	stimuli\nightstand\nightstand_05s.jpg	4	-1	0	0	nightstand_05s.jpg	0	0	0	72.2874505554792	72.3374214447103	0.0499708892311901
56294	50	166	0	0	syrup	1605	166	0	stimuli\syrup\syrup_01s.jpg	0	-1	0	0	syrup_01s.jpg	0	0	0	72.3874437776394	72.4374200305901	0.0499762529507279
56394	50	167	0	0	water_fountain	1790	167	0	stimuli\water_fountain\water_fountain_12s.jpg	11	-1	0	0	water_fountain_12s.jpg	0	0	0	72.4874616244342	72.5374437287683	0.0499821043340489
56494	50	168	0	0	badge	52	168	0	stimuli\badge\badge_04s.jpg	3	-1	0	0	badge_04s.jpg	0	0	0	72.58746557415	72.6374452403979	0.0499796662479639
56594	50	169	0	0	hippopotamus	781	169	0	stimuli\hippopotamus\hippopotamus_11s.jpg	10	-1	0	0	hippopotamus_11s.jpg	1	0.841936059528962	1	72.6874709867407	72.7374333424959	0.0499623557552695
56694	50	170	0	0	swing	1598	170	0	stimuli\swing\swing_10s.jpg	9	-1	0	0	swing_10s.jpg	0	0	0	72.7874756677775	72.8374511894071	0.0499755216296762
56794	50	171	0	0	penlight	1147	171	0	stimuli\penlight\penlight_09s.jpg	8	-1	0	0	penlight_09s.jpg	0	0	0	72.8874718156876	72.9374544076854	0.0499825919978321
56894	50	172	0	0	thumb	1653	172	0	stimuli\thumb\thumb_03s.jpg	2	-1	0	0	thumb_03s.jpg	0	0	0	72.9874584549107	73.0374566507526	0.0499981958419085
56994	50	173	0	0	knee	877	173	0	stimuli\knee\knee_02s.jpg	1	-1	0	0	knee_02s.jpg	0	0	0	73.0874782522442	73.1374598690309	0.0499816167866811
57094	50	174	0	0	moose	1018	174	0	stimuli\moose\moose_09s.jpg	8	-1	0	0	moose_09s.jpg	0	0	0	73.1874665981159	73.2374445577152	0.0499779595993459
57194	50	175	0	0	grater	708	175	0	stimuli\grater\grater_05s.jpg	4	-1	0	0	grater_05s.jpg	0	0	0	73.2874834696995	73.3374650864862	0.0499816167866811
57294	50	176	0	0	ski	1452	176	0	stimuli\ski\ski_12s.jpg	11	-1	0	0	ski_12s.jpg	0	0	0	73.3874844936654	73.4374658666784	0.0499813730129972
57394	50	177	0	0	sweater	1592	177	0	stimuli\sweater\sweater_10s.jpg	9	-1	0	0	sweater_10s.jpg	0	0	0	73.4874886872713	73.5374661593232	0.0499774720519781
57494	50	178	0	0	doorhandle	508	178	0	stimuli\doorhandle\doorhandle_10s.jpg	9	-1	0	0	doorhandle_10s.jpg	0	0	0	73.5874914178858	73.6374710842501	0.0499796663643792
57594	50	179	0	0	petri_dish	1159	179	0	stimuli\petri_dish\petri_dish_12s.jpg	11	-1	0	0	petri_dish_12s.jpg	0	0	0	73.6874795199838	73.7374730834272	0.0499935634434223
57694	50	180	0	0	spear	1510	180	0	stimuli\spear\spear_09s.jpg	8	-1	0	0	spear_09s.jpg	0	0	0	73.7874956601299	73.8374760579318	0.0499803978018463
57794	50	181	0	0	blackberry	135	181	0	stimuli\blackberry\blackberry_05s.jpg	4	-1	0	0	blackberry_05s.jpg	0	0	0	73.8874988784082	73.9374863466946	0.0499874682864174
57894	50	182	0	0	keyboard	870	182	0	stimuli\keyboard\keyboard_12s.jpg	11	-1	0	0	keyboard_12s.jpg	0	0	0	73.9874823482241	74.0374612830346	0.0499789348104969
57994	50	183	0	0	rollerblade	1326	183	0	stimuli\rollerblade\rollerblade_02s.jpg	1	-1	0	0	rollerblade_02s.jpg	0	0	0	74.0875060464023	74.1374859565403	0.0499799101380631
58094	50	184	0	0	dandelion	472	184	0	stimuli\dandelion\dandelion_09s.jpg	8	-1	0	0	dandelion_09s.jpg	0	0	0	74.187506095157	74.2374860052951	0.0499799101380631
58194	50	185	0	0	breadstick	196	185	0	stimuli\breadstick\breadstick_02s.jpg	1	-1	0	0	breadstick_02s.jpg	0	0	0	74.2874917592853	74.3374697188847	0.0499779595993459
58294	50	186	0	0	stir_fry	1557	186	0	stimuli\stir_fry\stir_fry_05s.jpg	4	-1	0	0	stir_fry_05s.jpg	0	0	0	74.3875103375176	74.4374951238278	0.0499847863102332
58394	50	187	0	0	icemaker	821	187	0	stimuli\icemaker\icemaker_07s.jpg	6	-1	0	0	icemaker_07s.jpg	0	0	0	74.4875123366946	74.5374929782702	0.0499806415755302
58494	50	188	0	0	mustard	1044	188	0	stimuli\mustard\mustard_06s.jpg	5	-1	0	1	mustard_06s.jpg	0	0	0	74.5874911741121	74.6374979031971	0.0500067290849984
58594	50	189	0	0	headdress	763	189	0	stimuli\headdress\headdress_02s.jpg	1	-1	0	0	headdress_02s.jpg	0	0	0	74.6875204798998	74.737496732967	0.0499762530671433
58694	50	190	0	0	top_hat	1682	190	0	stimuli\top_hat\top_hat_10s.jpg	9	-1	0	0	top_hat_10s.jpg	0	0	0	74.7875215039821	74.8375031207688	0.0499816167866811
58794	50	191	0	0	hash	756	191	0	stimuli\hash\hash_08s.jpg	7	-1	0	0	hash_08s.jpg	1	0.341949225286953	1	74.887526428909	74.9375092646806	0.049982835771516
58894	50	192	0	0	watch	1786	192	0	stimuli\watch\watch_04s.jpg	3	-1	0	0	watch_04s.jpg	0	0	0	74.9875084357336	75.0375085821142	0.0500001463806257
58994	50	193	0	0	sawhorse	1367	193	0	stimuli\sawhorse\sawhorse_11s.jpg	10	-1	0	0	sawhorse_11s.jpg	0	0	0	75.0875245759962	75.137508630869	0.0499840548727661
59094	50	194	0	0	firecracker	594	194	0	stimuli\firecracker\firecracker_12s.jpg	11	-1	0	0	firecracker_12s.jpg	0	0	0	75.1875287694857	75.237506729085	0.0499779595993459
59194	50	195	0	0	clarinet	350	195	0	stimuli\clarinet\clarinet_09s.jpg	8	-1	0	0	clarinet_09s.jpg	0	0	0	75.2875273553655	75.3375136045506	0.0499862491851673
59294	50	196	0	0	shell2	1418	196	0	stimuli\shell2\shell2_02s.jpg	1	-1	0	0	shell2_02s.jpg	0	0	0	75.3875291107688	75.4375182857038	0.0499891749350354
59394	50	197	0	0	dumbbell	530	197	0	stimuli\dumbbell\dumbbell_05s.jpg	4	-1	0	0	dumbbell_05s.jpg	0	0	0	75.4875384243205	75.5375163839199	0.0499779595993459
59494	50	198	0	0	balloon	60	198	0	stimuli\balloon\balloon_12s.jpg	11	-1	0	0	balloon_12s.jpg	0	0	0	75.5875413988251	75.6375259412453	0.0499845424201339
59594	50	199	0	0	beanbag	103	199	0	stimuli\beanbag\beanbag_04s.jpg	3	-1	0	0	beanbag_04s.jpg	0	0	0	75.6875421790173	75.7375223329291	0.049980153911747
59694	50	200	0	0	urn	1749	200	0	stimuli\urn\urn_09s.jpg	8	-1	0	0	urn_09s.jpg	0	0	0	75.7875402772333	75.8375265264185	0.0499862491851673
59794	50	201	0	0	ear	538	201	0	stimuli\ear\ear_03s.jpg	2	-1	0	0	ear_03s.jpg	0	0	0	75.8875466650352	75.9375263313996	0.0499796663643792
59894	50	202	0	0	chisel	336	202	0	stimuli\chisel\chisel_04s.jpg	3	-1	0	0	chisel_04s.jpg	0	0	0	75.9875459823525	76.0375273553655	0.0499813730129972
59994	50	203	0	0	camera1	246	203	0	stimuli\camera1\camera1_01b.jpg	0	-1	0	0	camera1_01b.jpg	0	0	0	76.0875494445208	76.1375334993936	0.0499840548727661
60094	50	204	0	0	projector	1242	204	0	stimuli\projector\projector_08s.jpg	7	-1	0	0	projector_08s.jpg	0	0	0	76.187550224713	76.2375354985707	0.049985273857601
60194	50	205	0	0	chalkboard	303	205	0	stimuli\chalkboard\chalkboard_09s.jpg	8	-1	0	0	chalkboard_09s.jpg	0	0	0	76.2875692906091	76.3375394482864	0.0499701576773077
60294	50	206	0	0	ant	24	206	0	stimuli\ant\ant_03s.jpg	2	-1	0	0	ant_03s.jpg	0	0	0	76.3875583679182	76.4375380341662	0.0499796662479639
60394	50	207	0	0	beachball	99	207	0	stimuli\beachball\beachball_04s.jpg	3	-1	0	0	beachball_04s.jpg	0	0	0	76.4875576852355	76.5375414963346	0.0499838110990822
60494	50	208	0	0	bikini	124	208	0	stimuli\bikini\bikini_04s.jpg	3	-1	0	0	bikini_04s.jpg	0	0	0	76.5875626101624	76.637543251738	0.0499806415755302
60594	50	209	0	0	licorice	922	209	0	stimuli\licorice\licorice_02s.jpg	1	-1	0	0	licorice_02s.jpg	0	0	0	76.6875663161045	76.7375442757038	0.0499779595993459
60694	50	210	0	0	coyote	427	210	0	stimuli\coyote\coyote_06s.jpg	5	-1	0	0	coyote_06s.jpg	0	0	0	76.7875695343828	76.8375501759583	0.0499806415755302
60794	50	211	0	0	tablet	1610	211	0	stimuli\tablet\tablet_02s.jpg	1	-1	0	0	tablet_02s.jpg	0	0	0	76.8875732402084	76.9375511999242	0.0499779597157612
60894	50	212	0	0	hopscotch	796	212	0	stimuli\hopscotch\hopscotch_11s.jpg	10	-1	0	0	hopscotch_11s.jpg	0	0	0	76.9875764586031	77.0375524677802	0.049976009177044
60994	50	213	0	0	fishhook	602	213	0	stimuli\fishhook\fishhook_04s.jpg	3	-1	0	0	fishhook_04s.jpg	0	0	0	77.0875784577802	77.1375551983947	0.0499767406145111
61094	50	214	0	0	pump	1252	214	0	stimuli\pump\pump_05s.jpg	4	-1	0	0	pump_05s.jpg	0	0	0	77.1875777750975	77.2375571975717	0.04997942247428
61194	50	215	0	0	apple	30	215	0	stimuli\apple\apple_02s.jpg	1	-1	0	0	apple_02s.jpg	0	0	0	77.2875807496021	77.3375587092014	0.0499779595993459
61294	50	216	0	0	teddy_bear	1635	216	0	stimuli\teddy_bear\teddy_bear_06s.jpg	5	-1	0	0	teddy_bear_06s.jpg	0	0	0	77.3875815297943	77.4375633903546	0.049981860560365
61394	50	217	0	0	gumdrop	726	217	0	stimuli\gumdrop\gumdrop_07s.jpg	6	-1	0	0	gumdrop_07s.jpg	0	0	0	77.4875845042989	77.5375663648592	0.049981860560365
61494	50	218	0	0	toucan	1690	218	0	stimuli\toucan\toucan_10s.jpg	9	-1	0	0	toucan_10s.jpg	0	0	0	77.5875882101245	77.6375705583487	0.0499823482241482
61594	50	219	0	0	cauliflower	288	219	0	stimuli\cauliflower\cauliflower_04s.jpg	3	-1	0	0	cauliflower_04s.jpg	0	0	0	77.6875785065349	77.7375576852355	0.0499791787005961
61694	50	220	0	0	matchbox	984	220	0	stimuli\matchbox\matchbox_06s.jpg	5	-1	0	0	matchbox_06s.jpg	0	0	0	77.7875770924147	77.8375587092014	0.0499816167866811
61794	50	221	0	0	pepper2	1150	221	0	stimuli\pepper2\pepper2_02s.jpg	1	-1	0	0	pepper2_02s.jpg	0	0	0	77.8876066420926	77.9375811883947	0.04997454630211
61894	50	222	0	0	eyepiece	568	222	0	stimuli\eyepiece\eyepiece_03s.jpg	2	-1	0	0	eyepiece_03s.jpg	0	0	0	77.9876044966513	78.0375663648592	0.0499618682079017
61994	50	223	0	0	cashew	281	223	0	stimuli\cashew\cashew_01b.jpg	0	-1	0	0	cashew_01b.jpg	0	0	0	78.0876062520547	78.1375890878262	0.049982835771516
62094	50	224	0	0	trough	1718	224	0	stimuli\trough\trough_09s.jpg	8	-1	0	0	trough_09s.jpg	0	0	0	78.1875894779805	78.237570119556	0.0499806415755302
62194	50	225	0	0	squirt_gun	1530	225	0	stimuli\squirt_gun\squirt_gun_02s.jpg	1	-1	0	0	squirt_gun_02s.jpg	0	0	0	78.2875897705089	78.3375904044369	0.0500006339279935
62294	50	226	0	0	peeler	1138	226	0	stimuli\peeler\peeler_10s.jpg	9	-1	0	0	peeler_10s.jpg	0	0	0	78.3876176135382	78.4375904531917	0.049972839653492
62394	50	227	0	0	flagpole	606	227	0	stimuli\flagpole\flagpole_11s.jpg	10	-1	0	0	flagpole_11s.jpg	0	0	0	78.4876113232458	78.5375953781186	0.0499840548727661
62494	50	228	0	0	shoehorn	1425	228	0	stimuli\shoehorn\shoehorn_07s.jpg	6	-1	0	0	shoehorn_07s.jpg	0	0	0	78.5876147852978	78.6375983526232	0.0499835673253983
62594	50	229	0	0	calf1	241	229	0	stimuli\calf1\calf1_10s.jpg	9	-1	0	0	calf1_10s.jpg	0	0	0	78.6876182474662	78.7375971822767	0.0499789348104969
62694	50	230	0	0	bison	134	230	0	stimuli\bison\bison_06s.jpg	5	-1	0	0	bison_06s.jpg	0	0	0	78.7876219532918	78.8376045454061	0.0499825921142474
62794	50	231	0	0	vest	1759	231	0	stimuli\vest\vest_08s.jpg	7	-1	0	0	vest_08s.jpg	0	0	0	78.8876134688035	78.9376023998484	0.0499889310449362
62894	50	232	0	0	trigger	1713	232	0	stimuli\trigger\trigger_12s.jpg	11	-1	0	0	trigger_12s.jpg	0	0	0	78.9876264394261	79.0376068372279	0.0499803978018463
62994	50	233	0	0	celery	291	233	0	stimuli\celery\celery_06s.jpg	5	-1	0	0	celery_06s.jpg	0	0	0	79.0876296577044	79.1376112744911	0.0499816167866811
63094	50	234	0	0	sickle	1441	234	0	stimuli\sickle\sickle_10s.jpg	9	-1	0	0	sickle_10s.jpg	0	0	0	79.1876206855522	79.2376120546833	0.0499913691310212
63194	50	235	0	0	teabag	1632	235	0	stimuli\teabag\teabag_11s.jpg	10	-1	0	0	teabag_11s.jpg	0	0	0	79.2876343876123	79.3376155167352	0.049981129122898
63294	50	236	0	0	wallet	1776	236	0	stimuli\wallet\wallet_02s.jpg	1	-1	0	0	wallet_02s.jpg	0	0	0	79.3876417506253	79.437617272255	0.0499755216296762
63394	50	237	0	0	hoe	784	237	0	stimuli\hoe\hoe_03s.jpg	2	-1	0	0	hoe_03s.jpg	0	0	0	79.4876371669816	79.5376212219708	0.0499840549891815
63494	50	238	0	0	plunger	1204	238	0	stimuli\plunger\plunger_04s.jpg	3	-1	0	0	plunger_04s.jpg	0	0	0	79.5876433110097	79.6376232211478	0.0499799101380631
63594	50	239	0	0	wolf	1831	239	0	stimuli\wolf\wolf_01b.jpg	0	-1	0	0	wolf_01b.jpg	0	0	0	79.6876460417407	79.7376254642149	0.04997942247428
63694	50	240	0	0	sarcophagus	1358	240	0	stimuli\sarcophagus\sarcophagus_02s.jpg	1	-1	0	0	sarcophagus_02s.jpg	0	0	0	79.787643896183	79.8376269758446	0.0499830796616152
63794	50	241	0	0	slime	1465	241	0	stimuli\slime\slime_03s.jpg	2	-1	0	0	slime_03s.jpg	0	0	0	79.8876483334461	79.9376284874743	0.0499801540281624
63894	50	242	0	0	exerciser	561	242	0	stimuli\exerciser\exerciser_03s.jpg	2	-1	0	0	exerciser_03s.jpg	0	0	0	79.9876505765133	80.0376356067136	0.0499850302003324
63994	50	243	0	0	suit	1580	243	0	stimuli\suit\suit_02s.jpg	1	-1	0	0	suit_02s.jpg	0	0	0	80.0876555014402	80.1376349240309	0.0499794225906953
64094	50	244	0	0	popcorn	1223	244	0	stimuli\popcorn\popcorn_09s.jpg	8	-1	0	0	popcorn_09s.jpg	0	0	0	80.1876565255225	80.237635460333	0.0499789348104969
64194	50	245	0	0	pudding	1246	245	0	stimuli\pudding\pudding_03s.jpg	2	-1	0	0	pudding_03s.jpg	0	0	0	80.2876621818868	80.3376423357986	0.049980153911747
64294	50	246	0	0	mold1	1012	246	0	stimuli\mold1\mold1_06s.jpg	5	-1	0	0	mold1_06s.jpg	0	0	0	80.387664424954	80.4376253179507	0.0499608929967508
64394	50	247	0	0	grill	714	247	0	stimuli\grill\grill_06s.jpg	5	-1	0	0	grill_06s.jpg	0	0	0	80.4876656926936	80.5376275609015	0.0499618682079017
64494	50	248	0	0	broom	203	248	0	stimuli\broom\broom_07s.jpg	6	-1	0	0	broom_07s.jpg	0	0	0	80.5876686671982	80.6376480896724	0.04997942247428
64594	50	249	0	0	thermometer	1646	249	0	stimuli\thermometer\thermometer_11s.jpg	10	-1	0	0	thermometer_11s.jpg	0	0	0	80.6876655464293	80.7376496013021	0.0499840548727661
64694	50	250	0	0	eyedropper	566	250	0	stimuli\eyedropper\eyedropper_06s.jpg	5	-1	0	0	eyedropper_06s.jpg	0	0	0	80.7876702275826	80.8376542824553	0.0499840548727661
64794	50	251	0	0	origami	1083	251	0	stimuli\origami\origami_01b.jpg	0	-1	0	0	origami_01b.jpg	0	0	0	80.887674421072	80.937655794085	0.0499813730129972
64894	50	252	0	0	canoe	262	252	0	stimuli\canoe\canoe_08s.jpg	7	-1	0	0	canoe_08s.jpg	0	0	0	80.9876730069518	81.0376575494884	0.0499845425365493
64994	50	253	0	0	cleaver	354	253	0	stimuli\cleaver\cleaver_02s.jpg	1	-1	0	0	cleaver_02s.jpg	0	0	0	81.08767915098	81.1376632058527	0.0499840548727661
65094	50	254	0	0	touchpad	1691	254	0	stimuli\touchpad\touchpad_09s.jpg	8	-1	0	1	touchpad_09s.jpg	0	0	0	81.1876843196806	81.2376464317786	0.0499621120980009
65194	50	255	0	0	boulder	172	255	0	stimuli\boulder\boulder_09s.jpg	8	-1	0	0	boulder_09s.jpg	0	0	0	81.2876865627477	81.337667691987	0.0499811292393133
65294	50	256	0	0	chinchilla	332	256	0	stimuli\chinchilla\chinchilla_07s.jpg	6	-1	0	0	chinchilla_07s.jpg	0	0	0	81.3876856362913	81.4376653026557	0.0499796663643792
65394	50	257	0	0	crystal_ball	455	257	0	stimuli\crystal_ball\crystal_ball_07s.jpg	6	-1	0	0	crystal_ball_07s.jpg	1	0.292170945438556	1	81.4876893422334	81.5376714465674	0.0499821043340489
65494	50	258	0	0	antelope	26	258	0	stimuli\antelope\antelope_02n.jpg	1	-1	0	0	antelope_02n.jpg	0	0	0	81.587690853863	81.6376719829859	0.049981129122898
65594	50	259	0	0	wagon	1772	259	0	stimuli\wagon\wagon_05s.jpg	4	-1	0	0	wagon_05s.jpg	0	0	0	81.6876945596887	81.7376798336627	0.0499852739740163
65694	50	260	0	0	closet	360	260	0	stimuli\closet\closet_11s.jpg	10	-1	0	0	closet_11s.jpg	0	0	0	81.7876875380753	81.8376789072063	0.0499913691310212
65794	50	261	0	0	map	970	261	0	stimuli\map\map_12s.jpg	11	-1	0	0	map_12s.jpg	0	0	0	81.8877080667298	81.9376794435084	0.0499713767785579
65894	50	262	0	0	lip_gloss	935	262	0	stimuli\lip_gloss\lip_gloss_05s.jpg	4	-1	0	0	lip_gloss_05s.jpg	0	0	0	81.9877034830861	82.0376653514104	0.049961868324317
65994	50	263	0	0	polar_bear	1211	263	0	stimuli\polar_bear\polar_bear_11s.jpg	10	-1	0	0	polar_bear_11s.jpg	0	0	0	82.087702312856	82.1376934382133	0.0499911253573373
66094	50	264	0	0	penguin	1145	264	0	stimuli\penguin\penguin_02s.jpg	1	-1	0	0	penguin_02s.jpg	0	0	0	82.1877079692204	82.237687147921	0.0499791787005961
66194	50	265	0	0	paperweight	1117	265	0	stimuli\paperweight\paperweight_02s.jpg	1	-1	0	0	paperweight_02s.jpg	0	0	0	82.2877067989903	82.3376932919491	0.0499864929588512
66294	50	266	0	0	hookah	795	266	0	stimuli\hookah\hookah_04s.jpg	3	-1	0	0	hookah_04s.jpg	0	0	0	82.3877131867921	82.4376916340552	0.0499784472631291
66394	50	267	0	0	bottle	170	267	0	stimuli\bottle\bottle_02n.jpg	1	-1	0	0	bottle_02n.jpg	0	0	0	82.4877134793205	82.5376943646697	0.0499808853492141
66494	50	268	0	0	switch	1600	268	0	stimuli\switch\switch_10s.jpg	9	-1	0	0	switch_10s.jpg	0	0	0	82.5877186480211	82.6376970952842	0.0499784472631291
66594	50	269	0	0	pasta	1123	269	0	stimuli\pasta\pasta_02s.jpg	1	-1	0	0	pasta_02s.jpg	0	0	0	82.6877182092285	82.7376993383514	0.049981129122898
66694	50	270	0	0	meat	987	270	0	stimuli\meat\meat_04s.jpg	3	-1	0	0	meat_04s.jpg	0	0	0	82.7877046046779	82.8377047509421	0.0500001462642103
66794	50	271	0	0	police_car	1214	271	0	stimuli\police_car\police_car_02s.jpg	1	-1	0	0	police_car_02s.jpg	0	0	0	82.8877144057769	82.9376899272902	0.0499755215132609
66894	50	272	0	0	eagle	537	272	0	stimuli\eagle\eagle_05s.jpg	4	-1	0	0	eagle_05s.jpg	0	0	0	82.9877086031483	83.0377085056389	0.0499999024905264
66994	50	273	0	0	paint	1096	273	0	stimuli\paint\paint_12s.jpg	11	-1	0	0	paint_12s.jpg	0	0	0	83.0877303509042	83.137709041941	0.049978691036813
67094	50	274	0	0	blanket	136	274	0	stimuli\blanket\blanket_12s.jpg	11	-1	0	0	blanket_12s.jpg	0	0	0	83.1877282053465	83.2377100660233	0.0499818606767803
67194	50	275	0	0	rosary	1333	275	0	stimuli\rosary\rosary_10s.jpg	9	-1	0	0	rosary_10s.jpg	0	0	0	83.2877172827721	83.3377001185436	0.049982835771516
67294	50	276	0	0	balance_beam	58	276	0	stimuli\balance_beam\balance_beam_10s.jpg	9	-1	0	0	balance_beam_10s.jpg	0	0	0	83.3877380553167	83.4377169901272	0.0499789348104969
67394	50	277	0	0	pita	1189	277	0	stimuli\pita\pita_03s.jpg	2	-1	0	0	pita_03s.jpg	0	0	0	83.4877363974229	83.5377009474905	0.0499645500676706
67494	50	278	0	0	platypus	1198	278	0	stimuli\platypus\platypus_05s.jpg	4	-1	0	0	platypus_05s.jpg	0	0	0	83.5877430289984	83.6377219639253	0.0499789349269122
67594	50	279	0	0	lamppost	892	279	0	stimuli\lamppost\lamppost_09s.jpg	8	-1	0	0	lamppost_09s.jpg	0	0	0	83.6877491730265	83.7377076279372	0.0499584549106658
67694	50	280	0	0	paper_plate	1114	280	0	stimuli\paper_plate\paper_plate_05s.jpg	4	-1	0	0	paper_plate_05s.jpg	0	0	0	83.7877458083676	83.8377303509042	0.0499845425365493
67794	50	281	0	0	footprint	632	281	0	stimuli\footprint\footprint_03s.jpg	2	-1	0	0	footprint_03s.jpg	0	0	0	83.8877507334109	83.9377155273687	0.0499647939577699
67894	50	282	0	0	oil	1072	282	0	stimuli\oil\oil_03s.jpg	2	-1	0	0	oil_03s.jpg	0	0	0	83.987737372634	84.0377321550623	0.0499947824282572
67994	50	283	0	0	orange_rind	1079	283	0	stimuli\orange_rind\orange_rind_03s.jpg	2	-1	0	0	orange_rind_03s.jpg	0	0	0	84.0877605832648	84.1377370799892	0.0499764967244118
68094	50	284	0	0	videocassette	1761	284	0	stimuli\videocassette\videocassette_10n.jpg	9	-1	0	0	videocassette_10n.jpg	0	0	0	84.1877550244099	84.2377361535328	0.049981129122898
68194	50	285	0	0	riser	1314	285	0	stimuli\riser\riser_04s.jpg	3	-1	0	0	riser_04s.jpg	0	0	0	84.2877577550244	84.3377401032485	0.0499823482241482
68294	50	286	0	0	tape_measure	1623	286	0	stimuli\tape_measure\tape_measure_11s.jpg	10	-1	0	0	tape_measure_11s.jpg	0	0	0	84.3877595105441	84.4377438091906	0.04998429864645
68394	50	287	0	0	roadsweeper	1316	287	0	stimuli\roadsweeper\roadsweeper_09s.jpg	8	-1	0	0	roadsweeper_09s.jpg	0	0	0	84.4877646792447	84.5377445893828	0.0499799101380631
68494	50	288	0	0	pillbox	1175	288	0	stimuli\pillbox\pillbox_03s.jpg	2	-1	0	0	pillbox_03s.jpg	0	0	0	84.5877676537493	84.6377543904819	0.0499867367325351
68594	50	289	0	0	pantyhose	1110	289	0	stimuli\pantyhose\pantyhose_12s.jpg	11	-1	0	0	pantyhose_12s.jpg	0	0	0	84.6877672148403	84.7377502945019	0.0499830796616152
68694	50	290	0	0	flipper	615	290	0	stimuli\flipper\flipper_04s.jpg	3	-1	0	0	flipper_04s.jpg	0	0	0	84.7877597055631	84.8377530251164	0.0499933195533231
68794	50	291	0	0	birdhouse	131	291	0	stimuli\birdhouse\birdhouse_07s.jpg	6	-1	0	0	birdhouse_07s.jpg	0	0	0	84.8877760894829	84.9377545367461	0.0499784472631291
68894	50	292	0	0	wire	1828	292	0	stimuli\wire\wire_04s.jpg	3	-1	0	0	wire_04s.jpg	0	0	0	84.9877768696751	85.0377484903438	0.0499716206686571
68994	50	293	0	0	wheelbarrow	1807	293	0	stimuli\wheelbarrow\wheelbarrow_06s.jpg	5	-1	0	0	wheelbarrow_06s.jpg	0	0	0	85.0877813070547	85.1377590228803	0.049977715825662
69094	50	294	0	0	snack	1475	294	0	stimuli\snack\snack_05s.jpg	4	-1	0	0	snack_05s.jpg	0	0	0	85.1877820872469	85.2377498068381	0.0499677195912227
69194	50	295	0	0	taxi	1630	295	0	stimuli\taxi\taxi_12s.jpg	11	-1	0	0	taxi_12s.jpg	0	0	0	85.2877699455712	85.3377659471007	0.0499960015295073
69294	50	296	0	0	totem_pole	1689	296	0	stimuli\totem_pole\totem_pole_08s.jpg	7	-1	0	0	totem_pole_08s.jpg	0	0	0	85.3877853542799	85.4377684339415	0.0499830796616152
69395	50	297	0	0	brownie	204	297	0	stimuli\brownie\brownie_05s.jpg	4	-1	0	0	brownie_05s.jpg	0	0	0	85.4877902792068	85.5377753092907	0.0499850300839171
69495	50	298	0	0	shovel	1432	298	0	stimuli\shovel\shovel_01b.jpg	0	-1	0	0	shovel_01b.jpg	0	0	0	85.58779496036	85.637773895287	0.0499789349269122
69595	50	299	0	0	missile	1006	299	0	stimuli\missile\missile_12n.jpg	11	-1	0	0	missile_12n.jpg	0	0	0	85.6877798929345	85.7377754068002	0.0499955138657242
69695	50	300	0	0	lighter	928	300	0	stimuli\lighter\lighter_11s.jpg	10	-1	0	0	lighter_11s.jpg	0	0	0	85.7877982273931	85.837781063281	0.0499828358879313
69795	50	301	0	0	bike	123	301	0	stimuli\bike\bike_01b.jpg	0	-1	0	0	bike_01b.jpg	0	0	0	85.8878002266865	85.9377635577694	0.0499633310828358
69895	50	302	0	0	minivan	1003	302	0	stimuli\minivan\minivan_07s.jpg	6	-1	0	0	minivan_07s.jpg	0	0	0	85.9878049077233	86.0377723836573	0.0499674759339541
69995	50	303	0	0	revolver	1304	303	0	stimuli\revolver\revolver_10s.jpg	9	-1	0	0	revolver_10s.jpg	0	0	0	86.0878073945642	86.137783891405	0.0499764968408272
70095	50	304	0	0	sock	1489	304	0	stimuli\sock\sock_09s.jpg	8	-1	0	0	sock_09s.jpg	0	0	0	86.1877896452788	86.237765898346	0.0499762530671433
70195	50	305	0	0	bed	108	305	0	stimuli\bed\bed_11n.jpg	10	-1	0	0	bed_11n.jpg	0	0	0	86.2878062730888	86.3377998365322	0.0499935634434223
70295	50	306	0	0	screw	1390	306	0	stimuli\screw\screw_05s.jpg	4	-1	0	0	screw_05s.jpg	0	0	0	86.3878146114293	86.4377915958175	0.049976984388195
70395	50	307	0	0	potpie	1234	307	0	stimuli\potpie\potpie_10s.jpg	9	-1	0	0	potpie_10s.jpg	0	0	0	86.4878151477315	86.5377640940715	0.0499489463400096
70495	50	308	0	0	ball	59	308	0	stimuli\ball\ball_05s.jpg	4	-1	0	0	ball_05s.jpg	0	0	0	86.5878020308446	86.637797788484	0.0499957576394081
76511	50	309	0	0	zebra	1851	0	1	stimuli\zebra\zebra_04s.jpg	3	-1	1	0	zebra_04s.jpg	0	0	0	92.6046382748755	92.6546145279426	0.0499762530671433
76611	50	310	0	0	doily	498	1	1	stimuli\doily\doily_07s.jpg	6	-1	1	0	doily_07s.jpg	0	0	0	92.7046341788955	92.7546136013698	0.04997942247428
76711	50	311	0	0	lobster	939	2	1	stimuli\lobster\lobster_01b.jpg	0	-1	1	0	lobster_01b.jpg	0	0	0	92.8046337401029	92.854616088327	0.0499823482241482
76811	50	312	0	0	dart	473	3	1	stimuli\dart\dart_09s.jpg	8	-1	1	0	dart_09s.jpg	0	0	0	92.9046406154521	92.9546254017623	0.0499847863102332
76911	50	313	0	0	hawk	760	4	1	stimuli\hawk\hawk_10s.jpg	9	-1	1	0	hawk_10s.jpg	0	0	0	93.0046435899567	93.0546237438684	0.049980153911747
77011	50	314	0	0	soldering_iron	1494	5	1	stimuli\soldering_iron\soldering_iron_07s.jpg	6	-1	1	0	soldering_iron_07s.jpg	0	0	0	93.1046446139226	93.1546298878966	0.0499852739740163
77111	50	315	0	0	viewfinder	1763	6	1	stimuli\viewfinder\viewfinder_01s.jpg	0	-1	1	0	viewfinder_01s.jpg	0	0	0	93.2046400302788	93.254601654713	0.0499616244342178
77211	50	316	0	0	raincoat	1279	7	1	stimuli\raincoat\raincoat_04s.jpg	3	-1	1	0	raincoat_04s.jpg	0	0	0	93.3046364219626	93.3546009721467	0.049964550184086
77311	50	317	0	0	money	1015	8	1	stimuli\money\money_08s.jpg	7	-1	1	0	money_08s.jpg	0	0	0	93.4046218422009	93.4546046779724	0.049982835771516
77411	50	318	0	0	doghouse	497	9	1	stimuli\doghouse\doghouse_03s.jpg	2	-1	1	0	doghouse_03s.jpg	0	0	0	93.504662607098	93.5546478809556	0.049985273857601
77511	50	319	0	0	barcode	73	10	1	stimuli\barcode\barcode_08s.jpg	7	-1	1	0	barcode_08s.jpg	0	0	0	93.6046643625014	93.6546428097645	0.0499784472631291
77611	50	320	0	0	radish	1274	11	1	stimuli\radish\radish_06n.jpg	5	-1	1	0	radish_06n.jpg	0	0	0	93.7046705065295	93.7546155519085	0.0499450453789905
77711	50	321	0	0	walrus	1779	12	1	stimuli\walrus\walrus_03s.jpg	2	-1	1	0	walrus_03s.jpg	0	0	0	93.8046349590877	93.8546136501245	0.049978691036813
77811	50	322	0	0	violin	1764	13	1	stimuli\violin\violin_05s.jpg	4	-1	1	0	violin_05s.jpg	0	0	0	93.9046374459285	93.9546200379264	0.0499825919978321
77911	50	323	0	0	zipper	1852	14	1	stimuli\zipper\zipper_03s.jpg	2	-1	1	0	zipper_03s.jpg	0	0	0	94.0046721156687	94.0546561705414	0.0499840548727661
78011	50	324	0	0	batter	96	15	1	stimuli\batter\batter_09s.jpg	8	-1	1	0	batter_09s.jpg	0	0	0	94.1046755777206	94.1546591449296	0.049983567208983
78111	50	325	0	0	screen1	1388	16	1	stimuli\screen1\screen1_01b.jpg	0	-1	1	0	screen1_01b.jpg	0	0	0	94.2046646550298	94.2546835746616	0.0500189196318388
78211	50	326	0	0	jam	839	17	1	stimuli\jam\jam_07s.jpg	6	-1	1	0	jam_07s.jpg	0	0	0	94.3046854275744	94.3546611929778	0.0499757654033601
78311	50	327	0	0	iron	832	18	1	stimuli\iron\iron_11s.jpg	10	-1	1	0	iron_11s.jpg	0	0	0	94.4046835259069	94.4546695312019	0.049986005295068
78411	50	328	0	0	pocket	1205	19	1	stimuli\pocket\pocket_08s.jpg	7	-1	1	0	pocket_08s.jpg	0	0	0	94.5046865004115	94.5546666543232	0.049980153911747
78511	50	329	0	0	blinder	141	20	1	stimuli\blinder\blinder_03s.jpg	2	-1	1	0	blinder_03s.jpg	0	0	0	94.6046884995885	94.6546710915864	0.0499825919978321
78611	50	330	0	0	wrench	1841	21	1	stimuli\wrench\wrench_08s.jpg	7	-1	1	0	wrench_08s.jpg	0	0	0	94.704695131164	94.7546730908798	0.0499779597157612
78711	50	331	0	0	collar	387	22	1	stimuli\collar\collar_04s.jpg	3	-1	1	0	collar_04s.jpg	0	0	0	94.8046944485977	94.8546572920168	0.0499628434190527
78811	50	332	0	0	bank	69	23	1	stimuli\bank\bank_10s.jpg	9	-1	1	0	bank_10s.jpg	0	0	0	94.9046993735246	94.9546780645614	0.049978691036813
78911	50	333	0	0	puck	1245	24	1	stimuli\puck\puck_02s.jpg	1	-1	1	0	puck_02s.jpg	0	0	0	95.0046813803492	95.0546803076286	0.0499989272793755
79011	50	334	0	0	cobra	371	25	1	stimuli\cobra\cobra_04s.jpg	3	-1	1	0	cobra_04s.jpg	0	0	0	95.1046889872523	95.1546823068056	0.0499933195533231
79111	50	335	0	0	torch	1683	26	1	stimuli\torch\torch_05s.jpg	4	-1	1	0	torch_05s.jpg	0	0	0	95.2047053711722	95.2546704089036	0.0499650377314538
79211	50	336	0	0	birthday_cake	132	27	1	stimuli\birthday_cake\birthday_cake_04s.jpg	3	-1	1	0	birthday_cake_04s.jpg	0	0	0	95.3047051761532	95.354689231026	0.0499840548727661
79311	50	337	0	0	ballot_box	61	28	1	stimuli\ballot_box\ballot_box_01b.jpg	0	-1	1	0	ballot_box_01b.jpg	0	0	0	95.404709125869	95.4546943997266	0.049985273857601
79411	50	338	0	0	tee	1636	29	1	stimuli\tee\tee_07s.jpg	6	-1	1	0	tee_07s.jpg	0	0	0	95.5046967403032	95.5546907914104	0.0499940511072055
79511	50	339	0	0	staple	1537	30	1	stimuli\staple\staple_10s.jpg	9	-1	1	0	staple_10s.jpg	0	0	0	95.6047140995506	95.6546986420872	0.0499845425365493
79611	50	340	0	0	man	963	31	1	stimuli\man\man_12s.jpg	11	-1	1	0	man_12s.jpg	0	0	0	95.7047217064537	95.7546962527558	0.04997454630211
79711	50	341	0	0	parking_meter	1120	32	1	stimuli\parking_meter\parking_meter_03s.jpg	2	-1	1	0	parking_meter_03s.jpg	0	0	0	95.8047183417948	95.8547062976286	0.0499879558337852
79811	50	342	0	0	tennis_ball	1642	33	1	stimuli\tennis_ball\tennis_ball_10s.jpg	9	-1	1	0	tennis_ball_10s.jpg	0	0	0	95.904707662994	95.9547007387737	0.0499930757796392
79911	50	343	0	0	marble	972	34	1	stimuli\marble\marble_10s.jpg	9	-1	1	0	marble_10s.jpg	0	0	0	96.0047284355387	96.0547076142393	0.0499791787005961
80011	50	344	0	0	badger	53	35	1	stimuli\badger\badger_08s.jpg	7	-1	1	0	badger_08s.jpg	0	0	0	96.1047272653086	96.1547062001191	0.0499789348104969
80111	50	345	0	0	wok	1830	36	1	stimuli\wok\wok_01b.jpg	0	-1	1	0	wok_01b.jpg	0	0	0	96.2047299959231	96.2546928394586	0.049962843535468
80211	50	346	0	0	boat	154	37	1	stimuli\boat\boat_05s.jpg	4	-1	1	0	boat_05s.jpg	0	0	0	96.3047144409502	96.3546987395966	0.04998429864645
80311	50	347	0	0	goalpost	683	38	1	stimuli\goalpost\goalpost_01b.jpg	0	-1	1	0	goalpost_01b.jpg	0	0	0	96.404719121987	96.4547465749783	0.050027452991344
80411	50	348	0	0	stained_glass	1531	39	1	stimuli\stained_glass\stained_glass_01b.jpg	0	-1	1	0	stained_glass_01b.jpg	0	0	0	96.5047218527179	96.5547173665836	0.0499955138657242
80511	50	349	0	0	garlic	658	40	1	stimuli\garlic\garlic_02s.jpg	1	-1	1	0	garlic_02s.jpg	0	0	0	96.6047379928641	96.6547239982756	0.0499860054114833
80611	50	350	0	0	aluminum_foil	17	41	1	stimuli\aluminum_foil\aluminum_foil_04s.jpg	3	-1	1	0	aluminum_foil_04s.jpg	0	0	0	96.7047280455008	96.7546969841933	0.0499689386924729
80711	50	351	0	0	wrist	1842	42	1	stimuli\wrist\wrist_08s.jpg	7	-1	1	0	wrist_08s.jpg	0	0	0	96.8047461360693	96.8547243395587	0.0499782034894451
80811	50	352	0	0	letter_opener	919	43	1	stimuli\letter_opener\letter_opener_10s.jpg	9	-1	1	0	letter_opener_10s.jpg	0	0	0	96.9047481353628	96.9547280455008	0.0499799101380631
80911	50	353	0	0	trunk	1722	44	1	stimuli\trunk\trunk_02s.jpg	1	-1	1	0	trunk_02s.jpg	0	0	0	97.0047496469924	97.0547305323416	0.0499808853492141
81011	50	354	0	0	champagne	304	45	1	stimuli\champagne\champagne_05s.jpg	4	-1	1	0	champagne_05s.jpg	0	0	0	97.1047360424418	97.1547396020032	0.0500035595614463
81111	50	355	0	0	honeypot	790	46	1	stimuli\honeypot\honeypot_12s.jpg	11	-1	1	0	honeypot_12s.jpg	0	0	0	97.2047575464239	97.2547333117109	0.0499757652869448
81211	50	356	0	0	mashed_potato	979	47	1	stimuli\mashed_potato\mashed_potato_10s.jpg	9	-1	1	0	mashed_potato_10s.jpg	0	0	0	97.3047602770384	97.3547372614266	0.049976984388195
81311	50	357	0	0	casserole	282	48	1	stimuli\casserole\casserole_04s.jpg	3	-1	1	0	casserole_04s.jpg	0	0	0	97.4047435029643	97.4547402359312	0.0499967329669744
81411	50	358	0	0	bulletin_board	217	49	1	stimuli\bulletin_board\bulletin_board_06s.jpg	5	-1	1	0	bulletin_board_06s.jpg	0	0	0	97.5047645192826	97.5547451608581	0.0499806415755302
81511	50	359	0	0	t-shirt	1606	50	1	stimuli\t-shirt\t-shirt_09s.jpg	8	-1	1	0	t-shirt_09s.jpg	0	0	0	97.6047504271846	97.6547525238711	0.0500020966865122
81611	50	360	0	0	scalpel	1374	51	1	stimuli\scalpel\scalpel_03s.jpg	2	-1	1	0	scalpel_03s.jpg	0	0	0	97.7047587654088	97.7547306298511	0.049971864442341
81711	50	361	0	0	starfish	1541	52	1	stimuli\starfish\starfish_08s.jpg	7	-1	1	0	starfish_08s.jpg	0	0	0	97.8047692979453	97.8547333604656	0.0499640625203028
81811	50	362	0	0	tank2	1621	53	1	stimuli\tank2\tank2_07s.jpg	6	-1	1	0	tank2_07s.jpg	0	0	0	97.9047730038874	97.9547531577991	0.049980153911747
81911	50	363	0	0	cap	265	54	1	stimuli\cap\cap_04s.jpg	3	-1	1	0	cap_04s.jpg	0	0	0	98.0047752469545	98.054759545601	0.04998429864645
82011	50	364	0	0	velcro	1756	55	1	stimuli\velcro\velcro_02s.jpg	1	-1	1	0	velcro_02s.jpg	0	0	0	98.1047770023579	98.1547449658392	0.0499679634813219
82111	50	365	0	0	crutch	452	56	1	stimuli\crutch\crutch_06s.jpg	5	-1	1	0	crutch_06s.jpg	0	0	0	98.2047616911586	98.2547323364997	0.0499706453410909
82211	50	366	0	0	bunkbed	222	57	1	stimuli\bunkbed\bunkbed_03s.jpg	2	-1	1	0	bunkbed_03s.jpg	0	0	0	98.3047831951408	98.3547445756849	0.0499613805441186
82311	50	367	0	0	bus	226	58	1	stimuli\bus\bus_06n.jpg	5	-1	1	0	bus_06n.jpg	0	0	0	98.4047854380915	98.4547670548782	0.0499816167866811
82411	50	368	0	0	beaver	107	59	1	stimuli\beaver\beaver_07s.jpg	6	-1	1	0	beaver_07s.jpg	0	0	0	98.5047728088684	98.5547663723119	0.0499935634434223
82511	50	369	0	0	camel	245	60	1	stimuli\camel\camel_06s.jpg	5	-1	1	0	camel_06s.jpg	0	0	0	98.6047726137331	98.6547691029264	0.0499964891932905
82611	50	370	0	0	board	152	61	1	stimuli\board\board_03s.jpg	2	-1	1	0	board_03s.jpg	0	0	0	98.7047924110666	98.7547745155171	0.0499821044504642
82711	50	371	0	0	rocking_chair	1321	62	1	stimuli\rocking_chair\rocking_chair_12s.jpg	11	-1	1	0	rocking_chair_12s.jpg	0	0	0	98.80479441036	98.854760179529	0.0499657691689208
82811	50	372	0	0	boot	169	63	1	stimuli\boot\boot_07s.jpg	6	-1	1	0	boot_07s.jpg	0	0	0	98.9047951905522	98.954781439621	0.0499862490687519
82911	50	373	0	0	headband	762	64	1	stimuli\headband\headband_05s.jpg	4	-1	1	0	headband_05s.jpg	0	0	0	99.0047993840417	99.0547812446021	0.049981860560365
83011	50	374	0	0	bug	212	65	1	stimuli\bug\bug_11s.jpg	10	-1	1	0	bug_11s.jpg	0	0	0	99.1048001642339	99.1547812933568	0.049981129122898
83112	50	375	0	0	windowsill	1819	66	1	stimuli\windowsill\windowsill_04s.jpg	3	-1	1	0	windowsill_04s.jpg	0	0	0	99.2048104529968	99.2548064545263	0.0499960015295073
83211	50	376	0	0	magnifier	957	67	1	stimuli\magnifier\magnifier_09s.jpg	8	-1	1	0	magnifier_09s.jpg	0	0	0	99.3048100140877	99.3547857794911	0.0499757654033601
83311	50	377	0	0	ramp	1283	68	1	stimuli\ramp\ramp_06s.jpg	5	-1	1	0	ramp_06s.jpg	0	0	0	99.4048103067325	99.454790704418	0.0499803976854309
83412	50	378	0	0	tuba	1723	69	1	stimuli\tuba\tuba_12s.jpg	11	-1	1	0	tuba_12s.jpg	0	0	0	99.5048149877694	99.5547946541337	0.0499796663643792
83512	50	379	0	0	corkboard	410	70	1	stimuli\corkboard\corkboard_08s.jpg	7	-1	1	0	corkboard_08s.jpg	0	0	0	99.6048150365241	99.6547812933568	0.0499662568327039
83612	50	380	0	0	tinsel	1662	71	1	stimuli\tinsel\tinsel_06s.jpg	5	-1	1	0	tinsel_06s.jpg	0	0	0	99.7048163043801	99.754795239307	0.0499789349269122
83711	50	381	0	0	reel	1299	72	1	stimuli\reel\reel_02s.jpg	1	-1	1	0	reel_02s.jpg	0	0	0	99.8048141588224	99.8547969947103	0.0499828358879313
83812	50	382	0	0	bookmark	166	73	1	stimuli\bookmark\bookmark_09s.jpg	8	-1	1	0	bookmark_09s.jpg	0	0	0	99.9048185962019	99.9547733939253	0.0499547977233306
83911	50	383	0	0	dial	483	74	1	stimuli\dial\dial_05s.jpg	4	-1	1	0	dial_05s.jpg	0	0	0	100.004789875471	100.054774661781	0.0499847863102332
84011	50	384	0	0	album	11	75	1	stimuli\album\album_07s.jpg	6	-1	1	0	album_07s.jpg	1	0	0	100.104795531835	100.154806893319	0.0500113614834845
84112	50	385	0	0	duck	525	76	1	stimuli\duck\duck_09s.jpg	8	-1	1	0	duck_09s.jpg	0	0	0	100.204804357723	100.254782317323	0.0499779595993459
84212	50	386	0	0	noisemaker	1060	77	1	stimuli\noisemaker\noisemaker_12s.jpg	11	-1	1	0	noisemaker_12s.jpg	0	0	0	100.304828056018	100.354805771844	0.049977715825662
84312	50	387	0	0	seaplane	1398	78	1	stimuli\seaplane\seaplane_02s.jpg	1	-1	1	0	seaplane_02s.jpg	0	0	0	100.404830299085	100.454810452997	0.049980153911747
84412	50	388	0	0	yo-yo	1847	79	1	stimuli\yo-yo\yo-yo_12s.jpg	11	-1	1	0	yo-yo_12s.jpg	0	0	0	100.504834004911	100.554816109361	0.0499821044504642
84512	50	389	0	0	apple_tree	31	80	1	stimuli\apple_tree\apple_tree_09s.jpg	8	-1	1	0	apple_tree_09s.jpg	0	0	0	100.604844537447	100.65479299624	0.0499484587926418
84612	50	390	0	0	laser_pointer	899	81	1	stimuli\laser_pointer\laser_pointer_01b.jpg	0	-1	1	0	laser_pointer_01b.jpg	0	0	0	100.704853607225	100.754818644957	0.0499650377314538
84712	50	391	0	0	dress	518	82	1	stimuli\dress\dress_10s.jpg	9	-1	1	0	dress_10s.jpg	0	0	0	100.80484146555	100.854819181375	0.049977715825662
84812	50	392	0	0	pulley	1250	83	1	stimuli\pulley\pulley_09s.jpg	8	-1	1	0	pulley_09s.jpg	0	0	0	100.904842001852	100.954814110068	0.0499721082160249
84912	50	393	0	0	axe	45	84	1	stimuli\axe\axe_10n.jpg	9	-1	1	0	axe_10n.jpg	0	0	0	101.004844001145	101.054809770314	0.0499657691689208
85012	50	394	0	0	toaster_oven	1667	85	1	stimuli\toaster_oven\toaster_oven_09s.jpg	8	-1	1	0	toaster_oven_09s.jpg	0	0	0	101.104854046018	101.154836881906	0.0499828358879313
85112	50	395	0	0	nose	1063	86	1	stimuli\nose\nose_02s.jpg	1	-1	1	0	nose_02s.jpg	0	0	0	101.204845805303	101.254811330698	0.0499655253952369
85212	50	396	0	0	juice	854	87	1	stimuli\juice\juice_03s.jpg	2	-1	1	0	juice_03s.jpg	0	0	0	101.304840490222	101.354841611814	0.0500011215917766
85312	50	397	0	0	belt	118	88	1	stimuli\belt\belt_05s.jpg	4	-1	1	0	belt_05s.jpg	0	0	0	101.404861506657	101.454840441467	0.0499789348104969
85412	50	398	0	0	dragonfly	514	89	1	stimuli\dragonfly\dragonfly_10s.jpg	9	-1	1	0	dragonfly_10s.jpg	0	0	0	101.504862286849	101.554842440761	0.049980153911747
85512	50	399	0	0	margarita	973	90	1	stimuli\margarita\margarita_01b.jpg	0	-1	1	0	margarita_01b.jpg	0	0	0	101.604829421267	101.654812257155	0.0499828358879313
85612	50	400	0	0	fruit	645	91	1	stimuli\fruit\fruit_06s.jpg	5	-1	1	1	fruit_06s.jpg	0	0	0	101.704873111914	101.754849608755	0.0499764968408272
85712	50	401	0	0	pretzel	1239	92	1	stimuli\pretzel\pretzel_10s.jpg	9	-1	1	0	pretzel_10s.jpg	0	0	0	101.804870722583	101.854830396594	0.0499596740119159
85812	50	402	0	0	crumb	451	93	1	stimuli\crumb\crumb_06s.jpg	5	-1	1	0	crumb_06s.jpg	0	0	0	101.904879304697	101.954856289085	0.049976984388195
85912	50	403	0	0	veil	1755	94	1	stimuli\veil\veil_07s.jpg	6	-1	1	0	veil_07s.jpg	0	0	0	102.004875696264	102.054855362629	0.0499796663643792
86012	50	404	0	0	bench	120	95	1	stimuli\bench\bench_06s.jpg	5	-1	1	0	bench_06s.jpg	0	0	0	102.10490061366	102.154859068571	0.0499584549106658
86112	50	405	0	0	seagull	1395	96	1	stimuli\seagull\seagull_04s.jpg	3	-1	1	0	seagull_04s.jpg	0	0	0	102.204870186164	102.254842294496	0.0499721083324403
86212	50	406	0	0	extinguisher	563	97	1	stimuli\extinguisher\extinguisher_12s.jpg	11	-1	1	0	extinguisher_12s.jpg	0	0	0	102.304885594989	102.354866236448	0.0499806414591148
86312	50	407	0	0	caramel	270	98	1	stimuli\caramel\caramel_11s.jpg	10	-1	1	0	caramel_11s.jpg	0	0	0	102.404889544705	102.45487262425	0.0499830795451999
86412	50	408	0	0	flip_flop	614	99	1	stimuli\flip_flop\flip_flop_12s.jpg	11	-1	1	0	flip_flop_12s.jpg	0	0	0	102.504889837233	102.554875354981	0.0499855177477002
86512	50	409	0	0	baseball_bat	79	100	1	stimuli\baseball_bat\baseball_bat_01b.jpg	0	-1	1	0	baseball_bat_01b.jpg	0	0	0	102.604891105089	102.654868820915	0.049977715825662
86612	50	410	0	0	coffeemaker	382	101	1	stimuli\coffeemaker\coffeemaker_06s.jpg	5	-1	1	0	coffeemaker_06s.jpg	0	0	0	102.704897249001	102.754873745842	0.0499764968408272
86712	50	411	0	0	guitar	723	102	1	stimuli\guitar\guitar_10s.jpg	9	-1	1	0	guitar_10s.jpg	0	0	0	102.804895834997	102.854875013581	0.0499791785841808
86812	50	412	0	0	iguana	825	103	1	stimuli\iguana\iguana_11s.jpg	10	-1	1	0	iguana_11s.jpg	0	0	0	102.904883693205	102.954878719524	0.0499950263183564
86912	50	413	0	0	aloe	14	104	1	stimuli\aloe\aloe_08n.jpg	7	-1	1	0	aloe_08n.jpg	0	0	0	103.004900564789	103.054864627309	0.0499640625203028
87012	50	414	0	0	flower	619	105	1	stimuli\flower\flower_08s.jpg	7	-1	1	0	flower_08s.jpg	0	0	0	103.104905245942	103.15488515608	0.0499799101380631
87112	50	415	0	0	brass_knuckles	193	106	1	stimuli\brass_knuckles\brass_knuckles_05s.jpg	4	-1	1	0	brass_knuckles_05s.jpg	0	0	0	103.204907489009	103.254887399147	0.0499799101380631
87212	50	416	0	0	tiara	1655	107	1	stimuli\tiara\tiara_04s.jpg	3	-1	1	0	tiara_04s.jpg	0	0	0	103.304909244413	103.354876232683	0.049966988270171
87312	50	417	0	0	fur_coat	650	108	1	stimuli\fur_coat\fur_coat_08s.jpg	7	-1	1	0	fur_coat_08s.jpg	0	0	0	103.404910512269	103.454893104266	0.0499825919978321
87412	50	418	0	0	slicer	1463	109	1	stimuli\slicer\slicer_12s.jpg	11	-1	1	0	slicer_12s.jpg	0	0	0	103.504894469632	103.554894615896	0.0500001462642103
87512	50	419	0	0	door	506	110	1	stimuli\door\door_01b.jpg	0	-1	1	0	door_01b.jpg	0	0	0	103.604916705051	103.654896127526	0.04997942247428
87612	50	420	0	0	jug	853	111	1	stimuli\jug\jug_05s.jpg	4	-1	1	0	jug_05s.jpg	0	0	0	103.704920654767	103.75489910203	0.0499784472631291
87712	50	421	0	0	power_line	1237	112	1	stimuli\power_line\power_line_04s.jpg	3	-1	1	0	power_line_04s.jpg	0	0	0	103.80491850921	103.854904026957	0.0499855177477002
87812	50	422	0	0	spam	1504	113	1	stimuli\spam\spam_11s.jpg	10	-1	1	0	spam_11s.jpg	0	0	0	103.904927822761	103.954909195658	0.0499813728965819
87912	50	423	0	0	water_bottle	1787	114	1	stimuli\water_bottle\water_bottle_07s.jpg	6	-1	1	0	water_bottle_07s.jpg	0	0	0	104.004928602953	104.054888520623	0.0499599176691845
88012	50	424	0	0	pepperoni	1153	115	1	stimuli\pepperoni\pepperoni_07s.jpg	6	-1	1	0	pepperoni_07s.jpg	0	0	0	104.104932308779	104.154908317956	0.049976009177044
88112	50	425	0	0	gravestone	710	116	1	stimuli\gravestone\gravestone_05s.jpg	4	-1	1	0	gravestone_05s.jpg	0	0	0	104.204933332745	104.254912267672	0.0499789349269122
88212	50	426	0	0	ice-cream_cone	817	117	1	stimuli\ice-cream_cone\ice-cream_cone_05s.jpg	4	-1	1	0	ice-cream_cone_05s.jpg	0	0	0	104.304938257788	104.35491280409	0.04997454630211
88312	50	427	0	0	knitting	880	118	1	stimuli\knitting\knitting_02s.jpg	1	-1	1	0	knitting_02s.jpg	0	0	0	104.40493879409	104.454912852845	0.0499740587547421
88412	50	428	0	0	tent	1643	119	1	stimuli\tent\tent_08n.jpg	7	-1	1	0	tent_08n.jpg	0	0	0	104.504937380087	104.554919484421	0.0499821043340489
88512	50	429	0	0	bomb	160	120	1	stimuli\bomb\bomb_05s.jpg	4	-1	1	0	bomb_05s.jpg	0	0	0	104.604941573576	104.654922215152	0.0499806415755302
88612	50	430	0	0	swordfish	1603	121	1	stimuli\swordfish\swordfish_09s.jpg	8	-1	1	0	swordfish_09s.jpg	0	0	0	104.704941134667	104.754923726665	0.0499825919978321
88712	50	431	0	0	float	616	122	1	stimuli\float\float_04s.jpg	3	-1	1	0	float_04s.jpg	0	0	0	104.804943865398	104.854930114467	0.0499862490687519
88812	50	432	0	0	lollipop	945	123	1	stimuli\lollipop\lollipop_12s.jpg	11	-1	1	0	lollipop_12s.jpg	0	0	0	104.904948058887	104.954930407112	0.0499823482241482
88912	50	433	0	0	maggot	955	124	1	stimuli\maggot\maggot_08s.jpg	7	-1	1	0	maggot_08s.jpg	0	0	0	105.004950301955	105.054914364475	0.0499640625203028
89012	50	434	0	0	sledgehammer	1461	125	1	stimuli\sledgehammer\sledgehammer_08s.jpg	7	-1	1	0	sledgehammer_08s.jpg	0	0	0	105.104954495444	105.154917095089	0.0499625996453688
89112	50	435	0	0	photograph	1164	126	1	stimuli\photograph\photograph_05s.jpg	4	-1	1	0	photograph_05s.jpg	0	0	0	105.204948936589	105.254929334274	0.0499803976854309
89212	50	436	0	0	lion	933	127	1	stimuli\lion\lion_03s.jpg	2	-1	1	0	lion_03s.jpg	0	0	0	105.304952398641	105.354930358357	0.0499779597157612
89312	50	437	0	0	latch	900	128	1	stimuli\latch\latch_09s.jpg	8	-1	1	0	latch_09s.jpg	0	0	0	105.404958786443	105.454936746159	0.0499779597157612
89412	50	438	0	0	honey	788	129	1	stimuli\honey\honey_04s.jpg	3	-1	1	0	honey_04s.jpg	0	0	0	105.504951520939	105.554933381616	0.0499818606767803
89512	50	439	0	0	yogurt	1848	130	1	stimuli\yogurt\yogurt_01s.jpg	0	-1	1	0	yogurt_01s.jpg	0	0	0	105.604961565929	105.654936843668	0.049975277739577
89612	50	440	0	0	gingerbread_man	674	131	1	stimuli\gingerbread_man\gingerbread_man_11s.jpg	10	-1	1	0	gingerbread_man_11s.jpg	0	0	0	105.704959664145	105.754918119055	0.0499584549106658
89712	50	441	0	0	tricycle	1711	132	1	stimuli\tricycle\tricycle_09s.jpg	8	-1	1	0	tricycle_09s.jpg	0	0	0	105.804939232999	105.854950594483	0.0500113614834845
89812	50	442	0	0	skateboard	1449	133	1	stimuli\skateboard\skateboard_11s.jpg	10	-1	1	0	skateboard_11s.jpg	0	0	0	105.904972683638	105.95495283755	0.049980153911747
89912	50	443	0	0	tractor	1695	134	1	stimuli\tractor\tractor_11s.jpg	10	-1	1	0	tractor_11s.jpg	0	0	0	106.004977608565	106.054933137726	0.0499555291607976
90012	50	444	0	0	bracelet2	188	135	1	stimuli\bracelet2\bracelet2_02s.jpg	1	-1	1	0	bracelet2_02s.jpg	0	0	0	106.104983021156	106.154960980755	0.0499779595993459
90112	50	445	0	0	clam	349	136	1	stimuli\clam\clam_10s.jpg	9	-1	1	0	clam_10s.jpg	0	0	0	106.204981363262	106.254958835198	0.0499774719355628
90212	50	446	0	0	showerhead	1436	137	1	stimuli\showerhead\showerhead_04s.jpg	3	-1	1	0	showerhead_04s.jpg	0	0	0	106.304983850103	106.354966442101	0.0499825919978321
90312	50	447	0	0	paper_bag	1113	138	1	stimuli\paper_bag\paper_bag_12s.jpg	11	-1	1	0	paper_bag_12s.jpg	0	0	0	106.404986580717	106.454965515644	0.0499789349269122
90412	50	448	0	0	bagel	55	139	1	stimuli\bagel\bagel_05s.jpg	4	-1	1	0	bagel_05s.jpg	0	0	0	106.504987117136	106.554967271048	0.049980153911747
90512	50	449	0	0	coleslaw	386	140	1	stimuli\coleslaw\coleslaw_02n.jpg	1	-1	1	0	coleslaw_02n.jpg	0	0	0	106.604991066852	106.654973658849	0.0499825919978321
90612	50	450	0	0	crank	432	141	1	stimuli\crank\crank_08s.jpg	7	-1	1	0	crank_08s.jpg	0	0	0	106.704997698427	106.754982484737	0.0499847863102332
90712	50	451	0	0	handcuff	746	142	1	stimuli\handcuff\handcuff_06s.jpg	5	-1	1	0	handcuff_06s.jpg	0	0	0	106.804994333885	106.854976194445	0.049981860560365
90812	50	452	0	0	salami	1349	143	1	stimuli\salami\salami_06s.jpg	5	-1	1	0	salami_06s.jpg	0	0	0	106.904997308273	106.95497916895	0.0499818606767803
90912	50	453	0	0	stirrup	1558	144	1	stimuli\stirrup\stirrup_09s.jpg	8	-1	1	0	stirrup_09s.jpg	0	0	0	107.005000039004	107.054986288189	0.0499862491851673
91012	50	454	0	0	raisin	1280	145	1	stimuli\raisin\raisin_05s.jpg	4	-1	1	0	raisin_05s.jpg	0	0	0	107.105005695368	107.154990481678	0.0499847863102332
91112	50	455	0	0	bow2	175	146	1	stimuli\bow2\bow2_11s.jpg	10	-1	1	0	bow2_11s.jpg	0	0	0	107.205007938435	107.25498736091	0.04997942247428
91212	50	456	0	0	gondola	691	147	1	stimuli\gondola\gondola_12s.jpg	11	-1	1	0	gondola_12s.jpg	0	0	0	107.304994089995	107.354988872539	0.0499947825446725
91312	50	457	0	0	lemonade	915	148	1	stimuli\lemonade\lemonade_01b.jpg	0	-1	1	0	lemonade_01b.jpg	0	0	0	107.405009011156	107.454990140395	0.0499811292393133
91412	50	458	0	0	thimble	1649	149	1	stimuli\thimble\thimble_10n.jpg	9	-1	1	0	thimble_10n.jpg	0	0	0	107.504996625707	107.554977754829	0.049981129122898
91512	50	459	0	0	porthole	1227	150	1	stimuli\porthole\porthole_03s.jpg	2	-1	1	0	porthole_03s.jpg	0	0	0	107.605001794407	107.654997064499	0.0499952700920403
91612	50	460	0	0	scallion	1372	151	1	stimuli\scallion\scallion_12s.jpg	11	-1	1	0	scallion_12s.jpg	0	0	0	107.705001599388	107.754997113254	0.0499955138657242
91712	50	461	0	0	sheet	1415	152	1	stimuli\sheet\sheet_05s.jpg	4	-1	1	0	sheet_05s.jpg	0	0	0	107.805021396722	107.855001794407	0.0499803976854309
91812	50	462	0	0	seismograph	1403	153	1	stimuli\seismograph\seismograph_01b.jpg	0	-1	1	0	seismograph_01b.jpg	0	0	0	107.905022420688	107.955008182209	0.0499857615213841
91912	50	463	0	0	pantsuit	1109	154	1	stimuli\pantsuit\pantsuit_08s.jpg	7	-1	1	0	pantsuit_08s.jpg	0	0	0	108.005024176091	108.055005549104	0.0499813730129972
92012	50	464	0	0	goggles	686	155	1	stimuli\goggles\goggles_04s.jpg	3	-1	1	1	goggles_04s.jpg	0	0	0	108.105033001979	108.155013887328	0.0499808853492141
92112	50	465	0	0	bobsled	155	156	1	stimuli\bobsled\bobsled_02s.jpg	1	-1	1	0	bobsled_02s.jpg	0	0	0	108.205028662225	108.255013204645	0.0499845424201339
92212	50	466	0	0	artichoke	39	157	1	stimuli\artichoke\artichoke_06s.jpg	5	-1	1	0	artichoke_06s.jpg	0	0	0	108.305035537574	108.35500398872	0.0499684511451051
92312	50	467	0	0	scale	1371	158	1	stimuli\scale\scale_03s.jpg	2	-1	1	0	scale_03s.jpg	1	0.292268468998373	1	108.405021445476	108.455016227905	0.0499947824282572
92412	50	468	0	0	peanut	1131	159	1	stimuli\peanut\peanut_09n.jpg	8	-1	1	0	peanut_09n.jpg	0	0	0	108.505040511372	108.555003598565	0.0499630871927366
92512	50	469	0	0	whale	1804	160	1	stimuli\whale\whale_01b.jpg	0	-1	1	0	whale_01b.jpg	0	0	0	108.605041291565	108.655013155891	0.0499718643259257
92612	50	470	0	0	spider	1513	161	1	stimuli\spider\spider_11s.jpg	10	-1	1	0	spider_11s.jpg	0	0	0	108.705043778406	108.755025638966	0.049981860560365
92712	50	471	0	0	curtain	465	162	1	stimuli\curtain\curtain_05s.jpg	4	-1	1	0	curtain_05s.jpg	0	0	0	108.805048215669	108.855035927729	0.0499877120601013
92812	50	472	0	0	gate	662	163	1	stimuli\gate\gate_09s.jpg	8	-1	1	0	gate_09s.jpg	0	0	0	108.90504802065	108.95502988121	0.049981860560365
92912	50	473	0	0	navel	1052	164	1	stimuli\navel\navel_02s.jpg	1	-1	1	0	navel_02s.jpg	0	0	0	109.005050019827	109.055030173855	0.0499801540281624
93012	50	474	0	0	mousepad	1028	165	1	stimuli\mousepad\mousepad_02s.jpg	1	-1	1	0	mousepad_02s.jpg	0	0	0	109.105057382956	109.155033148243	0.0499757652869448
93112	50	475	0	0	brooch	202	166	1	stimuli\brooch\brooch_03s.jpg	2	-1	1	0	brooch_03s.jpg	0	0	0	109.205057187821	109.255018324708	0.04996113688685
93212	50	476	0	0	zucchini	1853	167	1	stimuli\zucchini\zucchini_01b.jpg	0	-1	1	0	zucchini_01b.jpg	0	0	0	109.305034806137	109.355045192409	0.0500103862723336
93312	50	477	0	0	air_pump	6	168	1	stimuli\air_pump\air_pump_08s.jpg	7	-1	1	0	air_pump_08s.jpg	0	0	0	109.405060454854	109.455023542163	0.0499630873091519
93412	50	478	0	0	figurine	582	169	1	stimuli\figurine\figurine_10s.jpg	9	-1	1	0	figurine_10s.jpg	0	0	0	109.505046850303	109.555045290035	0.0499984397320077
93512	50	479	0	0	oyster	1092	170	1	stimuli\oyster\oyster_04s.jpg	3	-1	1	0	oyster_04s.jpg	0	0	0	109.6050671353	109.655031441594	0.0499643062939867
93612	50	480	0	0	cot	420	171	1	stimuli\cot\cot_06s.jpg	5	-1	1	0	cot_06s.jpg	0	0	0	109.705070353579	109.755048069404	0.049977715825662
93712	50	481	0	0	blowfish	146	172	1	stimuli\blowfish\blowfish_06s.jpg	5	-1	1	0	blowfish_06s.jpg	0	0	0	109.805072108982	109.855053238105	0.049981129122898
93812	50	482	0	0	cufflink	458	173	1	stimuli\cufflink\cufflink_11s.jpg	10	-1	1	0	cufflink_11s.jpg	0	0	0	109.905077033909	109.955052799312	0.0499757654033601
93912	50	483	0	0	ankle	22	174	1	stimuli\ankle\ankle_08s.jpg	7	-1	1	0	ankle_08s.jpg	0	0	0	110.005059528397	110.055055286153	0.0499957577558234
94012	50	484	0	0	frog	644	175	1	stimuli\frog\frog_10s.jpg	9	-1	1	0	frog_10s.jpg	0	0	0	110.105083226692	110.155044607352	0.0499613806605339
94112	50	485	0	0	bassoon	86	176	1	stimuli\bassoon\bassoon_12s.jpg	11	-1	1	0	bassoon_12s.jpg	0	0	0	110.205063770758	110.255063429358	0.0499996586004272
94212	50	486	0	0	bracelet1	187	177	1	stimuli\bracelet1\bracelet1_06s.jpg	5	-1	1	0	bracelet1_06s.jpg	0	0	0	110.305084787076	110.355068841949	0.0499840548727661
94312	50	487	0	0	twig	1740	178	1	stimuli\twig\twig_02s.jpg	1	-1	1	0	twig_02s.jpg	0	0	0	110.405088249128	110.455072547891	0.0499842987628654
94412	50	488	0	0	gift	672	179	1	stimuli\gift\gift_10s.jpg	9	-1	1	0	gift_10s.jpg	0	0	0	110.505085616023	110.555068451911	0.0499828358879313
94512	50	489	0	0	chipmunk	334	180	1	stimuli\chipmunk\chipmunk_05s.jpg	4	-1	1	0	chipmunk_05s.jpg	0	0	0	110.605093710474	110.655071913963	0.0499782034894451
94612	50	490	0	0	toy	1694	181	1	stimuli\toy\toy_10s.jpg	9	-1	1	0	toy_10s.jpg	0	0	0	110.705093759228	110.755072206492	0.0499784472631291
94712	50	491	0	0	mustache	1043	182	1	stimuli\mustache\mustache_01b.jpg	0	-1	1	0	mustache_01b.jpg	0	0	0	110.805099415593	110.855083714356	0.0499842987628654
94812	50	492	0	0	incense	826	183	1	stimuli\incense\incense_01b.jpg	0	-1	1	0	incense_01b.jpg	0	0	0	110.905100927223	110.955082300236	0.0499813730129972
94912	50	493	0	0	roof_rack	1329	184	1	stimuli\roof_rack\roof_rack_03s.jpg	2	-1	1	0	roof_rack_03s.jpg	0	0	0	111.005104633165	111.055081129889	0.0499764967244118
95012	50	494	0	0	hubcap	809	185	1	stimuli\hubcap\hubcap_02s.jpg	1	-1	1	0	hubcap_02s.jpg	0	0	0	111.105109070428	111.155084104394	0.0499750339658931
95112	50	495	0	0	horn	797	186	1	stimuli\horn\horn_01b.jpg	0	-1	1	0	horn_01b.jpg	0	0	0	111.205105462112	111.255089516984	0.0499840548727661
95212	50	496	0	0	pliers	1201	187	1	stimuli\pliers\pliers_08s.jpg	7	-1	1	0	pliers_08s.jpg	0	0	0	111.305110143265	111.355091760051	0.0499816167866811
95312	50	497	0	0	windshield	1820	188	1	stimuli\windshield\windshield_11s.jpg	10	-1	1	0	windshield_11s.jpg	0	0	0	111.405110923457	111.455093759228	0.049982835771516
95412	50	498	0	0	carriage	276	189	1	stimuli\carriage\carriage_09s.jpg	8	-1	1	0	carriage_09s.jpg	0	0	0	111.505114141735	111.555094783194	0.0499806414591148
95512	50	499	0	0	music_box	1041	190	1	stimuli\music_box\music_box_09s.jpg	8	-1	1	0	music_box_09s.jpg	0	0	0	111.605115653365	111.655100195785	0.0499845424201339
95612	50	500	0	0	gyroscope	731	191	1	stimuli\gyroscope\gyroscope_11s.jpg	10	-1	1	0	gyroscope_11s.jpg	0	0	0	111.705119359191	111.755099269329	0.0499799101380631
95712	50	501	0	0	hairdryer	735	192	1	stimuli\hairdryer\hairdryer_11s.jpg	10	-1	1	0	hairdryer_11s.jpg	0	0	0	111.80512647843	111.855102243833	0.0499757654033601
95812	50	502	0	0	traffic_light	1696	193	1	stimuli\traffic_light\traffic_light_03s.jpg	2	-1	1	0	traffic_light_03s.jpg	0	0	0	111.905124820536	111.955104974448	0.049980153911747
95912	50	503	0	0	cornbread	413	194	1	stimuli\cornbread\cornbread_06s.jpg	5	-1	1	0	cornbread_06s.jpg	0	0	0	112.005126332166	112.055105267093	0.0499789349269122
96012	50	504	0	0	garbage_truck	656	195	1	stimuli\garbage_truck\garbage_truck_02s.jpg	1	-1	1	0	garbage_truck_02s.jpg	0	0	0	112.10512906278	112.155107997707	0.0499789349269122
96112	50	505	0	0	scuba	1392	196	1	stimuli\scuba\scuba_05s.jpg	4	-1	1	0	scuba_05s.jpg	0	0	0	112.205131305847	112.255111215985	0.0499799101380631
96212	50	506	0	0	phone	1161	197	1	stimuli\phone\phone_05s.jpg	4	-1	1	0	phone_05s.jpg	0	0	0	112.305130623165	112.355118335225	0.0499877120601013
96312	50	507	0	0	cockroach	373	198	1	stimuli\cockroach\cockroach_11s.jpg	10	-1	1	0	cockroach_11s.jpg	0	0	0	112.405139205279	112.455100829713	0.0499616244342178
96412	50	508	0	0	punch1	1254	199	1	stimuli\punch1\punch1_02s.jpg	1	-1	1	0	punch1_02s.jpg	0	0	0	112.505142179783	112.55511136225	0.0499691824661568
96512	50	509	0	0	cloud	364	200	1	stimuli\cloud\cloud_06s.jpg	5	-1	1	0	cloud_06s.jpg	0	0	0	112.605142228538	112.655121894786	0.0499796662479639
96612	50	510	0	0	pie	1168	201	1	stimuli\pie\pie_09s.jpg	8	-1	1	0	pie_09s.jpg	0	0	0	112.705127161113	112.755123162642	0.0499960015295073
96712	50	511	0	0	clasp	351	202	1	stimuli\clasp\clasp_10s.jpg	9	-1	1	0	clasp_10s.jpg	0	0	0	112.805132573703	112.855128575233	0.0499960015295073
96812	50	512	0	0	ambulance	19	203	1	stimuli\ambulance\ambulance_06s.jpg	5	-1	1	0	ambulance_06s.jpg	0	0	0	112.905149932834	112.955129111535	0.0499791787005961
96912	50	513	0	0	fondue	626	204	1	stimuli\fondue\fondue_02s.jpg	1	-1	1	0	fondue_02s.jpg	0	0	0	113.005151444464	113.055137449875	0.0499860054114833
97012	50	514	0	0	ashtray	41	205	1	stimuli\ashtray\ashtray_03n.jpg	2	-1	1	0	ashtray_03n.jpg	0	0	0	113.105159051367	113.15514018049	0.049981129122898
97112	50	515	0	0	face_mask	570	206	1	stimuli\face_mask\face_mask_08s.jpg	7	-1	1	0	face_mask_08s.jpg	0	0	0	113.205140082981	113.255134865525	0.0499947825446725
97212	50	516	0	0	mask	980	207	1	stimuli\mask\mask_06s.jpg	5	-1	1	0	mask_06s.jpg	0	0	0	113.305161099299	113.355160270352	0.0499991710530594
97312	50	517	0	0	octopus	1070	208	1	stimuli\octopus\octopus_11n.jpg	10	-1	1	0	octopus_11n.jpg	0	0	0	113.405148957623	113.455124235363	0.049975277739577
97412	50	518	0	0	kite	874	209	1	stimuli\kite\kite_09n.jpg	8	-1	1	0	kite_09n.jpg	0	0	0	113.505152419792	113.555119651835	0.0499672320438549
97512	50	519	0	0	vase	1753	210	1	stimuli\vase\vase_11s.jpg	10	-1	1	0	vase_11s.jpg	0	0	0	113.605167097063	113.655147982412	0.0499808853492141
97612	50	520	0	0	envelope	558	211	1	stimuli\envelope\envelope_08n.jpg	7	-1	1	0	envelope_08n.jpg	0	0	0	113.705182261998	113.755150225479	0.0499679634813219
97712	50	521	0	0	tray	1705	212	1	stimuli\tray\tray_10s.jpg	9	-1	1	0	tray_10s.jpg	0	0	0	113.805133792688	113.855151980883	0.0500181881943718
97812	50	522	0	0	cement_mixer	294	213	1	stimuli\cement_mixer\cement_mixer_03s.jpg	2	-1	1	0	cement_mixer_03s.jpg	0	0	0	113.905174801475	113.955160562997	0.0499857615213841
97912	50	523	0	0	nightshirt	1058	214	1	stimuli\nightshirt\nightshirt_12s.jpg	11	-1	1	0	nightshirt_12s.jpg	0	0	0	114.005161440698	114.055175727932	0.0500142872333527
98012	50	524	0	0	wood	1833	215	1	stimuli\wood\wood_06s.jpg	5	-1	1	0	wood_06s.jpg	0	0	0	114.105169047485	114.155151395709	0.0499823482241482
98112	50	525	0	0	rubber_band	1337	216	1	stimuli\rubber_band\rubber_band_06s.jpg	5	-1	1	0	rubber_band_06s.jpg	0	0	0	114.205175191513	114.255154613988	0.04997942247428
98212	50	526	0	0	dashboard	475	217	1	stimuli\dashboard\dashboard_10s.jpg	9	-1	1	0	dashboard_10s.jpg	0	0	0	114.305180604104	114.355159782805	0.0499791787005961
98312	50	527	0	0	clover	366	218	1	stimuli\clover\clover_11s.jpg	10	-1	1	0	clover_11s.jpg	0	0	0	114.405186016695	114.455162513419	0.0499764967244118
98412	50	528	0	0	glass	677	219	1	stimuli\glass\glass_08s.jpg	7	-1	1	0	glass_08s.jpg	0	0	0	114.505186552997	114.5551623184	0.0499757654033601
98512	50	529	0	0	chair	300	220	1	stimuli\chair\chair_09s.jpg	8	-1	1	0	chair_09s.jpg	0	0	0	114.60518270079	114.65516651189	0.0499838110990822
98612	50	530	0	0	trophy	1717	221	1	stimuli\trophy\trophy_03s.jpg	2	-1	1	0	trophy_03s.jpg	0	0	0	114.705188357271	114.755173143465	0.0499847861938179
98712	50	531	0	0	pot	1230	222	1	stimuli\pot\pot_03s.jpg	2	-1	1	0	pot_03s.jpg	0	0	0	114.805194257409	114.855169291375	0.0499750339658931
98812	50	532	0	0	beanie	104	223	1	stimuli\beanie\beanie_02s.jpg	1	-1	1	0	beanie_02s.jpg	0	0	0	114.905188454781	114.955176654388	0.0499881996074691
98912	50	533	0	0	sushi	1588	224	1	stimuli\sushi\sushi_08s.jpg	7	-1	1	0	sushi_08s.jpg	0	0	0	115.005193135934	115.055163049838	0.0499699139036238
99012	50	534	0	0	ruby	1338	225	1	stimuli\ruby\ruby_04s.jpg	3	-1	1	0	ruby_04s.jpg	0	0	0	115.105185138993	115.155185041367	0.0499999023741111
99112	50	535	0	0	grass	705	226	1	stimuli\grass\grass_11s.jpg	10	-1	1	0	grass_11s.jpg	0	0	0	115.205210056272	115.255190210184	0.049980153911747
99212	50	536	0	0	turtleneck	1737	227	1	stimuli\turtleneck\turtleneck_06s.jpg	5	-1	1	0	turtleneck_06s.jpg	0	0	0	115.305214493535	115.355172704672	0.0499582111369818
99312	50	537	0	0	ping-pong_table	1184	228	1	stimuli\ping-pong_table\ping-pong_table_03s.jpg	2	-1	1	0	ping-pong_table_03s.jpg	0	0	0	115.405194306164	115.455192989553	0.0499986833892763
99412	50	538	0	0	sheep	1414	229	1	stimuli\sheep\sheep_10s.jpg	9	-1	1	0	sheep_10s.jpg	0	0	0	115.505214103498	115.555194257409	0.049980153911747
99512	50	539	0	0	pallet	1101	230	1	stimuli\pallet\pallet_07s.jpg	6	-1	1	0	pallet_07s.jpg	0	0	0	115.605216834112	115.655179433757	0.0499625996453688
99612	50	540	0	0	breakfast	197	231	1	stimuli\breakfast\breakfast_09s.jpg	8	-1	1	1	breakfast_09s.jpg	0	0	0	115.705221271492	115.75520118163	0.0499799101380631
99712	50	541	0	0	sticker	1553	232	1	stimuli\sticker\sticker_10s.jpg	9	-1	1	0	sticker_10s.jpg	0	0	0	115.805223270669	115.855186357978	0.0499630873091519
99812	50	542	0	0	carousel	275	233	1	stimuli\carousel\carousel_06s.jpg	5	-1	1	0	carousel_06s.jpg	0	0	0	115.905223319423	115.955206155311	0.0499828358879313
99912	50	543	0	0	graffiti	697	234	1	stimuli\graffiti\graffiti_09s.jpg	8	-1	1	0	graffiti_09s.jpg	0	0	0	116.00522848824	116.055216200184	0.049987711943686
100012	50	544	0	0	crane	431	235	1	stimuli\crane\crane_08s.jpg	7	-1	1	0	crane_08s.jpg	1	0.400172080495395	1	116.105230731308	116.155211372767	0.0499806414591148
100112	50	545	0	0	paper	1112	236	1	stimuli\paper\paper_10s.jpg	9	-1	1	0	paper_10s.jpg	0	0	0	116.205234924797	116.255218248232	0.0499833234352991
100212	50	546	0	0	rifle	1311	237	1	stimuli\rifle\rifle_12n.jpg	11	-1	1	0	rifle_12n.jpg	0	0	0	116.305233510677	116.355215371237	0.049981860560365
100312	50	547	0	0	wing	1827	238	1	stimuli\wing\wing_01b.jpg	0	-1	1	0	wing_01b.jpg	0	0	0	116.405219418462	116.455221759039	0.0500023405766115
100412	50	548	0	0	cross	443	239	1	stimuli\cross\cross_03s.jpg	2	-1	1	0	cross_03s.jpg	0	0	0	116.505241653882	116.555220832583	0.0499791787005961
100512	50	549	0	0	needle	1055	240	1	stimuli\needle\needle_06s.jpg	5	-1	1	0	needle_06s.jpg	0	0	0	116.605227805558	116.6552260014	0.0499981958419085
100612	50	550	0	0	sweeper	1594	241	1	stimuli\sweeper\sweeper_11s.jpg	10	-1	1	0	sweeper_11s.jpg	0	0	0	116.705247602891	116.75522848824	0.0499808853492141
100712	50	551	0	0	wax_paper	1796	242	1	stimuli\wax_paper\wax_paper_03s.jpg	2	-1	1	0	wax_paper_03s.jpg	0	0	0	116.805251552607	116.855212445604	0.0499608929967508
100812	50	552	0	0	keg	866	243	1	stimuli\keg\keg_09s.jpg	8	-1	1	0	keg_09s.jpg	0	0	0	116.905251357472	116.955229073297	0.049977715825662
100912	50	553	0	0	amplifier	20	244	1	stimuli\amplifier\amplifier_11s.jpg	10	-1	1	0	amplifier_11s.jpg	0	0	0	117.005253600539	117.055235461099	0.049981860560365
101012	50	554	0	0	umbrella	1743	245	1	stimuli\umbrella\umbrella_12s.jpg	11	-1	1	0	umbrella_12s.jpg	0	0	0	117.105239995988	117.15523550997	0.0499955139821395
101112	50	555	0	0	beaker	101	246	1	stimuli\beaker\beaker_09s.jpg	8	-1	1	0	beaker_09s.jpg	0	0	0	117.205261987634	117.25523970346	0.049977715825662
101212	50	556	0	0	spinach	1515	247	1	stimuli\spinach\spinach_06s.jpg	5	-1	1	0	spinach_06s.jpg	0	0	0	117.305263499264	117.355247066473	0.049983567208983
101312	50	557	0	0	mongoose	1016	248	1	stimuli\mongoose\mongoose_04s.jpg	3	-1	1	0	mongoose_04s.jpg	0	0	0	117.405264279456	117.455244189478	0.0499799100216478
101412	50	558	0	0	snowball	1480	249	1	stimuli\snowball\snowball_05s.jpg	4	-1	1	0	snowball_05s.jpg	0	0	0	117.505263109109	117.555247163982	0.0499840548727661
101512	50	559	0	0	test_tube	1645	250	1	stimuli\test_tube\test_tube_06s.jpg	5	-1	1	0	test_tube_06s.jpg	0	0	0	117.605253649293	117.655248675612	0.0499950263183564
101612	50	560	0	0	record	1295	251	1	stimuli\record\record_06s.jpg	5	-1	1	0	record_06s.jpg	0	0	0	117.705263206619	117.75525189389	0.0499886872712523
101712	50	561	0	0	ice	816	252	1	stimuli\ice\ice_10s.jpg	9	-1	1	0	ice_10s.jpg	0	0	0	117.805272520171	117.85525340552	0.0499808853492141
101812	50	562	0	0	spacesuit	1502	253	1	stimuli\spacesuit\spacesuit_01b.jpg	0	-1	1	0	spacesuit_01b.jpg	0	0	0	117.905274519348	117.955256136134	0.0499816167866811
101912	50	563	0	0	lantern	895	254	1	stimuli\lantern\lantern_04s.jpg	3	-1	1	0	lantern_04s.jpg	0	0	0	118.00527529954	118.055256428779	0.0499811292393133
102012	50	564	0	0	combination_lock	390	255	1	stimuli\combination_lock\combination_lock_02s.jpg	1	-1	1	0	combination_lock_02s.jpg	0	0	0	118.105279980693	118.155261353706	0.0499813730129972
102112	50	565	0	0	target	1627	256	1	stimuli\target\target_08s.jpg	7	-1	1	0	target_08s.jpg	0	0	0	118.205284418073	118.255262865336	0.0499784472631291
102212	50	566	0	0	school_bus	1378	257	1	stimuli\school_bus\school_bus_05s.jpg	4	-1	1	0	school_bus_05s.jpg	0	0	0	118.305286173476	118.355264864513	0.049978691036813
102312	50	567	0	0	christmas_card	340	258	1	stimuli\christmas_card\christmas_card_12s.jpg	11	-1	1	0	christmas_card_12s.jpg	0	0	0	118.405270618387	118.455262231408	0.0499916130211204
102412	50	568	0	0	plum	1203	259	1	stimuli\plum\plum_09s.jpg	8	-1	1	0	plum_09s.jpg	0	0	0	118.505282370024	118.55526593735	0.0499835673253983
102512	50	569	0	0	spareribs	1505	260	1	stimuli\spareribs\spareribs_12s.jpg	11	-1	1	0	spareribs_12s.jpg	0	0	0	118.60528363788	118.65526452323	0.0499808853492141
102612	50	570	0	0	recorder	1297	261	1	stimuli\recorder\recorder_04s.jpg	3	-1	1	0	recorder_04s.jpg	0	0	0	118.705282955198	118.755273349117	0.0499903939198703
102712	50	571	0	0	dumpling	532	262	1	stimuli\dumpling\dumpling_12s.jpg	11	-1	1	0	dumpling_12s.jpg	0	0	0	118.805280565866	118.855278030271	0.0499974644044414
102812	50	572	0	0	shower_cap	1434	263	1	stimuli\shower_cap\shower_cap_03s.jpg	2	-1	1	0	shower_cap_03s.jpg	0	0	0	118.905301826075	118.955270764767	0.0499689386924729
102912	50	573	0	0	makeup	961	264	1	stimuli\makeup\makeup_04s.jpg	3	-1	1	0	makeup_04s.jpg	0	0	0	119.005279444274	119.055249845842	0.049970401567407
103012	50	574	0	0	omelet	1076	265	1	stimuli\omelet\omelet_07s.jpg	6	-1	1	0	omelet_07s.jpg	0	0	0	119.10530411778	119.155285247019	0.0499811292393133
103112	50	575	0	0	road_sign	1315	266	1	stimuli\road_sign\road_sign_02s.jpg	1	-1	1	0	road_sign_02s.jpg	0	0	0	119.205309530371	119.255287977634	0.0499784472631291
103212	50	576	0	0	outfit	1087	267	1	stimuli\outfit\outfit_11s.jpg	10	-1	1	0	outfit_11s.jpg	0	0	0	119.305310798227	119.355295340647	0.0499845424201339
103312	50	577	0	0	thermos	1647	268	1	stimuli\thermos\thermos_04s.jpg	3	-1	1	0	thermos_04s.jpg	0	0	0	119.405313285068	119.455263206619	0.0499499215511605
103412	50	578	0	0	volleyball	1767	269	1	stimuli\volleyball\volleyball_11s.jpg	10	-1	1	0	volleyball_11s.jpg	0	0	0	119.505292853806	119.555293487734	0.0500006339279935
103512	50	579	0	0	gold	687	270	1	stimuli\gold\gold_03s.jpg	2	-1	1	0	gold_03s.jpg	0	0	0	119.605302655022	119.65529743745	0.0499947824282572
103612	50	580	0	0	cuckoo_clock	456	271	1	stimuli\cuckoo_clock\cuckoo_clock_05s.jpg	4	-1	1	0	cuckoo_clock_05s.jpg	0	0	0	119.705327816075	119.755301387166	0.049973571090959
103712	50	581	0	0	wig	1816	272	1	stimuli\wig\wig_05s.jpg	4	-1	1	0	wig_05s.jpg	0	0	0	119.805322744884	119.85529192735	0.0499691824661568
103812	50	582	0	0	baklava	57	273	1	stimuli\baklava\baklava_12s.jpg	11	-1	1	0	baklava_12s.jpg	0	0	0	119.905323037412	119.955304654199	0.0499816167866811
103912	50	583	0	0	beetle	115	274	1	stimuli\beetle\beetle_06s.jpg	5	-1	1	0	beetle_06s.jpg	0	0	0	120.005327962339	120.055308116251	0.049980153911747
104012	50	584	0	0	sandwich	1357	275	1	stimuli\sandwich\sandwich_03s.jpg	2	-1	1	0	sandwich_03s.jpg	0	0	0	120.105329230195	120.155308896443	0.0499796662479639
104112	50	585	0	0	pitcher	1190	276	1	stimuli\pitcher\pitcher_06s.jpg	5	-1	1	0	pitcher_06s.jpg	0	0	0	120.205332448473	120.255313333822	0.0499808853492141
104212	50	586	0	0	smoothie	1474	277	1	stimuli\smoothie\smoothie_01b.jpg	0	-1	1	0	smoothie_01b.jpg	0	0	0	120.305334203877	120.355318502523	0.04998429864645
104312	50	587	0	0	goose	693	278	1	stimuli\goose\goose_03s.jpg	2	-1	1	0	goose_03s.jpg	0	0	0	120.40533620317	120.455303191324	0.0499669881537557
104412	50	588	0	0	ferry	580	279	1	stimuli\ferry\ferry_06s.jpg	5	-1	1	0	ferry_06s.jpg	0	0	0	120.50534405373	120.555323720095	0.0499796663643792
104512	50	589	0	0	soda	1490	280	1	stimuli\soda\soda_05s.jpg	4	-1	1	0	soda_05s.jpg	0	0	0	120.605341420625	120.655324500287	0.0499830796616152
104612	50	590	0	0	waffle_iron	1771	281	1	stimuli\waffle_iron\waffle_iron_02s.jpg	1	-1	1	0	waffle_iron_02s.jpg	0	0	0	120.705348783638	120.755325280479	0.0499764968408272
104712	50	591	0	0	flan	609	282	1	stimuli\flan\flan_10s.jpg	9	-1	1	0	flan_10s.jpg	0	0	0	120.805348344846	120.855329230195	0.0499808853492141
104812	50	592	0	0	hula_hoop	810	283	1	stimuli\hula_hoop\hula_hoop_07s.jpg	6	-1	1	0	hula_hoop_07s.jpg	0	0	0	120.90533620317	120.955333423684	0.0499972205143422
104912	50	593	0	0	stalagmite	1534	284	1	stimuli\stalagmite\stalagmite_09s.jpg	8	-1	1	0	stalagmite_09s.jpg	0	0	0	121.005354049965	121.055337617174	0.049983567208983
105012	50	594	0	0	bok_choy	156	285	1	stimuli\bok_choy\bok_choy_11s.jpg	10	-1	1	0	bok_choy_11s.jpg	0	0	0	121.105355073931	121.155335227842	0.049980153911747
105112	50	595	0	0	insole	831	286	1	stimuli\insole\insole_05s.jpg	4	-1	1	0	insole_05s.jpg	0	0	0	121.205361217959	121.255337714683	0.0499764967244118
105212	50	596	0	0	dolphin	502	287	1	stimuli\dolphin\dolphin_05s.jpg	4	-1	1	0	dolphin_05s.jpg	0	0	0	121.305361266714	121.355328498757	0.0499672320438549
105312	50	597	0	0	lightning_bug	929	288	1	stimuli\lightning_bug\lightning_bug_08s.jpg	7	-1	1	0	lightning_bug_08s.jpg	0	0	0	121.405362290679	121.455348783638	0.0499864929588512
105412	50	598	0	0	lunchbox	950	289	1	stimuli\lunchbox\lunchbox_01b.jpg	0	-1	1	0	lunchbox_01b.jpg	0	0	0	121.505366484169	121.555346394307	0.0499799101380631
105512	50	599	0	0	bassinet	85	290	1	stimuli\bassinet\bassinet_11s.jpg	10	-1	1	0	bassinet_11s.jpg	0	0	0	121.605355805368	121.655350100249	0.0499942948808894
105612	50	600	0	0	frisbee	643	291	1	stimuli\frisbee\frisbee_04s.jpg	3	-1	1	0	frisbee_04s.jpg	0	0	0	121.705374627491	121.755351367989	0.0499767404980958
105712	50	601	0	0	radiator	1272	292	1	stimuli\radiator\radiator_06s.jpg	5	-1	1	0	radiator_06s.jpg	0	0	0	121.80537321337	121.855352879618	0.0499796662479639
105812	50	602	0	0	root	1331	293	1	stimuli\root\root_02s.jpg	1	-1	1	0	root_02s.jpg	0	0	0	121.905373993563	121.955339762731	0.0499657691689208
105912	50	603	0	0	tree_trunk	1709	294	1	stimuli\tree_trunk\tree_trunk_01b.jpg	0	-1	1	0	tree_trunk_01b.jpg	0	0	0	122.005377455615	122.055344687658	0.0499672320438549
106012	50	604	0	0	waterwheel	1794	295	1	stimuli\waterwheel\waterwheel_02s.jpg	1	-1	1	0	waterwheel_02s.jpg	0	0	0	122.105380430119	122.155361803132	0.0499813730129972
106112	50	605	0	0	odometer	1071	296	1	stimuli\odometer\odometer_09s.jpg	8	-1	1	0	odometer_09s.jpg	0	0	0	122.205384379835	122.255366240395	0.049981860560365
106212	50	606	0	0	stump	1576	297	1	stimuli\stump\stump_09s.jpg	8	-1	1	0	stump_09s.jpg	0	0	0	122.305383209488	122.355395058636	0.0500118491472676
106312	50	607	0	0	torpedo	1684	298	1	stimuli\torpedo\torpedo_08s.jpg	7	-1	1	0	torpedo_08s.jpg	0	0	0	122.405373018351	122.45536780078	0.0499947824282572
106412	50	608	0	0	mouse2	1027	299	1	stimuli\mouse2\mouse2_02s.jpg	1	-1	1	0	mouse2_02s.jpg	0	0	0	122.505376968067	122.555371262832	0.049994294764474
106512	50	609	0	0	checkers	311	300	1	stimuli\checkers\checkers_08s.jpg	7	-1	1	0	checkers_08s.jpg	0	0	0	122.60539262055	122.655374968774	0.0499823482241482
106612	50	610	0	0	treadmill	1706	301	1	stimuli\treadmill\treadmill_12n.jpg	11	-1	1	0	treadmill_12n.jpg	0	0	0	122.705394863617	122.755380381364	0.0499855177477002
106712	50	611	0	0	bandanna	67	302	1	stimuli\bandanna\bandanna_06s.jpg	5	-1	1	0	bandanna_06s.jpg	0	0	0	122.805381746613	122.855361412978	0.0499796663643792
106812	50	612	0	0	webcam	1799	303	1	stimuli\webcam\webcam_11s.jpg	10	-1	1	0	webcam_11s.jpg	0	0	0	122.90541324683	122.955382185522	0.0499689386924729
106912	50	613	0	0	catfish	287	304	1	stimuli\catfish\catfish_12s.jpg	11	-1	1	0	catfish_12s.jpg	0	0	0	123.005402324139	123.055388085661	0.0499857615213841
107012	50	614	0	0	file2	584	305	1	stimuli\file2\file2_11s.jpg	10	-1	1	0	file2_11s.jpg	0	0	0	123.105404567206	123.155378625961	0.0499740587547421
107112	50	615	0	0	joystick	852	306	1	stimuli\joystick\joystick_07s.jpg	6	-1	1	0	joystick_07s.jpg	0	0	0	123.205413149321	123.255392084131	0.0499789348104969
107212	50	616	0	0	measuring_cup	986	307	1	stimuli\measuring_cup\measuring_cup_03s.jpg	2	-1	1	0	measuring_cup_03s.jpg	0	0	0	123.305393449496	123.355396033847	0.0500025843502954
107312	50	617	0	0	coat_rack	370	308	1	stimuli\coat_rack\coat_rack_12s.jpg	11	-1	1	0	coat_rack_12s.jpg	0	0	0	123.405412027729	123.455393888406	0.0499818606767803
111329	50	618	0	0	shrimp	1438	0	2	stimuli\shrimp\shrimp_10s.jpg	9	-1	2	0	shrimp_10s.jpg	0	0	0	127.422186100506	127.472157233511	0.049971133004874
111429	50	619	0	0	nail_polish	1049	1	2	stimuli\nail_polish\nail_polish_09s.jpg	8	-1	2	0	nail_polish_09s.jpg	0	0	0	127.522162743611	127.572159964126	0.0499972205143422
111529	50	620	0	0	mosquito	1020	2	2	stimuli\mosquito\mosquito_06s.jpg	5	-1	2	0	mosquito_06s.jpg	0	0	0	127.622180590406	127.672172690975	0.0499921005684882
111629	50	621	0	0	notepad	1065	3	2	stimuli\notepad\notepad_01b.jpg	0	-1	2	0	notepad_01b.jpg	0	0	0	127.722187953419	127.772162255947	0.0499743025284261
111729	50	622	0	0	duster	534	4	2	stimuli\duster\duster_03s.jpg	2	-1	2	0	duster_03s.jpg	0	0	0	127.822184101329	127.872168643749	0.0499845424201339
111829	50	623	0	0	dresser	519	5	2	stimuli\dresser\dresser_10s.jpg	9	-1	2	0	dresser_10s.jpg	0	0	0	127.922191464342	127.972181614372	0.049990150029771
111929	50	624	0	0	headlight	765	6	2	stimuli\headlight\headlight_08s.jpg	7	-1	2	0	headlight_08s.jpg	0	0	0	128.022188587347	128.072159232688	0.0499706453410909
112029	50	625	0	0	shopping_cart	1428	7	2	stimuli\shopping_cart\shopping_cart_09s.jpg	8	-1	2	0	shopping_cart_09s.jpg	0	0	0	128.122176201898	128.172173422412	0.0499972205143422
112129	50	626	0	0	pajamas	1099	8	2	stimuli\pajamas\pajamas_01b.jpg	0	-1	2	0	pajamas_01b.jpg	0	0	0	128.222198193427	128.27216152451	0.0499633310828358
112229	50	627	0	0	anvil	28	9	2	stimuli\anvil\anvil_03s.jpg	2	-1	2	0	anvil_03s.jpg	0	0	0	128.322181419353	128.372179615195	0.0499981958419085
112329	50	628	0	0	tackle	1612	10	2	stimuli\tackle\tackle_06s.jpg	5	-1	2	0	tackle_06s.jpg	0	0	0	128.422181955772	128.472190147731	0.0500081919599324
112429	50	629	0	0	shawl	1411	11	2	stimuli\shawl\shawl_04s.jpg	3	-1	2	0	shawl_04s.jpg	0	0	0	128.522206385387	128.572184345103	0.0499779597157612
112529	50	630	0	0	organ	1082	12	2	stimuli\organ\organ_06s.jpg	5	-1	2	0	organ_06s.jpg	0	0	0	128.622189367539	128.672188051045	0.0499986835056916
112629	50	631	0	0	razor_blade	1291	13	2	stimuli\razor_blade\razor_blade_02s.jpg	1	-1	2	0	razor_blade_02s.jpg	0	0	0	128.722213309607	128.772198583581	0.0499852739740163
112729	50	632	0	0	fountain_pen	637	14	2	stimuli\fountain_pen\fountain_pen_12s.jpg	11	-1	2	0	fountain_pen_12s.jpg	0	0	0	128.822199705057	128.87218375993	0.0499840548727661
112829	50	633	0	0	skunk	1459	15	2	stimuli\skunk\skunk_11s.jpg	10	-1	2	0	skunk_11s.jpg	0	0	0	128.922217308078	128.972195755341	0.0499784472631291
112929	50	634	0	0	couch	422	16	2	stimuli\couch\couch_03s.jpg	2	-1	2	0	couch_03s.jpg	0	0	0	129.022216137848	129.072181663243	0.0499655253952369
113029	50	635	0	0	telegraph	1638	17	2	stimuli\telegraph\telegraph_05s.jpg	4	-1	2	0	telegraph_05s.jpg	0	0	0	129.122204727493	129.172200972913	0.0499962454196066
113129	50	636	0	0	vial	1760	18	2	stimuli\vial\vial_03s.jpg	2	-1	2	0	vial_03s.jpg	0	0	0	129.222206726787	129.272186149261	0.04997942247428
113229	50	637	0	0	macadamia	951	19	2	stimuli\macadamia\macadamia_02s.jpg	1	-1	2	0	macadamia_02s.jpg	0	0	0	129.32222652412	129.372207897017	0.0499813728965819
113329	50	638	0	0	candelabra	252	20	2	stimuli\candelabra\candelabra_09s.jpg	8	-1	2	0	candelabra_09s.jpg	0	0	0	129.422213163343	129.47221818578	0.0500050224363804
113429	50	639	0	0	drink	521	21	2	stimuli\drink\drink_11s.jpg	10	-1	2	0	drink_11s.jpg	0	0	0	129.522230034927	129.572210188839	0.049980153911747
113529	50	640	0	0	forklift	635	22	2	stimuli\forklift\forklift_06n.jpg	5	-1	2	0	forklift_06n.jpg	0	0	0	129.622234472306	129.672212431906	0.0499779595993459
113629	50	641	0	0	fishnet_stockings	604	23	2	stimuli\fishnet_stockings\fishnet_stockings_03s.jpg	2	-1	2	0	fishnet_stockings_03s.jpg	0	0	0	129.72223330196	129.772214187309	0.0499808853492141
113729	50	642	0	0	cupcake	461	24	2	stimuli\cupcake\cupcake_06s.jpg	5	-1	2	0	cupcake_06s.jpg	0	0	0	129.822221404058	129.872217161814	0.0499957577558234
113829	50	643	0	0	anklet	23	25	2	stimuli\anklet\anklet_03s.jpg	2	-1	2	0	anklet_03s.jpg	0	0	0	129.922239738517	129.972218917217	0.0499791787005961
113929	50	644	0	0	safety_pin	1344	26	2	stimuli\safety_pin\safety_pin_01b.jpg	0	-1	2	0	safety_pin_01b.jpg	0	0	0	130.022241250146	130.072222623159	0.0499813730129972
114029	50	645	0	0	jewel	849	27	2	stimuli\jewel\jewel_03s.jpg	2	-1	2	0	jewel_03s.jpg	0	0	0	130.122242761776	130.172226328985	0.049983567208983
114129	50	646	0	0	enchilada	556	28	2	stimuli\enchilada\enchilada_06s.jpg	5	-1	2	0	enchilada_06s.jpg	0	0	0	130.222250612453	130.272225402528	0.0499747900757939
114229	50	647	0	0	hat	757	29	2	stimuli\hat\hat_10s.jpg	9	-1	2	0	hat_10s.jpg	0	0	0	130.322231644066	130.37222910847	0.0499974644044414
114329	50	648	0	0	grenade	713	30	2	stimuli\grenade\grenade_01b.jpg	0	-1	2	0	grenade_01b.jpg	0	0	0	130.422251685173	130.472219160991	0.0499674758175388
114429	50	649	0	0	gasket	661	31	2	stimuli\gasket\gasket_01b.jpg	0	-1	2	0	gasket_01b.jpg	0	0	0	130.522253440577	130.572237495449	0.0499840548727661
114529	50	650	0	0	suspenders	1589	32	2	stimuli\suspenders\suspenders_10s.jpg	9	-1	2	0	suspenders_10s.jpg	0	0	0	130.622257146519	130.672238763305	0.0499816167866811
114629	50	651	0	0	chime	328	33	2	stimuli\chime\chime_11s.jpg	10	-1	2	0	chime_11s.jpg	0	0	0	130.722257682937	130.772241006372	0.0499833234352991
114729	50	652	0	0	peanut_butter	1132	34	2	stimuli\peanut_butter\peanut_butter_08s.jpg	7	-1	2	0	peanut_butter_08s.jpg	0	0	0	130.822266508825	130.872242274112	0.0499757652869448
114829	50	653	0	0	steamroller	1545	35	2	stimuli\steamroller\steamroller_11n.jpg	10	-1	2	0	steamroller_11n.jpg	0	0	0	130.922249247087	130.972220380092	0.049971133004874
114929	50	654	0	0	vulture	1768	36	2	stimuli\vulture\vulture_03s.jpg	2	-1	2	0	vulture_03s.jpg	0	0	0	131.022249783506	131.072224817472	0.0499750339658931
115029	50	655	0	0	wedding_cake	1800	37	2	stimuli\wedding_cake\wedding_cake_12s.jpg	11	-1	2	0	wedding_cake_12s.jpg	0	0	0	131.122253489331	131.172251197626	0.0499977082945406
115129	50	656	0	0	boxer_shorts	182	38	2	stimuli\boxer_shorts\boxer_shorts_06s.jpg	5	-1	2	0	boxer_shorts_06s.jpg	0	0	0	131.222276212415	131.272236373974	0.0499601615592837
