onset	duration	eventnumber	blocksequencenumber	isteststim	object	objectnumber	presentationnumber	sequencenumber	stim	stimnumber	teststimnumber	withinsequencenumber	istarget	stimname	response	rt	correct	time_stimon	time_stimoff	stimdur
133311	50	0	0	0	guardrail	720	0	0	stimuli\guardrail\guardrail_03s.jpg	2	-1	0	0	guardrail_03s.jpg	1	0	0	187.41883569723	187.468812742736	0.0499770455062389
133411	50	1	0	0	bird	128	1	0	stimuli\bird\bird_08s.jpg	7	-1	0	0	bird_08s.jpg	0	0	0	187.518854641356	187.568828761112	0.0499741197563708
133511	50	2	0	0	knitting_needle	881	2	0	stimuli\knitting_needle\knitting_needle_05s.jpg	4	-1	0	0	knitting_needle_05s.jpg	0	0	0	187.618857006077	187.668833076488	0.0499760704115033
133611	50	3	0	0	pear	1133	3	0	stimuli\pear\pear_09s.jpg	8	-1	0	0	pear_09s.jpg	0	0	0	187.71884986246	187.76882178802	0.049971925560385
133711	50	4	0	0	lightning_bug	929	4	0	stimuli\lightning_bug\lightning_bug_06s.jpg	5	-1	0	0	lightning_bug_06s.jpg	0	0	0	187.818842475303	187.868823909201	0.0499814338982105
133811	50	5	0	0	pie	1168	5	0	stimuli\pie\pie_12s.jpg	11	-1	0	0	pie_12s.jpg	0	0	0	187.918844840024	187.969441893045	0.0505970530211926
133911	50	6	0	0	grapefruit	703	6	0	stimuli\grapefruit\grapefruit_09s.jpg	8	-1	0	0	grapefruit_09s.jpg	0	0	0	188.0188737805	188.068837416358	0.0499636358581483
134011	50	7	0	0	duct	527	7	0	stimuli\duct\duct_09s.jpg	8	-1	0	0	duct_09s.jpg	0	0	0	188.118864686228	188.16885757912	0.0499928928911686
134111	50	8	0	0	nail_polish	1049	8	0	stimuli\nail_polish\nail_polish_09s.jpg	8	-1	0	0	nail_polish_09s.jpg	0	0	0	188.218877291307	188.268842877354	0.0499655860476196
134211	50	9	0	0	hood	791	9	0	stimuli\hood\hood_09s.jpg	8	-1	0	0	hood_09s.jpg	0	0	0	188.318863808643	188.368845974095	0.0499821654520929
134311	50	10	0	0	hot_chocolate	803	10	0	stimuli\hot_chocolate\hot_chocolate_04s.jpg	3	-1	0	0	hot_chocolate_04s.jpg	0	0	0	188.418866660912	188.468864430208	0.0499977692961693
134411	50	11	0	0	quad	1260	11	0	stimuli\quad\quad_07s.jpg	6	-1	0	0	quad_07s.jpg	0	0	0	188.518899502233	188.568849728443	0.0499502262100577
134511	50	12	0	0	basketball	83	12	0	stimuli\basketball\basketball_12s.jpg	11	-1	0	0	basketball_12s.jpg	0	0	0	188.618875535671	188.668867453467	0.049991917796433
134611	50	13	0	0	tarp	1628	13	0	stimuli\tarp\tarp_02s.jpg	1	-1	0	0	tarp_02s.jpg	0	0	0	188.718890334945	188.768867623992	0.0499772890470922
134711	50	14	0	0	jukebox	857	14	0	stimuli\jukebox\jukebox_11s.jpg	10	-1	0	0	jukebox_11s.jpg	0	0	0	188.818888798822	188.86887315847	0.0499843596480787
134811	50	15	0	0	salad	1348	15	0	stimuli\salad\salad_10s.jpg	9	-1	0	0	salad_10s.jpg	0	0	0	188.918895796407	188.968873085454	0.0499772890470922
134911	50	16	0	0	backgammon	48	16	0	stimuli\backgammon\backgammon_12s.jpg	11	-1	0	0	backgammon_12s.jpg	0	0	0	189.018895479385	189.068879839033	0.0499843596480787
135011	50	17	0	0	bucket	209	17	0	stimuli\bucket\bucket_08n.jpg	7	-1	0	0	bucket_08n.jpg	0	0	0	189.118898088112	189.168878302909	0.0499802147969604
135111	50	18	0	0	abacus	1	18	0	stimuli\abacus\abacus_05s.jpg	4	-1	0	0	abacus_05s.jpg	0	0	0	189.218902159948	189.268882374745	0.0499802147969604
135211	50	19	0	0	earring	540	19	0	stimuli\earring\earring_06n.jpg	5	-1	0	0	earring_06n.jpg	0	0	0	189.31890281802	189.368872305378	0.0499694873578846
135311	50	20	0	0	tape	1622	20	0	stimuli\tape\tape_04s.jpg	3	-1	0	0	tape_04s.jpg	0	0	0	189.418907133397	189.468888079748	0.0499809463508427
135411	50	21	0	0	measuring_cup	986	21	0	stimuli\measuring_cup\measuring_cup_11s.jpg	10	-1	0	0	measuring_cup_11s.jpg	0	0	0	189.518907791935	189.56889556488	0.0499877729453146
135511	50	22	0	0	snowman	1482	22	0	stimuli\snowman\snowman_06s.jpg	5	-1	0	0	snowman_06s.jpg	0	0	0	189.618882850278	189.668895247858	0.0500123975798488
135611	50	23	0	0	parfait	1119	23	0	stimuli\parfait\parfait_09s.jpg	8	-1	0	0	parfait_09s.jpg	0	0	0	189.718911790289	189.768896881491	0.049985091201961
135711	50	24	0	0	amber	18	24	0	stimuli\amber\amber_03s.jpg	2	-1	0	0	amber_03s.jpg	0	0	0	189.818914643023	189.868904853705	0.0499902106821537
135811	50	25	0	0	toilet	1670	25	0	stimuli\toilet\toilet_06s.jpg	5	-1	0	0	toilet_06s.jpg	0	0	0	189.918918958399	189.96890185494	0.049982896540314
135911	50	26	0	0	fruitcake	646	26	0	stimuli\fruitcake\fruitcake_05s.jpg	4	-1	0	0	fruitcake_05s.jpg	0	0	0	190.018925467972	190.068905682769	0.0499802147969604
136011	50	27	0	0	phone_booth	1162	27	0	stimuli\phone_booth\phone_booth_02s.jpg	1	-1	0	0	phone_booth_02s.jpg	0	0	0	190.118930027355	190.168909754604	0.0499797272495925
136111	50	28	0	0	kitten	875	28	0	stimuli\kitten\kitten_06s.jpg	5	-1	0	0	kitten_06s.jpg	0	0	0	190.218929222785	190.268909681123	0.0499804583378136
136211	50	29	0	0	dalmatian	471	29	0	stimuli\dalmatian\dalmatian_01b.jpg	0	-1	0	0	dalmatian_01b.jpg	0	0	0	190.318927686661	190.368911071215	0.0499833845533431
136311	50	30	0	0	dice	486	30	0	stimuli\dice\dice_06s.jpg	5	-1	0	0	dice_06s.jpg	0	0	0	190.418932977132	190.468916605692	0.0499836285598576
136411	50	31	0	0	odometer	1071	31	0	stimuli\odometer\odometer_10s.jpg	9	-1	0	0	odometer_10s.jpg	0	0	0	190.518937780522	190.568915557116	0.04997777659446
136511	50	32	0	0	navel	1052	32	0	stimuli\navel\navel_03s.jpg	2	-1	0	0	navel_03s.jpg	0	0	0	190.618947947398	190.668917922303	0.0499699749052525
136611	50	33	0	0	hairdryer	735	33	0	stimuli\hairdryer\hairdryer_10s.jpg	9	-1	0	0	hairdryer_10s.jpg	0	0	0	190.718943973072	190.768897125032	0.0499531519599259
136711	50	34	0	0	lawnmower	905	34	0	stimuli\lawnmower\lawnmower_05n.jpg	4	-1	0	0	lawnmower_05n.jpg	0	0	0	190.818919518963	190.868901196867	0.0499816779047251
136811	50	35	0	0	dog	495	35	0	stimuli\dog\dog_05s.jpg	4	-1	0	0	dog_05s.jpg	0	0	0	190.918920665048	190.96890185494	0.049981189891696
136911	50	36	0	0	banjo	68	36	0	stimuli\banjo\banjo_12s.jpg	11	-1	0	0	banjo_12s.jpg	0	0	0	191.01892424887	191.06890690187	0.0499826529994607
137011	50	37	0	0	pennant	1148	37	0	stimuli\pennant\pennant_08s.jpg	7	-1	0	0	pennant_08s.jpg	0	0	0	191.118946118746	191.168907316402	0.049961197655648
137111	50	38	0	0	headphones	766	38	0	stimuli\headphones\headphones_09s.jpg	8	-1	0	0	headphones_09s.jpg	0	0	0	191.218929222785	191.268910656683	0.0499814338982105
137211	50	39	0	0	slingshot	1467	39	0	stimuli\slingshot\slingshot_02s.jpg	1	-1	0	0	slingshot_02s.jpg	0	0	0	191.318932075053	191.368912290316	0.0499802152626216
137311	50	40	0	0	shaker	1408	40	0	stimuli\shaker\shaker_08s.jpg	7	-1	0	0	shaker_08s.jpg	0	0	0	191.418935659342	191.468913435936	0.04997777659446
137411	50	41	0	0	guitar	723	41	0	stimuli\guitar\guitar_12s.jpg	11	-1	0	0	guitar_12s.jpg	0	0	0	191.518935342319	191.568917019758	0.0499816774390638
137511	50	42	0	0	pot	1230	42	0	stimuli\pot\pot_05s.jpg	4	-1	0	0	pot_05s.jpg	0	0	0	191.618938438594	191.668917922303	0.0499794837087393
137611	50	43	0	0	granite	700	43	0	stimuli\granite\granite_01b.jpg	0	-1	0	0	granite_01b.jpg	0	0	0	191.718942997977	191.768921993673	0.0499789956957102
137711	50	44	0	0	pencil	1142	44	0	stimuli\pencil\pencil_07s.jpg	6	-1	0	0	pencil_07s.jpg	0	0	0	191.818943168502	191.868925333954	0.0499821654520929
137811	50	45	0	0	pin	1177	45	0	stimuli\pin\pin_08s.jpg	7	-1	0	0	pin_08s.jpg	0	0	0	191.918947483879	191.968928674236	0.0499811903573573
137911	50	46	0	0	stomach	1560	46	0	stimuli\stomach\stomach_09s.jpg	8	-1	0	0	stomach_09s.jpg	0	0	0	192.018949117512	192.068931770511	0.0499826529994607
138011	50	47	0	0	cookie_cutter	401	47	0	stimuli\cookie_cutter\cookie_cutter_10s.jpg	9	-1	0	0	cookie_cutter_10s.jpg	0	0	0	192.118953676894	192.168933160137	0.049979483243078
138111	50	48	0	0	dirt_bike	488	48	0	stimuli\dirt_bike\dirt_bike_02s.jpg	1	-1	0	0	dirt_bike_02s.jpg	0	0	0	192.218956285622	192.268935037311	0.0499787516891956
138211	50	49	0	0	taffy	1615	49	0	stimuli\taffy\taffy_06s.jpg	5	-1	0	0	taffy_06s.jpg	0	0	0	192.31895913789	192.368938621599	0.0499794837087393
138311	50	50	0	0	trumpet	1721	50	0	stimuli\trumpet\trumpet_04s.jpg	3	-1	0	0	trumpet_04s.jpg	0	0	0	192.418959064875	192.468941473868	0.0499824089929461
138411	50	51	0	0	solar_panel	1493	51	0	stimuli\solar_panel\solar_panel_12s.jpg	11	-1	0	0	solar_panel_12s.jpg	0	0	0	192.518960698508	192.568944083061	0.0499833845533431
138511	50	52	0	0	barbell	72	52	0	stimuli\barbell\barbell_07s.jpg	6	-1	0	0	barbell_07s.jpg	0	0	0	192.618964526337	192.668950105086	0.0499855787493289
138611	50	53	0	0	candy_cane	257	53	0	stimuli\candy_cane\candy_cane_12s.jpg	11	-1	0	0	candy_cane_12s.jpg	0	0	0	192.718970304355	192.768949300516	0.0499789961613715
138711	50	54	0	0	goalpost	683	54	0	stimuli\goalpost\goalpost_11s.jpg	10	-1	0	0	goalpost_11s.jpg	0	0	0	192.818972181994	192.868953371886	0.049981189891696
138811	50	55	0	0	briefcase	200	55	0	stimuli\briefcase\briefcase_11s.jpg	10	-1	0	0	briefcase_11s.jpg	0	0	0	192.918975522276	192.968956468161	0.0499809458851814
138911	50	56	0	0	hamster	743	56	0	stimuli\hamster\hamster_08s.jpg	7	-1	0	0	hamster_08s.jpg	0	0	0	193.018977155443	193.068970292341	0.0499931368976831
139011	50	57	0	0	ping-pong_table	1184	57	0	stimuli\ping-pong_table\ping-pong_table_09s.jpg	8	-1	0	0	ping-pong_table_09s.jpg	0	0	0	193.118977813981	193.168961198069	0.0499833840876818
139111	50	58	0	0	hole	785	58	0	stimuli\hole\hole_03s.jpg	2	-1	0	0	hole_03s.jpg	0	0	0	193.218983592	193.268963319249	0.0499797272495925
139211	50	59	0	0	music_box	1041	59	0	stimuli\music_box\music_box_11s.jpg	10	-1	0	0	music_box_11s.jpg	0	0	0	193.318983518984	193.36896641599	0.0499828970059752
139311	50	60	0	0	panther	1106	60	0	stimuli\panther\panther_02s.jpg	1	-1	0	0	panther_02s.jpg	0	0	0	193.418988321908	193.468969755806	0.0499814338982105
139411	50	61	0	0	toad	1664	61	0	stimuli\toad\toad_09s.jpg	8	-1	0	0	toad_09s.jpg	0	0	0	193.518989223987	193.568968707696	0.0499794837087393
139511	50	62	0	0	dreidel	517	62	0	stimuli\dreidel\dreidel_03s.jpg	2	-1	0	0	dreidel_03s.jpg	0	0	0	193.618992320728	193.668975461274	0.0499831405468285
139611	50	63	0	0	breathalyzer	198	63	0	stimuli\breathalyzer\breathalyzer_05s.jpg	4	-1	0	0	breathalyzer_05s.jpg	0	0	0	193.719016140793	193.768973437604	0.0499572968110442
139711	50	64	0	0	rolling_pin	1328	64	0	stimuli\rolling_pin\rolling_pin_09s.jpg	8	-1	0	1	rolling_pin_09s.jpg	0	0	0	193.818999488372	193.868978240527	0.0499787521548569
139811	50	65	0	0	wasp	1785	65	0	stimuli\wasp\wasp_03s.jpg	2	-1	0	0	wasp_03s.jpg	0	0	0	193.919006729499	193.968987432308	0.0499807028099895
139911	50	66	0	0	curry	464	66	0	stimuli\curry\curry_03s.jpg	2	-1	0	0	curry_03s.jpg	0	0	0	194.019003730733	194.06898687128	0.0499831405468285
140011	50	67	0	0	shoulder	1431	67	0	stimuli\shoulder\shoulder_05s.jpg	4	-1	0	0	shoulder_05s.jpg	0	0	0	194.119005851913	194.168987773359	0.0499819214455783
140111	50	68	0	0	turbine	1731	68	0	stimuli\turbine\turbine_07s.jpg	6	-1	0	0	turbine_07s.jpg	1	0.392179762013257	1	194.21900724154	194.26899111364	0.0499838721007109
140211	50	69	0	0	goblet	685	69	0	stimuli\goblet\goblet_03s.jpg	2	-1	0	0	goblet_03s.jpg	0	0	0	194.31901228847	194.368991284166	0.0499789956957102
140311	50	70	0	0	crowbar	447	70	0	stimuli\crowbar\crowbar_01b.jpg	0	-1	0	0	crowbar_01b.jpg	0	0	0	194.419013678096	194.468992917798	0.0499792397022247
140411	50	71	0	0	manatee	964	71	0	stimuli\manatee\manatee_03s.jpg	2	-1	0	0	manatee_03s.jpg	0	0	0	194.519017505925	194.568998696283	0.0499811903573573
140511	50	72	0	0	sprouts	1524	72	0	stimuli\sprouts\sprouts_12s.jpg	11	-1	0	0	sprouts_12s.jpg	0	0	0	194.619021090213	194.669001548551	0.0499804583378136
140611	50	73	0	0	burrito	225	73	0	stimuli\burrito\burrito_07s.jpg	6	-1	0	0	burrito_07s.jpg	0	0	0	194.719032719731	194.769002207089	0.0499694873578846
140711	50	74	0	0	sundial	1583	74	0	stimuli\sundial\sundial_12s.jpg	11	-1	0	0	sundial_12s.jpg	0	0	0	194.819023137912	194.869005303364	0.0499821654520929
140811	50	75	0	0	jug	853	75	0	stimuli\jug\jug_11s.jpg	10	-1	0	0	jug_11s.jpg	0	0	0	194.919027453288	194.969007180538	0.0499797272495925
140911	50	76	0	0	praying_mantis	1238	76	0	stimuli\praying_mantis\praying_mantis_03s.jpg	2	-1	0	0	praying_mantis_03s.jpg	0	0	0	195.019028843381	195.069010033272	0.049981189891696
141011	50	77	0	0	whistle	1812	77	0	stimuli\whistle\whistle_06s.jpg	5	-1	0	0	whistle_06s.jpg	0	0	0	195.119032671209	195.169016055297	0.0499833840876818
141111	50	78	0	0	scooter	1382	78	0	stimuli\scooter\scooter_08s.jpg	7	-1	0	0	scooter_08s.jpg	0	0	0	195.219035279937	195.269015738275	0.0499804583378136
141211	50	79	0	0	film	586	79	0	stimuli\film\film_03s.jpg	2	-1	0	0	film_03s.jpg	0	0	0	195.319038376212	195.369018591009	0.0499802147969604
141311	50	80	0	0	sundae	1582	80	0	stimuli\sundae\sundae_10s.jpg	9	-1	0	0	sundae_10s.jpg	0	0	0	195.419041472487	195.469023637939	0.0499821654520929
141411	50	81	0	0	tie	1658	81	0	stimuli\tie\tie_06s.jpg	5	-1	0	0	tie_06s.jpg	0	0	0	195.519043349661	195.569023808464	0.0499804588034749
141511	50	82	0	0	dish	489	82	0	stimuli\dish\dish_01b.jpg	0	-1	0	0	dish_01b.jpg	0	0	0	195.619046689942	195.669025686104	0.0499789961613715
141611	50	83	0	0	ticktacktoe	1657	83	0	stimuli\ticktacktoe\ticktacktoe_12s.jpg	11	-1	0	0	ticktacktoe_12s.jpg	0	0	0	195.719050761778	195.76902902592	0.0499782641418278
141711	50	84	0	0	pedometer	1137	84	0	stimuli\pedometer\pedometer_07s.jpg	6	-1	0	0	pedometer_07s.jpg	0	0	0	195.81905117631	195.869034804404	0.0499836280941963
141811	50	85	0	0	dustpan	535	85	0	stimuli\dustpan\dustpan_05s.jpg	4	-1	0	0	dustpan_05s.jpg	0	0	0	195.919054760132	195.969037657138	0.0499828970059752
141911	50	86	0	0	gyroscope	731	86	0	stimuli\gyroscope\gyroscope_02s.jpg	1	-1	0	0	gyroscope_02s.jpg	0	0	0	196.019056149758	196.069038071204	0.0499819214455783
142011	50	87	0	0	overalls	1090	87	0	stimuli\overalls\overalls_04s.jpg	3	-1	0	0	overalls_04s.jpg	0	0	0	196.11905949004	196.169040436391	0.0499809463508427
142111	50	88	0	0	pet_food	1157	88	0	stimuli\pet_food\pet_food_02s.jpg	1	-1	0	0	pet_food_02s.jpg	0	0	0	196.219061123673	196.269042070024	0.0499809463508427
142211	50	89	0	0	basket	82	89	0	stimuli\basket\basket_05s.jpg	4	-1	0	0	basket_05s.jpg	0	0	0	196.319065195043	196.369045653846	0.0499804588034749
142311	50	90	0	0	medal	991	90	0	stimuli\medal\medal_06s.jpg	5	-1	0	0	medal_06s.jpg	0	0	0	196.419067560229	196.46904753102	0.0499799707904458
142411	50	91	0	0	frame	639	91	0	stimuli\frame\frame_02s.jpg	1	-1	0	0	frame_02s.jpg	0	0	0	196.519068949856	196.569055260159	0.0499863103032112
142511	50	92	0	0	peppermint	1152	92	0	stimuli\peppermint\peppermint_10s.jpg	9	-1	0	0	peppermint_10s.jpg	0	0	0	196.61907375278	196.669052504934	0.0499787521548569
142611	50	93	0	0	swimming_pool	1596	93	0	stimuli\swimming_pool\swimming_pool_04s.jpg	3	-1	0	0	swimming_pool_04s.jpg	0	0	0	196.719076605514	196.769056088757	0.049979483243078
142711	50	94	0	0	hubcap	809	94	0	stimuli\hubcap\hubcap_04s.jpg	3	-1	0	0	hubcap_04s.jpg	0	0	0	196.819077263586	196.869058941491	0.0499816779047251
142811	50	95	0	0	dumpling	532	95	0	stimuli\dumpling\dumpling_04s.jpg	3	-1	0	0	dumpling_04s.jpg	0	0	0	196.919079628773	196.969063256867	0.0499836280941963
142911	50	96	0	0	sombrero	1495	96	0	stimuli\sombrero\sombrero_07s.jpg	6	-1	0	0	sombrero_07s.jpg	0	0	0	197.019083456602	197.069064646494	0.049981189891696
143011	50	97	0	0	nose	1063	97	0	stimuli\nose\nose_02s.jpg	1	-1	0	0	nose_02s.jpg	0	0	0	197.119085333776	197.169066524133	0.0499811903573573
143111	50	98	0	0	teepee	1637	98	0	stimuli\teepee\teepee_11s.jpg	10	-1	0	0	teepee_11s.jpg	0	0	0	197.219089161605	197.269068888854	0.0499797272495925
143211	50	99	0	0	crutch	452	99	0	stimuli\crutch\crutch_11s.jpg	10	-1	0	0	crutch_11s.jpg	0	0	0	197.319091526791	197.369072473142	0.0499809463508427
143311	50	100	0	0	prism	1241	100	0	stimuli\prism\prism_02s.jpg	1	-1	0	0	prism_02s.jpg	0	0	0	197.419095110614	197.46907508187	0.0499799712561071
143411	50	101	0	0	cabinet	233	101	0	stimuli\cabinet\cabinet_01s.jpg	0	-1	0	0	cabinet_01s.jpg	0	0	0	197.519095281139	197.569077934138	0.0499826529994607
143511	50	102	0	0	raspberry	1284	102	0	stimuli\raspberry\raspberry_04s.jpg	3	-1	0	0	raspberry_04s.jpg	0	0	0	197.61909837788	197.669079567771	0.049981189891696
143611	50	103	0	0	tuba	1723	103	0	stimuli\tuba\tuba_05s.jpg	4	-1	0	0	tuba_05s.jpg	0	0	0	197.719103912357	197.769085833803	0.0499819214455783
143711	50	104	0	0	counter	424	104	0	stimuli\counter\counter_05s.jpg	4	-1	0	0	counter_05s.jpg	0	0	0	197.819107252173	197.86909136828	0.0499841161072254
143811	50	105	0	0	highchair	777	105	0	stimuli\highchair\highchair_04s.jpg	3	-1	0	0	highchair_04s.jpg	0	0	0	197.919108642265	197.96908641886	0.04997777659446
143911	50	106	0	0	melon	994	106	0	stimuli\melon\melon_01b.jpg	0	-1	0	0	melon_01b.jpg	0	0	0	198.019110275432	198.069089515135	0.0499792397022247
144011	50	107	0	0	dress	518	107	0	stimuli\dress\dress_08s.jpg	7	-1	0	0	dress_08s.jpg	0	0	0	198.119113615714	198.169093099423	0.0499794837087393
144111	50	108	0	0	powder	1236	108	0	stimuli\powder\powder_04s.jpg	3	-1	0	0	powder_04s.jpg	0	0	0	198.219115492888	198.269095951691	0.0499804588034749
144211	50	109	0	0	whip	1809	109	0	stimuli\whip\whip_09s.jpg	8	-1	0	0	whip_09s.jpg	0	0	0	198.319117126521	198.369099535979	0.0499824094586074
144311	50	110	0	0	chandelier	305	110	0	stimuli\chandelier\chandelier_12s.jpg	11	-1	0	0	chandelier_12s.jpg	0	0	0	198.419119491708	198.4691019007	0.0499824089929461
144411	50	111	0	0	leech	909	111	0	stimuli\leech\leech_03s.jpg	2	-1	0	0	leech_03s.jpg	0	0	0	198.51912307553	198.569104753435	0.0499816779047251
144511	50	112	0	0	apple_tree	31	112	0	stimuli\apple_tree\apple_tree_05s.jpg	4	-1	0	0	apple_tree_05s.jpg	0	0	0	198.619125440717	198.669106386602	0.0499809458851814
144611	50	113	0	0	cinnamon	348	113	0	stimuli\cinnamon\cinnamon_03s.jpg	2	-1	0	0	cinnamon_03s.jpg	0	0	0	198.719129756093	198.769111677539	0.0499819214455783
144711	50	114	0	0	parking_meter	1120	114	0	stimuli\parking_meter\parking_meter_10s.jpg	9	-1	0	0	parking_meter_10s.jpg	0	0	0	198.819131633267	198.869111604523	0.0499799712561071
144811	50	115	0	0	valve	1751	115	0	stimuli\valve\valve_01b.jpg	0	-1	0	1	valve_01b.jpg	0	0	0	198.919133510441	198.969115188345	0.0499816779047251
144911	50	116	0	0	thermos	1647	116	0	stimuli\thermos\thermos_02s.jpg	1	-1	0	0	thermos_02s.jpg	0	0	0	199.019136363175	199.069117553066	0.049981189891696
145011	50	117	0	0	stockings	1559	117	0	stimuli\stockings\stockings_06s.jpg	5	-1	0	0	stockings_06s.jpg	0	0	0	199.119138484355	199.169119430706	0.0499809463508427
145111	50	118	0	0	boot	169	118	0	stimuli\boot\boot_03s.jpg	2	-1	0	0	boot_03s.jpg	0	0	0	199.219142312184	199.26912130788	0.0499789956957102
145211	50	119	0	0	board	152	119	0	stimuli\board\board_06s.jpg	5	-1	0	0	board_06s.jpg	1	0.450301751028746	1	199.319144433364	199.36912635481	0.0499819214455783
145311	50	120	0	0	eclair	544	120	0	stimuli\eclair\eclair_11s.jpg	10	-1	0	0	eclair_11s.jpg	0	0	0	199.419163865037	199.469132620841	0.0499687558040023
145411	50	121	0	0	nail_clippers	1047	121	0	stimuli\nail_clippers\nail_clippers_05s.jpg	4	-1	0	0	nail_clippers_05s.jpg	0	0	0	199.51914965082	199.56913352292	0.0499838721007109
145511	50	122	0	0	watering_can	1792	122	0	stimuli\watering_can\watering_can_12s.jpg	11	-1	0	0	watering_can_12s.jpg	0	0	0	199.619152259547	199.669136863202	0.0499846036545932
145611	50	123	0	0	radish	1274	123	0	stimuli\radish\radish_12s.jpg	11	-1	0	0	radish_12s.jpg	0	0	0	199.719156574924	199.769135083072	0.0499785081483424
145711	50	124	0	0	wok	1830	124	0	stimuli\wok\wok_09s.jpg	8	-1	0	0	wok_09s.jpg	0	0	0	199.819156257901	199.869140130002	0.0499838721007109
145811	50	125	0	0	marker	975	125	0	stimuli\marker\marker_05s.jpg	4	-1	0	0	marker_05s.jpg	0	0	0	199.919159110636	199.969142251182	0.0499831405468285
145911	50	126	0	0	sword	1602	126	0	stimuli\sword\sword_06s.jpg	5	-1	0	0	sword_06s.jpg	0	0	0	200.019163182471	200.069155831356	0.049992648884654
146011	50	127	0	0	tennis_ball	1642	127	0	stimuli\tennis_ball\tennis_ball_08s.jpg	7	-1	0	0	tennis_ball_08s.jpg	0	0	0	200.11916310899	200.169158927631	0.0499958186410367
146111	50	128	0	0	lamppost	892	128	0	stimuli\lamppost\lamppost_06s.jpg	5	-1	0	0	lamppost_06s.jpg	0	0	0	200.219179371372	200.26915495377	0.0499755823984742
146211	50	129	0	0	handle	748	129	0	stimuli\handle\handle_06s.jpg	5	-1	0	0	handle_06s.jpg	0	0	0	200.319174421951	200.3691529301	0.0499785081483424
146311	50	130	0	0	stiletto	1554	130	0	stimuli\stiletto\stiletto_12s.jpg	11	-1	0	0	stiletto_12s.jpg	0	0	0	200.419174592476	200.469155538827	0.0499809463508427
146411	50	131	0	0	bandanna	67	131	0	stimuli\bandanna\bandanna_12s.jpg	11	-1	0	0	bandanna_12s.jpg	0	0	0	200.519177445211	200.569156440906	0.0499789956957102
146511	50	132	0	0	prune	1244	132	0	stimuli\prune\prune_05s.jpg	4	-1	0	0	prune_05s.jpg	0	0	0	200.619180785492	200.669159049634	0.0499782641418278
146612	50	133	0	0	easel	542	133	0	stimuli\easel\easel_07s.jpg	6	-1	0	0	easel_07s.jpg	0	0	0	200.719194609206	200.769162145909	0.0499675367027521
146712	50	134	0	0	rock	1319	134	0	stimuli\rock\rock_11s.jpg	10	-1	0	0	rock_11s.jpg	0	0	0	200.819198681042	200.869164511096	0.0499658300541341
146812	50	135	0	0	pudding	1246	135	0	stimuli\pudding\pudding_09s.jpg	8	-1	0	0	pudding_09s.jpg	0	0	0	200.919189343229	200.969168094918	0.0499787516891956
146912	50	136	0	0	nightshirt	1058	136	0	stimuli\nightshirt\nightshirt_01b.jpg	0	-1	0	0	nightshirt_01b.jpg	0	0	0	201.01919170795	201.069170703646	0.0499789956957102
147012	50	137	0	0	scone	1380	137	0	stimuli\scone\scone_10s.jpg	9	-1	0	0	scone_10s.jpg	0	0	0	201.119197486434	201.169174043927	0.0499765574932098
147112	50	138	0	0	mango	966	138	0	stimuli\mango\mango_04s.jpg	3	-1	0	0	mango_04s.jpg	0	0	0	201.219194243662	201.269180065952	0.0499858222901821
147212	50	139	0	0	skeleton	1450	139	0	stimuli\skeleton\skeleton_10s.jpg	9	-1	0	0	skeleton_10s.jpg	0	0	0	201.319200997241	201.369178529829	0.0499775325879455
147312	50	140	0	0	rhubarb	1307	140	0	stimuli\rhubarb\rhubarb_02n.jpg	1	-1	0	0	rhubarb_02n.jpg	0	0	0	201.419200192671	201.469182114117	0.0499819214455783
147412	50	141	0	0	teddy_bear	1635	141	0	stimuli\teddy_bear\teddy_bear_08s.jpg	7	-1	0	0	teddy_bear_08s.jpg	0	0	0	201.519203776494	201.569196913391	0.0499931368976831
147512	50	142	0	0	fruit	645	142	0	stimuli\fruit\fruit_08s.jpg	7	-1	0	0	fruit_08s.jpg	0	0	0	201.619205653667	201.669188550673	0.0499828970059752
147612	50	143	0	0	train	1698	143	0	stimuli\train\train_10n.jpg	9	-1	0	0	train_10n.jpg	0	0	0	201.719208506402	201.76918701455	0.0499785081483424
147712	50	144	0	0	axe	45	144	0	stimuli\axe\axe_01b.jpg	0	-1	0	0	axe_01b.jpg	0	0	0	201.819213553332	201.869193768129	0.0499802147969604
147812	50	145	0	0	pine_tree	1181	145	0	stimuli\pine_tree\pine_tree_04s.jpg	3	-1	0	0	pine_tree_04s.jpg	0	0	0	201.919215186965	201.969198083505	0.049982896540314
147912	50	146	0	0	doghouse	497	146	0	stimuli\doghouse\doghouse_09s.jpg	8	-1	0	0	doghouse_09s.jpg	0	0	0	202.019216089044	202.069199717138	0.0499836280941963
148012	50	147	0	0	crank	432	147	0	stimuli\crank\crank_02s.jpg	1	-1	0	0	crank_02s.jpg	0	0	0	202.119218453765	202.169198181015	0.0499797272495925
148112	50	148	0	0	grater	708	148	0	stimuli\grater\grater_05s.jpg	4	-1	0	0	grater_05s.jpg	0	0	0	202.219219843391	202.269201765303	0.0499819219112396
148212	50	149	0	0	knot	883	149	0	stimuli\knot\knot_08s.jpg	7	-1	0	0	knot_08s.jpg	0	0	0	202.319224646781	202.369205349125	0.0499807023443282
148312	50	150	0	0	shelf	1416	150	0	stimuli\shelf\shelf_04s.jpg	3	-1	0	0	shelf_04s.jpg	0	0	0	202.419227499049	202.469208201859	0.0499807028099895
148412	50	151	0	0	cocoon	376	151	0	stimuli\cocoon\cocoon_12s.jpg	11	-1	0	0	cocoon_12s.jpg	0	0	0	202.519231570885	202.569214954972	0.0499833840876818
148512	50	152	0	0	clothes	361	152	0	stimuli\clothes\clothes_04s.jpg	3	-1	0	0	clothes_04s.jpg	0	0	0	202.619244907051	202.669212443754	0.0499675367027521
148612	50	153	0	0	mallet	962	153	0	stimuli\mallet\mallet_06s.jpg	5	-1	0	0	mallet_06s.jpg	0	0	0	202.719235325698	202.769217734691	0.0499824089929461
148712	50	154	0	0	coral	406	154	0	stimuli\coral\coral_09s.jpg	8	-1	0	0	coral_09s.jpg	0	0	0	202.819239884615	202.869219368324	0.0499794837087393
148812	50	155	0	0	cannonball	261	155	0	stimuli\cannonball\cannonball_11s.jpg	10	-1	0	0	cannonball_11s.jpg	0	0	0	202.919240299147	202.969228072092	0.0499877729453146
148912	50	156	0	0	broccoli	201	156	0	stimuli\broccoli\broccoli_03s.jpg	2	-1	0	0	broccoli_03s.jpg	0	0	0	203.01924217632	203.069224341772	0.0499821654520929
149012	50	157	0	0	cash_machine	279	157	0	stimuli\cash_machine\cash_machine_03s.jpg	2	-1	0	0	cash_machine_03s.jpg	0	0	0	203.11924697971	203.169230851345	0.0499838716350496
149112	50	158	0	0	vending_machine	1757	158	0	stimuli\vending_machine\vending_machine_05s.jpg	4	-1	0	0	vending_machine_05s.jpg	0	0	0	203.219250075985	203.269232241437	0.0499821654520929
149212	50	159	0	0	tab	1607	159	0	stimuli\tab\tab_01b.jpg	0	-1	0	0	tab_01b.jpg	0	0	0	203.319252928719	203.369233631063	0.0499807023443282
149312	50	160	0	0	pickax	1166	160	0	stimuli\pickax\pickax_04s.jpg	3	-1	0	0	pickax_04s.jpg	0	0	0	203.419265777338	203.46923794644	0.0499721691012383
149412	50	161	0	0	grapevine	704	161	0	stimuli\grapevine\grapevine_08s.jpg	7	-1	0	0	grapevine_08s.jpg	0	0	0	203.51925741462	203.569236166775	0.0499787521548569
149512	50	162	0	0	orangutan	1080	162	0	stimuli\orangutan\orangutan_11s.jpg	10	-1	0	0	orangutan_11s.jpg	0	0	0	203.619263924193	203.669240238145	0.0499763139523566
149612	50	163	0	0	xylophone	1843	163	0	stimuli\xylophone\xylophone_06s.jpg	5	-1	0	0	xylophone_06s.jpg	0	0	0	203.719261412974	203.769242115784	0.0499807028099895
149712	50	164	0	0	bungee	221	164	0	stimuli\bungee\bungee_10s.jpg	9	-1	0	0	bungee_10s.jpg	0	0	0	203.819265972357	203.869244236499	0.0499782641418278
149812	50	165	0	0	egg	546	165	0	stimuli\egg\egg_08s.jpg	7	-1	0	0	egg_08s.jpg	0	0	0	203.919267361984	203.969252696726	0.0499853347428143
149912	50	166	0	0	ukulele	1742	166	0	stimuli\ukulele\ukulele_10s.jpg	9	-1	0	0	ukulele_10s.jpg	0	0	0	204.019270214718	204.069249697961	0.049979483243078
150012	50	167	0	0	aardvark	0	167	0	stimuli\aardvark\aardvark_05s.jpg	4	-1	0	0	aardvark_05s.jpg	0	0	0	204.119275261648	204.169257670641	0.0499824089929461
150112	50	168	0	0	router	1336	168	0	stimuli\router\router_01b.jpg	0	-1	0	0	router_01b.jpg	0	0	0	204.219274457078	204.269256134517	0.0499816774390638
150212	50	169	0	0	can	250	169	0	stimuli\can\can_12s.jpg	11	-1	0	0	can_12s.jpg	0	0	0	204.319294863846	204.369259962346	0.0499650985002518
150312	50	170	0	0	jetski	848	170	0	stimuli\jetski\jetski_06s.jpg	5	-1	0	0	jetski_06s.jpg	0	0	0	204.419283331372	204.46927451808	0.0499911867082119
150412	50	171	0	0	blazer	137	171	0	stimuli\blazer\blazer_04s.jpg	3	-1	0	0	blazer_04s.jpg	0	0	0	204.519284233451	204.569264936261	0.0499807028099895
150512	50	172	0	0	hash	756	172	0	stimuli\hash\hash_12s.jpg	11	-1	0	0	hash_12s.jpg	0	0	0	204.619287573732	204.669278516434	0.0499909427016973
150612	50	173	0	0	asparagus	42	173	0	stimuli\asparagus\asparagus_11s.jpg	10	-1	0	0	asparagus_11s.jpg	0	0	0	204.719289694913	204.769270397257	0.0499807023443282
150712	50	174	0	0	earwig	541	174	0	stimuli\earwig\earwig_07n.jpg	6	-1	0	0	earwig_07n.jpg	0	0	0	204.819293766748	204.869273737539	0.0499799707904458
150812	50	175	0	0	bassinet	85	175	0	stimuli\bassinet\bassinet_03s.jpg	2	-1	0	0	bassinet_03s.jpg	0	0	0	204.919294424821	204.969272932969	0.0499785081483424
150912	50	176	0	0	catfish	287	176	0	stimuli\catfish\catfish_09s.jpg	8	-1	0	0	catfish_09s.jpg	0	0	0	205.019297033548	205.069279199	0.0499821654520929
151012	50	177	0	0	cobra	371	177	0	stimuli\cobra\cobra_06s.jpg	5	-1	0	0	cobra_06s.jpg	0	0	0	205.119303787127	205.169279857073	0.049976069945842
151112	50	178	0	0	spider	1513	178	0	stimuli\spider\spider_01b.jpg	0	-1	0	0	spider_01b.jpg	0	0	0	205.219304445665	205.269284416456	0.0499799707904458
151212	50	179	0	0	turf	1732	179	0	stimuli\turf\turf_08s.jpg	7	-1	0	0	turf_08s.jpg	0	0	0	205.319305835292	205.369287025183	0.049981189891696
151312	50	180	0	0	mirror	1005	180	0	stimuli\mirror\mirror_09s.jpg	8	-1	0	0	mirror_09s.jpg	0	0	0	205.419319415465	205.469301824458	0.0499824089929461
151412	50	181	0	0	corkscrew	411	181	0	stimuli\corkscrew\corkscrew_09s.jpg	8	-1	0	0	corkscrew_09s.jpg	0	0	0	205.519311052747	205.569309553131	0.0499985003843904
151512	50	182	0	0	swordfish	1603	182	0	stimuli\swordfish\swordfish_07s.jpg	6	-1	0	0	swordfish_07s.jpg	0	0	0	205.619313417468	205.66929265717	0.0499792397022247
151612	50	183	0	0	walker1	1773	183	0	stimuli\walker1\walker1_05s.jpg	4	-1	0	0	walker1_05s.jpg	0	0	0	205.719313588459	205.769297948107	0.0499843596480787
151712	50	184	0	0	tinsel	1662	184	0	stimuli\tinsel\tinsel_09s.jpg	8	-1	0	0	tinsel_09s.jpg	0	0	0	205.819328387734	205.869298362639	0.0499699749052525
151812	50	185	0	0	mold2	1013	185	0	stimuli\mold2\mold2_10s.jpg	9	-1	0	0	mold2_10s.jpg	0	0	0	205.919322463218	205.96930365311	0.049981189891696
151912	50	186	0	0	orchid	1081	186	0	stimuli\orchid\orchid_02s.jpg	1	-1	0	0	orchid_02s.jpg	0	0	0	206.019326534588	206.069306749385	0.0499802147969604
152012	50	187	0	0	lighter	928	187	0	stimuli\lighter\lighter_05s.jpg	4	-1	0	1	lighter_05s.jpg	0	0	0	206.119325730018	206.169319598004	0.0499938679859042
152112	50	188	0	0	perfume	1154	188	0	stimuli\perfume\perfume_01b.jpg	0	-1	0	0	perfume_01b.jpg	0	0	0	206.219330045395	206.26930904109	0.0499789956957102
152212	50	189	0	0	phone	1161	189	0	stimuli\phone\phone_04s.jpg	3	-1	0	0	phone_04s.jpg	0	0	0	206.319331679028	206.369313600473	0.0499819214455783
152312	50	190	0	0	amplifier	20	190	0	stimuli\amplifier\amplifier_03s.jpg	2	-1	0	0	amplifier_03s.jpg	1	0.350165046751499	1	206.419337457046	206.469316940755	0.0499794837087393
152412	50	191	0	0	shoe	1423	191	0	stimuli\shoe\shoe_02s.jpg	1	-1	0	0	shoe_02s.jpg	0	0	0	206.51933738403	206.569318086375	0.0499807023443282
152512	50	192	0	0	boar	151	192	0	stimuli\boar\boar_10s.jpg	9	-1	0	0	boar_10s.jpg	0	0	0	206.619340968318	206.669321426656	0.0499804583378136
152612	50	193	0	0	cloak	358	193	0	stimuli\cloak\cloak_04s.jpg	3	-1	0	0	cloak_04s.jpg	0	0	0	206.719341138843	206.769323060289	0.0499819214455783
152712	50	194	0	0	charger	308	194	0	stimuli\charger\charger_05s.jpg	4	-1	0	0	charger_05s.jpg	0	0	0	206.819343747571	206.869326644111	0.049982896540314
152812	50	195	0	0	paper	1112	195	0	stimuli\paper\paper_07s.jpg	6	-1	0	0	paper_07s.jpg	0	0	0	206.919346843846	206.969329740852	0.0499828970059752
152912	50	196	0	0	gong	692	196	0	stimuli\gong\gong_07s.jpg	6	-1	0	0	gong_07s.jpg	0	0	0	207.019347989932	207.069330398925	0.0499824089929461
153012	50	197	0	0	reindeer	1301	197	0	stimuli\reindeer\reindeer_04s.jpg	3	-1	0	0	reindeer_04s.jpg	0	0	0	207.119350111112	207.169335445855	0.0499853347428143
153112	50	198	0	0	baton4	95	198	0	stimuli\baton4\baton4_03s.jpg	2	-1	0	0	baton4_03s.jpg	0	0	0	207.219357108232	207.269337323029	0.0499802147969604
153212	50	199	0	0	radio	1273	199	0	stimuli\radio\radio_03s.jpg	2	-1	0	0	radio_03s.jpg	0	0	0	207.319358741865	207.369339688215	0.0499809463508427
153312	50	200	0	0	desk	480	200	0	stimuli\desk\desk_06s.jpg	5	-1	0	0	desk_06s.jpg	0	0	0	207.419360375497	207.46934278449	0.0499824089929461
153412	50	201	0	0	skull	1458	201	0	stimuli\skull\skull_05s.jpg	4	-1	0	0	skull_05s.jpg	0	0	0	207.519362984225	207.569345393218	0.0499824089929461
153512	50	202	0	0	bin	125	202	0	stimuli\bin\bin_03s.jpg	2	-1	0	0	bin_03s.jpg	0	0	0	207.619365592953	207.669342882	0.0499772890470922
153612	50	203	0	0	helicopter	775	203	0	stimuli\helicopter\helicopter_03s.jpg	2	-1	0	0	helicopter_03s.jpg	0	0	0	207.719369420782	207.769350610673	0.049981189891696
153712	50	204	0	0	candelabra	252	204	0	stimuli\candelabra\candelabra_11s.jpg	10	-1	0	0	candelabra_11s.jpg	0	0	0	207.819370322861	207.869354194961	0.0499838721007109
153812	50	205	0	0	tree_trunk	1709	205	0	stimuli\tree_trunk\tree_trunk_01b.jpg	0	-1	0	0	tree_trunk_01b.jpg	0	0	0	207.919376100879	207.969355828129	0.0499797272495925
153912	50	206	0	0	box	181	206	0	stimuli\box\box_02s.jpg	1	-1	0	0	box_02s.jpg	0	0	0	208.019376027863	208.06935624266	0.0499802147969604
154012	50	207	0	0	flower	619	207	0	stimuli\flower\flower_11s.jpg	10	-1	0	0	flower_11s.jpg	0	0	0	208.11937839305	208.169361777138	0.0499833840876818
154112	50	208	0	0	bedpost	110	208	0	stimuli\bedpost\bedpost_02s.jpg	1	-1	0	0	bedpost_02s.jpg	0	0	0	208.219383439515	208.269367068075	0.0499836285598576
154212	50	209	0	0	parsley	1122	209	0	stimuli\parsley\parsley_07n.jpg	6	-1	0	0	parsley_07n.jpg	0	0	0	208.319382147398	208.369369920343	0.0499877729453146
154312	50	210	0	0	football_helmet	630	210	0	stimuli\football_helmet\football_helmet_07s.jpg	6	-1	0	0	football_helmet_07s.jpg	0	0	0	208.419391583186	208.469369115774	0.0499775325879455
154412	50	211	0	0	waffle_iron	1771	211	0	stimuli\waffle_iron\waffle_iron_11s.jpg	10	-1	0	0	waffle_iron_11s.jpg	0	0	0	208.519389803056	208.569373675156	0.0499838721007109
154512	50	212	0	0	punch1	1254	212	0	stimuli\punch1\punch1_04s.jpg	3	-1	0	0	punch1_04s.jpg	0	0	0	208.619393874891	208.669373602141	0.0499797272495925
154612	50	213	0	0	spaghetti	1503	213	0	stimuli\spaghetti\spaghetti_09s.jpg	8	-1	0	0	spaghetti_09s.jpg	0	0	0	208.719398921821	208.769376210868	0.0499772890470922
154712	50	214	0	0	padlock	1095	214	0	stimuli\padlock\padlock_11s.jpg	10	-1	0	0	padlock_11s.jpg	0	0	0	208.819399579894	208.869399787392	0.0500002074986696
154812	50	215	0	0	chariot	309	215	0	stimuli\chariot\chariot_10s.jpg	9	-1	0	0	chariot_10s.jpg	0	0	0	208.919418036472	208.969393131323	0.0499750948511064
154912	50	216	0	0	patty	1126	216	0	stimuli\patty\patty_01b.jpg	0	-1	0	0	patty_01b.jpg	0	0	0	209.019413087051	209.069399640895	0.0499865538440645
155012	50	217	0	0	pipe2	1187	217	0	stimuli\pipe2\pipe2_06s.jpg	5	-1	0	1	pipe2_06s.jpg	0	0	0	209.119423009921	209.169404443819	0.0499814338982105
155112	50	218	0	0	stool	1561	218	0	stimuli\stool\stool_10s.jpg	9	-1	0	0	stool_10s.jpg	0	0	0	209.219424399547	209.269402420148	0.0499780206009746
155212	50	219	0	0	eraser	559	219	0	stimuli\eraser\eraser_04s.jpg	3	-1	0	0	eraser_04s.jpg	0	0	0	209.319420669228	209.36940381024	0.0499831410124898
155312	50	220	0	0	racehorse	1267	220	0	stimuli\racehorse\racehorse_07s.jpg	6	-1	0	0	racehorse_07s.jpg	0	0	0	209.419424497057	209.469408125617	0.0499836285598576
155412	50	221	0	0	piecrust	1169	221	0	stimuli\piecrust\piecrust_06s.jpg	5	-1	0	0	piecrust_06s.jpg	1	0.441918849013746	1	209.519430275541	209.569408540148	0.0499782646074891
155512	50	222	0	0	book	165	222	0	stimuli\book\book_02s.jpg	1	-1	0	0	book_02s.jpg	0	0	0	209.619428495876	209.669412367512	0.0499838716350496
155612	50	223	0	0	videocassette	1761	223	0	stimuli\videocassette\videocassette_02n.jpg	1	-1	0	0	videocassette_02n.jpg	0	0	0	209.719439637847	209.769428385887	0.0499887480400503
155712	50	224	0	0	missile	1006	224	0	stimuli\missile\missile_01b.jpg	0	-1	0	0	missile_01b.jpg	0	0	0	209.819450292271	209.869431238621	0.0499809463508427
155812	50	225	0	0	granola	701	225	0	stimuli\granola\granola_01b.jpg	0	-1	0	0	granola_01b.jpg	0	0	0	209.919454851653	209.969433847349	0.0499789956957102
155912	50	226	0	0	peg	1139	226	0	stimuli\peg\peg_04s.jpg	3	-1	0	0	peg_04s.jpg	0	0	0	210.019464530982	210.069436943624	0.0499724126420915
156012	50	227	0	0	beard	106	227	0	stimuli\beard\beard_09s.jpg	8	-1	0	0	beard_09s.jpg	0	0	0	210.11946128821	210.169437602162	0.0499763139523566
156112	50	228	0	0	cable	234	228	0	stimuli\cable\cable_10s.jpg	9	-1	0	0	cable_10s.jpg	0	0	0	210.219457801431	210.269442649093	0.0499848476611078
156212	50	229	0	0	jersey	846	229	0	stimuli\jersey\jersey_08s.jpg	7	-1	0	0	jersey_08s.jpg	0	0	0	210.319461385719	210.36944525782	0.0499838721007109
156312	50	230	0	0	juicer1	855	230	0	stimuli\juicer1\juicer1_07s.jpg	6	-1	0	0	juicer1_07s.jpg	0	0	0	210.419462775346	210.469447866548	0.049985091201961
156412	50	231	0	0	gum	724	231	0	stimuli\gum\gum_02s.jpg	1	-1	0	0	gum_02s.jpg	0	0	0	210.519470504019	210.569450962823	0.0499804588034749
156512	50	232	0	0	flute	620	232	0	stimuli\flute\flute_07s.jpg	6	-1	0	0	flute_07s.jpg	0	0	0	210.619474819396	210.669450645801	0.0499758264049888
156612	50	233	0	0	periscope	1155	233	0	stimuli\periscope\periscope_10s.jpg	9	-1	0	0	periscope_10s.jpg	0	0	0	210.719471333083	210.769452522974	0.049981189891696
156712	50	234	0	0	stilt	1555	234	0	stimuli\stilt\stilt_02s.jpg	1	-1	0	0	stilt_02s.jpg	0	0	0	210.819476136006	210.86945659481	0.0499804588034749
156812	50	235	0	0	milk	1001	235	0	stimuli\milk\milk_04s.jpg	3	-1	0	0	milk_04s.jpg	0	0	0	210.919481670484	210.969461397734	0.0499797272495925
156912	50	236	0	0	poppy	1224	236	0	stimuli\poppy\poppy_02s.jpg	1	-1	0	0	poppy_02s.jpg	0	0	0	211.019483791664	211.069472052157	0.0499882604926825
157012	50	237	0	0	caterpillar	286	237	0	stimuli\caterpillar\caterpillar_09s.jpg	8	-1	0	0	caterpillar_09s.jpg	0	0	0	211.119485181291	211.169467590749	0.0499824094586074
157112	50	238	0	0	birdcage	130	238	0	stimuli\birdcage\birdcage_11s.jpg	10	-1	0	0	birdcage_11s.jpg	0	0	0	211.21948705893	211.269467517268	0.0499804583378136
157212	50	239	0	0	mushroom	1040	239	0	stimuli\mushroom\mushroom_12n.jpg	11	-1	0	0	mushroom_12n.jpg	0	0	0	211.319489667658	211.369470857549	0.049981189891696
157312	50	240	0	0	calamari	239	240	0	stimuli\calamari\calamari_12s.jpg	11	-1	0	0	calamari_12s.jpg	0	0	0	211.419494470581	211.469476636034	0.0499821654520929
157412	50	241	0	0	loincloth	944	241	0	stimuli\loincloth\loincloth_05s.jpg	4	-1	0	0	loincloth_05s.jpg	0	0	0	211.519496591762	211.569477781653	0.049981189891696
157512	50	242	0	0	rubber_band	1337	242	0	stimuli\rubber_band\rubber_band_07s.jpg	6	-1	0	0	rubber_band_07s.jpg	0	0	0	211.619505783543	211.669479415286	0.0499736317433417
157612	50	243	0	0	yoke	1849	243	0	stimuli\yoke\yoke_09s.jpg	8	-1	0	0	yoke_09s.jpg	0	0	0	211.71949839592	211.76948421821	0.0499858222901821
157712	50	244	0	0	arm	36	244	0	stimuli\arm\arm_12s.jpg	11	-1	0	0	arm_12s.jpg	0	0	0	211.819506856147	211.869484632742	0.04997777659446
157812	50	245	0	0	lamb_chop	890	245	0	stimuli\lamb_chop\lamb_chop_04s.jpg	3	-1	0	0	lamb_chop_04s.jpg	0	0	0	211.91950556403	211.969485778827	0.0499802147969604
157912	50	246	0	0	toast	1665	246	0	stimuli\toast\toast_12s.jpg	11	-1	0	0	toast_12s.jpg	0	0	0	212.019509147853	212.069494970609	0.0499858227558434
158012	50	247	0	0	oatmeal	1069	247	0	stimuli\oatmeal\oatmeal_12s.jpg	11	-1	0	0	oatmeal_12s.jpg	0	0	0	212.119514926337	212.169496603776	0.0499816774390638
158112	50	248	0	0	stove1	1563	248	0	stimuli\stove1\stove1_08s.jpg	7	-1	0	0	stove1_08s.jpg	0	0	0	212.219518022612	212.269499212503	0.049981189891696
158212	50	249	0	0	blackberry	135	249	0	stimuli\blackberry\blackberry_08s.jpg	7	-1	0	0	blackberry_08s.jpg	0	0	0	212.319515998941	212.369503040332	0.0499870413914323
158312	50	250	0	0	switch	1600	250	0	stimuli\switch\switch_04s.jpg	3	-1	0	0	switch_04s.jpg	0	0	0	212.419517388567	212.469498578925	0.0499811903573573
158412	50	251	0	0	fingerprint	589	251	0	stimuli\fingerprint\fingerprint_07s.jpg	6	-1	0	0	fingerprint_07s.jpg	0	0	0	212.519521703944	212.569502894301	0.0499811903573573
158512	50	252	0	0	sifter	1443	252	0	stimuli\sifter\sifter_02s.jpg	1	-1	0	0	sifter_02s.jpg	0	0	0	212.619527969975	212.669504771475	0.0499768014997244
158612	50	253	0	0	minivan	1003	253	0	stimuli\minivan\minivan_05s.jpg	4	-1	0	0	minivan_05s.jpg	0	0	0	212.719529603608	212.769511281047	0.0499816774390638
158712	50	254	0	0	mousepad	1028	254	0	stimuli\mousepad\mousepad_06s.jpg	5	-1	0	0	mousepad_06s.jpg	0	0	0	212.819529042579	212.869511939585	0.0499828970059752
158812	50	255	0	0	van	1752	255	0	stimuli\van\van_12s.jpg	11	-1	0	0	van_12s.jpg	0	0	0	212.919531407766	212.969511622563	0.0499802147969604
158912	50	256	0	0	steering_wheel	1546	256	0	stimuli\steering_wheel\steering_wheel_02s.jpg	1	-1	0	0	steering_wheel_02s.jpg	0	0	0	213.019535723142	213.069518863689	0.0499831405468285
159012	50	257	0	0	dolphin	502	257	0	stimuli\dolphin\dolphin_07s.jpg	6	-1	0	0	dolphin_07s.jpg	0	0	0	213.119539794978	213.169520740863	0.0499809458851814
159112	50	258	0	0	guillotine	721	258	0	stimuli\guillotine\guillotine_12s.jpg	11	-1	0	0	guillotine_12s.jpg	0	0	0	213.219545329455	213.269500919152	0.0499555896967649
159212	50	259	0	0	glasses	678	259	0	stimuli\glasses\glasses_08s.jpg	7	-1	0	1	glasses_08s.jpg	0	0	0	213.319545743521	213.369525958784	0.0499802152626216
159312	50	260	0	0	christmas_tree	341	260	0	stimuli\christmas_tree\christmas_tree_09s.jpg	8	-1	0	0	christmas_tree_09s.jpg	0	0	0	213.4195466456	213.469528811052	0.0499821654520929
159412	50	261	0	0	loveseat	947	261	0	stimuli\loveseat\loveseat_06s.jpg	5	-1	0	0	loveseat_06s.jpg	0	0	0	213.519517071545	213.569531907327	0.0500148357823491
159512	50	262	0	0	baby	46	262	0	stimuli\baby\baby_08s.jpg	7	-1	0	0	baby_08s.jpg	0	0	0	213.619556251913	213.66953646671	0.0499802147969604
159612	50	263	0	0	plum	1203	263	0	stimuli\plum\plum_09s.jpg	8	-1	0	0	plum_09s.jpg	1	0.441914704628289	1	213.719555447344	213.769535906147	0.0499804588034749
159712	50	264	0	0	trailer	1697	264	0	stimuli\trailer\trailer_05s.jpg	4	-1	0	0	trailer_05s.jpg	0	0	0	213.819568295963	213.869539002422	0.0499707064591348
159812	50	265	0	0	scalpel	1374	265	0	stimuli\scalpel\scalpel_10s.jpg	9	-1	0	0	scalpel_10s.jpg	0	0	0	213.919562615454	213.969546487555	0.0499838721007109
159912	50	266	0	0	lock	940	266	0	stimuli\lock\lock_02s.jpg	1	-1	0	0	lock_02s.jpg	0	0	0	214.019565224182	214.069547145627	0.0499819214455783
160012	50	267	0	0	log	943	267	0	stimuli\log\log_08s.jpg	7	-1	0	0	log_08s.jpg	0	0	0	214.119565638714	214.169549754355	0.0499841156415641
160112	50	268	0	0	eyedropper	566	268	0	stimuli\eyedropper\eyedropper_06s.jpg	5	-1	0	0	eyedropper_06s.jpg	0	0	0	214.219568734989	214.269547974691	0.0499792397022247
160212	50	269	0	0	rhinoceros	1306	269	0	stimuli\rhinoceros\rhinoceros_02s.jpg	1	-1	0	0	rhinoceros_02s.jpg	0	0	0	214.31957402546	214.369556190912	0.0499821654520929
160312	50	270	0	0	paper_towel	1115	270	0	stimuli\paper_towel\paper_towel_05s.jpg	4	-1	0	0	paper_towel_05s.jpg	0	0	0	214.419572733343	214.469554411247	0.0499816779047251
160412	50	271	0	0	sequin	1404	271	0	stimuli\sequin\sequin_05s.jpg	4	-1	0	0	sequin_05s.jpg	0	0	0	214.519577292725	214.56955799507	0.0499807023443282
160512	50	272	0	0	toga	1669	272	0	stimuli\toga\toga_04s.jpg	3	-1	0	0	toga_04s.jpg	0	0	0	214.619576000609	214.669558165595	0.0499821649864316
160612	50	273	0	0	shawl	1411	273	0	stimuli\shawl\shawl_04s.jpg	3	-1	0	0	shawl_04s.jpg	0	0	0	214.719583729282	214.769562724978	0.0499789956957102
160712	50	274	0	0	wrap	1837	274	0	stimuli\wrap\wrap_10s.jpg	9	-1	0	0	wrap_10s.jpg	0	0	0	214.819583168253	214.869567284361	0.0499841161072254
160812	50	275	0	0	penlight	1147	275	0	stimuli\penlight\penlight_01b.jpg	0	-1	0	0	penlight_01b.jpg	0	0	0	214.919593823142	214.969567942433	0.0499741192907095
160912	50	276	0	0	collar	387	276	0	stimuli\collar\collar_06s.jpg	5	-1	0	0	collar_06s.jpg	0	0	0	215.019589117263	215.069570063613	0.0499809463508427
161012	50	277	0	0	screwdriver	1391	277	0	stimuli\screwdriver\screwdriver_06s.jpg	5	-1	0	0	screwdriver_06s.jpg	0	0	0	215.119590994902	215.169575842097	0.0499848471954465
161112	50	278	0	0	filter	587	278	0	stimuli\filter\filter_03s.jpg	2	-1	0	0	filter_03s.jpg	0	0	0	215.21959969867	215.269577963278	0.0499782646074891
161212	50	279	0	0	wrench	1841	279	0	stimuli\wrench\wrench_01b.jpg	0	-1	0	0	wrench_01b.jpg	0	0	0	215.319604258053	215.369578133803	0.0499738757498562
161312	50	280	0	0	earplug	539	280	0	stimuli\earplug\earplug_02s.jpg	1	-1	0	0	earplug_02s.jpg	0	0	0	215.419598821085	215.469578548335	0.0499797272495925
161412	50	281	0	0	pantyhose	1110	281	0	stimuli\pantyhose\pantyhose_08s.jpg	7	-1	0	0	pantyhose_08s.jpg	0	0	0	215.519603136461	215.569582863711	0.0499797272495925
161512	50	282	0	0	meat_grinder	988	282	0	stimuli\meat_grinder\meat_grinder_10s.jpg	9	-1	0	0	meat_grinder_10s.jpg	0	0	0	215.619603794534	215.66958669154	0.0499828970059752
161612	50	283	0	0	wax	1795	283	0	stimuli\wax\wax_07s.jpg	6	-1	0	0	wax_07s.jpg	0	0	0	215.719608841464	215.769591494463	0.0499826529994607
161712	50	284	0	0	blind	140	284	0	stimuli\blind\blind_04s.jpg	3	-1	0	0	blind_04s.jpg	0	0	0	215.819612913299	215.869595078751	0.0499821654520929
161812	50	285	0	0	snow	1479	285	0	stimuli\snow\snow_09s.jpg	8	-1	0	0	snow_09s.jpg	0	0	0	215.919611621182	215.969593542628	0.0499819214455783
161912	50	286	0	0	buoy	223	286	0	stimuli\buoy\buoy_10s.jpg	9	-1	0	0	buoy_10s.jpg	0	0	0	216.019615205005	216.069595907349	0.0499807023443282
162012	50	287	0	0	nut	1066	287	0	stimuli\nut\nut_08s.jpg	7	-1	0	0	nut_08s.jpg	0	0	0	216.119617813732	216.169597784989	0.0499799712561071
162112	50	288	0	0	ski	1452	288	0	stimuli\ski\ski_12s.jpg	11	-1	0	0	ski_12s.jpg	0	0	0	216.219620666467	216.269606001209	0.0499853347428143
162212	50	289	0	0	pogo_stick	1208	289	0	stimuli\pogo_stick\pogo_stick_10s.jpg	9	-1	0	0	pogo_stick_10s.jpg	0	0	0	216.319623031188	216.369607878383	0.0499848471954465
162312	50	290	0	0	porcupine	1226	290	0	stimuli\porcupine\porcupine_07s.jpg	6	-1	0	0	porcupine_07s.jpg	0	0	0	216.419633685611	216.46961024357	0.0499765579588711
162412	50	291	0	0	marshmallow	977	291	0	stimuli\marshmallow\marshmallow_07s.jpg	6	-1	0	0	marshmallow_07s.jpg	0	0	0	216.519632149953	216.569610901643	0.0499787516891956
162512	50	292	0	0	palette	1100	292	0	stimuli\palette\palette_07s.jpg	6	-1	0	0	palette_07s.jpg	0	0	0	216.619635489769	216.669611072633	0.0499755828641355
162612	50	293	0	0	warthog	1781	293	0	stimuli\warthog\warthog_07s.jpg	6	-1	0	0	warthog_07s.jpg	0	0	0	216.71962078847	216.769590275362	0.0499694868922234
162712	50	294	0	0	hammer	741	294	0	stimuli\hammer\hammer_11n.jpg	10	-1	0	0	hammer_11n.jpg	0	0	0	216.819625591394	216.869607756846	0.0499821654520929
162812	50	295	0	0	wax_paper	1796	295	0	stimuli\wax_paper\wax_paper_11s.jpg	10	-1	0	0	wax_paper_11s.jpg	0	0	0	216.919623323716	216.969606952276	0.0499836285598576
162912	50	296	0	0	fox	638	296	0	stimuli\fox\fox_04s.jpg	3	-1	0	0	fox_04s.jpg	0	0	0	217.019627639558	217.069613705389	0.0499860658310354
163012	50	297	0	0	jeep	843	297	0	stimuli\jeep\jeep_02s.jpg	1	-1	0	0	jeep_02s.jpg	0	0	0	217.119630491827	217.169612169731	0.0499816779047251
163112	50	298	0	0	seaplane	1398	298	0	stimuli\seaplane\seaplane_02s.jpg	1	-1	0	0	seaplane_02s.jpg	0	0	0	217.219637489412	217.269616728649	0.0499792392365634
163212	50	299	0	0	costume	419	299	0	stimuli\costume\costume_08s.jpg	7	-1	0	0	costume_08s.jpg	0	0	0	217.319639122579	217.369618118741	0.0499789961613715
163312	50	300	0	0	soup	1499	300	0	stimuli\soup\soup_03s.jpg	2	-1	0	0	soup_03s.jpg	0	0	0	217.419636855368	217.469621702563	0.0499848471954465
163412	50	301	0	0	record	1295	301	0	stimuli\record\record_02s.jpg	1	-1	0	0	record_02s.jpg	0	0	0	217.519639464095	217.569622360636	0.049982896540314
163512	50	302	0	0	bracelet1	187	302	0	stimuli\bracelet1\bracelet1_09s.jpg	8	-1	0	0	bracelet1_09s.jpg	0	0	0	217.619646217674	217.669628870673	0.0499826529994607
163612	50	303	0	0	buckle	210	303	0	stimuli\buckle\buckle_12s.jpg	11	-1	0	0	buckle_12s.jpg	0	0	0	217.719651508145	217.76962733455	0.0499758264049888
163712	50	304	0	0	yak	1845	304	0	stimuli\yak\yak_04s.jpg	3	-1	0	0	yak_04s.jpg	0	0	0	217.81963973213	217.869617265183	0.0499775330536067
163812	50	305	0	0	foam	624	305	0	stimuli\foam\foam_05s.jpg	4	-1	0	0	foam_05s.jpg	0	0	0	217.919654531404	217.969620849006	0.0499663176015019
163912	50	306	0	0	ink	829	306	0	stimuli\ink\ink_04s.jpg	3	-1	0	0	ink_04s.jpg	0	0	0	218.019657140132	218.069625408389	0.0499682682566345
164012	50	307	0	0	glue	681	307	0	stimuli\glue\glue_02s.jpg	1	-1	0	0	glue_02s.jpg	0	0	0	218.119648533873	218.169627286028	0.0499787521548569
164112	50	308	0	0	pan	1103	308	0	stimuli\pan\pan_01b.jpg	0	-1	0	0	pan_01b.jpg	0	0	0	218.219650655054	218.269631601404	0.0499809463508427
183096	50	309	0	0	hairpin	737	0	1	stimuli\hairpin\hairpin_10s.jpg	9	-1	1	0	hairpin_10s.jpg	0	0	0	237.203496813308	237.253473614808	0.0499768014997244
183196	50	310	0	0	bunkbed	222	1	1	stimuli\bunkbed\bunkbed_10s.jpg	9	-1	1	0	bunkbed_10s.jpg	0	0	0	237.303495764732	237.353476223536	0.0499804588034749
183296	50	311	0	0	braid	190	2	1	stimuli\braid\braid_02s.jpg	1	-1	1	0	braid_02s.jpg	0	0	0	237.403497398365	237.453478832263	0.0499814338982105
183396	50	312	0	0	turban	1730	3	1	stimuli\turban\turban_10s.jpg	9	-1	1	0	turban_10s.jpg	0	0	0	237.503500738647	237.553481440991	0.0499807023443282
183496	50	313	0	0	sprinkler	1523	4	1	stimuli\sprinkler\sprinkler_09s.jpg	8	-1	1	0	sprinkler_09s.jpg	0	0	0	237.603503103368	237.653482099064	0.0499789956957102
183596	50	314	0	0	kilt	872	5	1	stimuli\kilt\kilt_12s.jpg	11	-1	1	0	kilt_12s.jpg	0	0	0	237.703507418744	237.753490559291	0.0499831405468285
183696	50	315	0	0	hairspray	738	6	1	stimuli\hairspray\hairspray_09s.jpg	8	-1	1	0	hairspray_09s.jpg	0	0	0	237.803507345729	237.853489267174	0.0499819214455783
183796	50	316	0	0	bean	102	7	1	stimuli\bean\bean_10s.jpg	9	-1	1	0	bean_10s.jpg	0	0	0	237.903509954456	237.953494801652	0.0499848471954465
183896	50	317	0	0	grinder	716	8	1	stimuli\grinder\grinder_12s.jpg	11	-1	1	0	grinder_12s.jpg	0	0	0	238.003518902231	238.053495703731	0.0499768014997244
183996	50	318	0	0	place_mat	1193	9	1	stimuli\place_mat\place_mat_06s.jpg	5	-1	1	0	place_mat_06s.jpg	0	0	0	238.103520048317	238.153529032599	0.0500089842826128
184096	50	319	0	0	beetle	115	10	1	stimuli\beetle\beetle_01b.jpg	0	-1	1	0	beetle_01b.jpg	0	0	0	238.203545087483	238.253531885333	0.049986797850579
184196	50	320	0	0	hot-water_bottle	802	11	1	stimuli\hot-water_bottle\hot-water_bottle_02s.jpg	1	-1	1	0	hot-water_bottle_02s.jpg	0	0	0	238.303546477109	238.353511575609	0.0499650985002518
184296	50	321	0	0	red_carpet	1298	12	1	stimuli\red_carpet\red_carpet_03s.jpg	2	-1	1	0	red_carpet_03s.jpg	0	0	0	238.403552499134	238.453534664586	0.0499821654520929
184396	50	322	0	0	eggbeater	548	13	1	stimuli\eggbeater\eggbeater_06s.jpg	5	-1	1	0	eggbeater_06s.jpg	0	0	0	238.503551694565	238.553518012166	0.0499663176015019
184496	50	323	0	0	drill	520	14	1	stimuli\drill\drill_10s.jpg	9	-1	1	0	drill_10s.jpg	0	0	0	238.603556253947	238.653521839995	0.0499655860476196
184596	50	324	0	0	crane	431	15	1	stimuli\crane\crane_05s.jpg	4	-1	1	0	crane_05s.jpg	0	0	0	238.703561788425	238.753523230087	0.0499614416621625
184696	50	325	0	0	fire_pit	593	16	1	stimuli\fire_pit\fire_pit_04s.jpg	3	-1	1	0	fire_pit_04s.jpg	0	0	0	238.803561715409	238.853542417753	0.0499807023443282
184796	50	326	0	0	crab	428	17	1	stimuli\crab\crab_08s.jpg	7	-1	1	0	crab_08s.jpg	0	0	0	238.903563105036	238.953530154191	0.0499670491553843
184896	50	327	0	0	macaroni	952	18	1	stimuli\macaroni\macaroni_11s.jpg	10	-1	1	0	macaroni_11s.jpg	0	0	0	239.003564738203	239.053543490358	0.0499787521548569
184996	50	328	0	0	sandbox	1354	19	1	stimuli\sandbox\sandbox_07s.jpg	6	-1	1	0	sandbox_07s.jpg	0	0	0	239.103566859383	239.153545123991	0.0499782646074891
185096	50	329	0	0	flatiron	613	20	1	stimuli\flatiron\flatiron_12s.jpg	11	-1	1	0	flatiron_12s.jpg	0	0	0	239.203565323725	239.25355212111	0.0499867973849177
185196	50	330	0	0	leg	911	21	1	stimuli\leg\leg_05s.jpg	4	-1	1	0	leg_05s.jpg	0	0	0	239.303570858203	239.353551560547	0.0499807023443282
185296	50	331	0	0	laundry_basket	902	22	1	stimuli\laundry_basket\laundry_basket_05s.jpg	4	-1	1	0	laundry_basket_05s.jpg	0	0	0	239.403574198019	239.453554656822	0.0499804588034749
185396	50	332	0	0	fur_coat	650	23	1	stimuli\fur_coat\fur_coat_01b.jpg	0	-1	1	0	fur_coat_01b.jpg	0	0	0	239.503577294759	239.553559459746	0.0499821649864316
185496	50	333	0	0	scoop	1381	24	1	stimuli\scoop\scoop_11s.jpg	10	-1	1	0	scoop_11s.jpg	0	0	0	239.603577465285	239.653559630737	0.0499821654520929
185596	50	334	0	0	beehive	112	25	1	stimuli\beehive\beehive_01b.jpg	0	-1	1	0	beehive_01b.jpg	0	0	0	239.703581049107	239.753560776357	0.0499797272495925
185696	50	335	0	0	chessboard	318	26	1	stimuli\chessboard\chessboard_09s.jpg	8	-1	1	0	chessboard_09s.jpg	0	0	0	239.803584876936	239.853563629091	0.0499787521548569
185796	50	336	0	0	pistachio	1188	27	1	stimuli\pistachio\pistachio_03s.jpg	2	-1	1	0	pistachio_03s.jpg	0	0	0	239.903587242123	239.953570138663	0.049982896540314
185896	50	337	0	0	mat	982	28	1	stimuli\mat\mat_05s.jpg	4	-1	1	0	mat_05s.jpg	0	0	0	240.003596921451	240.053570553195	0.0499736317433417
185996	50	338	0	0	workbench	1835	29	1	stimuli\workbench\workbench_11s.jpg	10	-1	1	0	workbench_11s.jpg	0	0	0	240.103594653774	240.153579988517	0.0499853347428143
186096	50	339	0	0	bagpipe	56	30	1	stimuli\bagpipe\bagpipe_09s.jpg	8	-1	1	0	bagpipe_09s.jpg	0	0	0	240.2035960434	240.253576014657	0.0499799712561071
186196	50	340	0	0	kebab	865	31	1	stimuli\kebab\kebab_10n.jpg	9	-1	1	0	kebab_10n.jpg	0	0	0	240.303599627689	240.35357764829	0.0499780206009746
186296	50	341	0	0	lipstick	936	32	1	stimuli\lipstick\lipstick_03s.jpg	2	-1	1	0	lipstick_03s.jpg	0	0	0	240.40359906666	240.453581963666	0.0499828970059752
186396	50	342	0	0	notepad	1065	33	1	stimuli\notepad\notepad_09s.jpg	8	-1	1	0	notepad_09s.jpg	0	0	0	240.503603870049	240.553584572393	0.0499807023443282
186496	50	343	0	0	lanyard	896	34	1	stimuli\lanyard\lanyard_08s.jpg	7	-1	1	0	lanyard_08s.jpg	0	0	0	240.603612817824	240.65358596202	0.0499731441959739
186596	50	344	0	0	puppet	1257	35	1	stimuli\puppet\puppet_10s.jpg	9	-1	1	0	puppet_10s.jpg	0	0	0	240.703610306606	240.75359100895	0.0499807023443282
186696	50	345	0	0	yarn	1846	36	1	stimuli\yarn\yarn_11s.jpg	10	-1	1	0	yarn_11s.jpg	0	0	0	240.803612671327	240.853590691928	0.0499780206009746
186796	50	346	0	0	fishhook	602	37	1	stimuli\fishhook\fishhook_05s.jpg	4	-1	1	0	fishhook_05s.jpg	0	0	0	240.90361430496	240.95359427575	0.0499799707904458
186896	50	347	0	0	worm	1836	38	1	stimuli\worm\worm_12s.jpg	11	-1	1	0	worm_12s.jpg	0	0	0	241.003616182134	241.053595665842	0.0499794837087393
186996	50	348	0	0	tank2	1621	39	1	stimuli\tank2\tank2_06s.jpg	5	-1	1	0	tank2_06s.jpg	0	0	0	241.103620009962	241.153579744976	0.0499597350135446
187096	50	349	0	0	candle	253	40	1	stimuli\candle\candle_04n.jpg	3	-1	1	0	candle_04n.jpg	0	0	0	241.203629933298	241.253604052588	0.0499741192907095
187196	50	350	0	0	cilantro	347	41	1	stimuli\cilantro\cilantro_07s.jpg	6	-1	1	0	cilantro_07s.jpg	0	0	0	241.303623764776	241.353603735566	0.0499799707904458
187296	50	351	0	0	keg	866	42	1	stimuli\keg\keg_12s.jpg	11	-1	1	0	keg_12s.jpg	0	0	0	241.403595165815	241.453606832307	0.0500116664916277
187396	50	352	0	0	golf_cart	689	43	1	stimuli\golf_cart\golf_cart_05s.jpg	4	-1	1	0	golf_cart_05s.jpg	0	0	0	241.503628250677	241.553609441034	0.0499811903573573
187496	50	353	0	0	moose	1018	44	1	stimuli\moose\moose_12s.jpg	11	-1	1	0	moose_12s.jpg	0	0	0	241.603631834965	241.653623021208	0.0499911862425506
187596	50	354	0	0	stapler	1539	45	1	stimuli\stapler\stapler_06s.jpg	5	-1	1	0	stapler_06s.jpg	0	0	0	241.703639319632	241.753615633585	0.0499763139523566
187696	50	355	0	0	thumb	1653	46	1	stimuli\thumb\thumb_01b.jpg	0	-1	1	0	thumb_01b.jpg	0	0	0	241.803636564873	241.85361872986	0.0499821649864316
187796	50	356	0	0	mousse	1030	47	1	stimuli\mousse\mousse_11s.jpg	10	-1	1	0	mousse_11s.jpg	0	0	0	241.903638929594	241.953622070141	0.0499831405468285
187896	50	357	0	0	pickle	1167	48	1	stimuli\pickle\pickle_11s.jpg	10	-1	1	0	pickle_11s.jpg	0	0	0	242.00364617072	242.053621265572	0.0499750948511064
187996	50	358	0	0	napkin_ring	1051	49	1	stimuli\napkin_ring\napkin_ring_05s.jpg	4	-1	1	0	napkin_ring_05s.jpg	0	0	0	242.103647804353	242.153627775609	0.0499799712561071
188096	50	359	0	0	ear	538	50	1	stimuli\ear\ear_03s.jpg	2	-1	1	0	ear_03s.jpg	0	0	0	242.203650900628	242.253630871885	0.0499799712561071
188196	50	360	0	0	french_fries	641	51	1	stimuli\french_fries\french_fries_03s.jpg	2	-1	1	1	french_fries_03s.jpg	0	0	0	242.303651802707	242.353628604207	0.0499768014997244
188296	50	361	0	0	pedal	1136	52	1	stimuli\pedal\pedal_10s.jpg	9	-1	1	0	pedal_10s.jpg	0	0	0	242.403657093644	242.453632676043	0.0499755823984742
188396	50	362	0	0	backdrop	47	53	1	stimuli\backdrop\backdrop_10s.jpg	9	-1	1	0	backdrop_10s.jpg	0	0	0	242.503655069973	242.553636747412	0.0499816774390638
188496	50	363	0	0	puddle	1247	54	1	stimuli\puddle\puddle_11s.jpg	10	-1	1	0	puddle_11s.jpg	0	0	0	242.603657434694	242.653641794343	0.0499843596480787
188596	50	364	0	0	school_bus	1378	55	1	stimuli\school_bus\school_bus_09s.jpg	8	-1	1	0	school_bus_09s.jpg	1	0.406814426649362	1	242.703658824321	242.753644647077	0.0499858227558434
188696	50	365	0	0	helmet	776	56	1	stimuli\helmet\helmet_02s.jpg	1	-1	1	0	helmet_02s.jpg	0	0	0	242.803669722751	242.85364920646	0.0499794837087393
188796	50	366	0	0	polygraph	1217	57	1	stimuli\polygraph\polygraph_03s.jpg	2	-1	1	0	polygraph_03s.jpg	0	0	0	242.903670137282	242.953649132978	0.0499789956957102
188896	50	367	0	0	pocket_watch	1206	58	1	stimuli\pocket_watch\pocket_watch_03s.jpg	2	-1	1	0	pocket_watch_03s.jpg	0	0	0	243.003668601159	243.05364954751	0.0499809463508427
188996	50	368	0	0	shopping_basket	1427	59	1	stimuli\shopping_basket\shopping_basket_07s.jpg	6	-1	1	0	shopping_basket_07s.jpg	0	0	0	243.103672672994	243.153650693595	0.0499780206009746
189096	50	369	0	0	pom-pom	1218	60	1	stimuli\pom-pom\pom-pom_08s.jpg	7	-1	1	0	pom-pom_08s.jpg	0	0	0	243.203673087526	243.25365671562	0.0499836280941963
189196	50	370	0	0	shears	1412	61	1	stimuli\shears\shears_02s.jpg	1	-1	1	0	shears_02s.jpg	0	0	0	243.303676671349	243.353675171733	0.0499985003843904
189296	50	371	0	0	railing	1277	62	1	stimuli\railing\railing_11s.jpg	10	-1	1	0	railing_11s.jpg	0	0	0	243.403680986725	243.453661689069	0.0499807023443282
189396	50	372	0	0	lollipop	945	63	1	stimuli\lollipop\lollipop_06n.jpg	5	-1	1	0	lollipop_06n.jpg	0	0	0	243.50368505856	243.553660396952	0.0499753383919597
189496	50	373	0	0	quill	1263	64	1	stimuli\quill\quill_01b.jpg	0	-1	1	0	quill_01b.jpg	0	0	0	243.603684741538	243.65366398124	0.0499792397022247
189596	50	374	0	0	pencil_sharpener	1143	65	1	stimuli\pencil_sharpener\pencil_sharpener_09n.jpg	8	-1	1	0	pencil_sharpener_09n.jpg	0	0	0	243.703690276016	243.753671953455	0.0499816774390638
189696	50	375	0	0	coal	367	66	1	stimuli\coal\coal_04s.jpg	3	-1	1	0	coal_04s.jpg	0	0	0	243.803692397196	243.853669442236	0.0499770450405777
189796	50	376	0	0	seal	1397	67	1	stimuli\seal\seal_12s.jpg	11	-1	1	0	seal_12s.jpg	0	0	0	243.903693299275	243.953672782518	0.049979483243078
189896	50	377	0	0	shredder	1437	68	1	stimuli\shredder\shredder_05s.jpg	4	-1	1	0	shredder_05s.jpg	0	0	0	244.003695663996	244.053677829448	0.0499821654520929
189996	50	378	0	0	heater	772	69	1	stimuli\heater\heater_03s.jpg	2	-1	1	0	heater_03s.jpg	0	0	0	244.103699248284	244.153682632372	0.0499833840876818
190096	50	379	0	0	bat1	87	70	1	stimuli\bat1\bat1_08s.jpg	7	-1	1	0	bat1_08s.jpg	0	0	0	244.203703076113	244.253672807012	0.0499697308987379
190196	50	380	0	0	tool	1676	71	1	stimuli\tool\tool_05s.jpg	4	-1	1	0	tool_05s.jpg	0	0	0	244.30369081255	244.353689556476	0.0499987439252436
190296	50	381	0	0	punch2	1255	72	1	stimuli\punch2\punch2_12s.jpg	11	-1	1	0	punch2_12s.jpg	0	0	0	244.403710731771	244.45368948346	0.0499787516891956
190396	50	382	0	0	smoke_alarm	1473	73	1	stimuli\smoke_alarm\smoke_alarm_04s.jpg	3	-1	1	0	smoke_alarm_04s.jpg	0	0	0	244.50371163385	244.553698431235	0.0499867973849177
190496	50	383	0	0	wolf	1831	74	1	stimuli\wolf\wolf_02s.jpg	1	-1	1	0	wolf_02s.jpg	0	0	0	244.603715461679	244.653697626665	0.0499821649864316
190596	50	384	0	0	bolt	159	75	1	stimuli\bolt\bolt_01b.jpg	0	-1	1	0	bolt_01b.jpg	0	0	0	244.703718070406	244.753686094657	0.0499680242501199
190696	50	385	0	0	megaphone	993	76	1	stimuli\megaphone\megaphone_12s.jpg	11	-1	1	0	megaphone_12s.jpg	0	0	0	244.803720679134	244.85368772829	0.0499670491553843
190796	50	386	0	0	javelin	841	77	1	stimuli\javelin\javelin_08s.jpg	7	-1	1	0	javelin_08s.jpg	0	0	0	244.903723531403	244.953705696855	0.0499821654520929
190896	50	387	0	0	bike	123	78	1	stimuli\bike\bike_04s.jpg	3	-1	1	0	bike_04s.jpg	0	0	0	245.003709805198	245.053725616075	0.0500158108770847
190996	50	388	0	0	cummerbund	459	79	1	stimuli\cummerbund\cummerbund_06s.jpg	5	-1	1	0	cummerbund_06s.jpg	0	0	0	245.103727042209	245.153707013465	0.0499799712561071
191096	50	389	0	0	snowboard	1481	80	1	stimuli\snowboard\snowboard_12s.jpg	11	-1	1	0	snowboard_12s.jpg	0	0	0	245.20373013895	245.253709378187	0.0499792392365634
191196	50	390	0	0	closet	360	81	1	stimuli\closet\closet_07s.jpg	6	-1	1	0	closet_07s.jpg	0	0	0	245.303731772117	245.353712718468	0.0499809463508427
191296	50	391	0	0	taillight	1617	82	1	stimuli\taillight\taillight_05s.jpg	4	-1	1	0	taillight_05s.jpg	0	0	0	245.4037363315	245.453719716053	0.0499833845533431
191396	50	392	0	0	hydrant	814	83	1	stimuli\hydrant\hydrant_11s.jpg	10	-1	1	0	hydrant_11s.jpg	0	0	0	245.503736746032	245.553718911484	0.0499821654520929
191496	50	393	0	0	aircraft_carrier	9	84	1	stimuli\aircraft_carrier\aircraft_carrier_04s.jpg	3	-1	1	0	aircraft_carrier_04s.jpg	0	0	0	245.603739598766	245.653720057104	0.0499804583378136
191596	50	394	0	0	rain_gauge	1278	85	1	stimuli\rain_gauge\rain_gauge_03s.jpg	2	-1	1	0	rain_gauge_03s.jpg	0	0	0	245.703744889237	245.753720471635	0.0499755823984742
191696	50	395	0	0	cat	284	86	1	stimuli\cat\cat_12s.jpg	11	-1	1	0	cat_12s.jpg	0	0	0	245.803748473059	245.853725518566	0.0499770455062389
191796	50	396	0	0	blueberry	149	87	1	stimuli\blueberry\blueberry_05s.jpg	4	-1	1	0	blueberry_05s.jpg	0	0	0	245.903749863151	245.953730077948	0.0499802147969604
191896	50	397	0	0	subway	1578	88	1	stimuli\subway\subway_02s.jpg	1	-1	1	0	subway_02s.jpg	0	0	0	246.00374978967	246.053730736021	0.0499809463508427
191996	50	398	0	0	hopscotch	796	89	1	stimuli\hopscotch\hopscotch_02s.jpg	1	-1	1	0	hopscotch_02s.jpg	0	0	0	246.103751423303	246.153734807856	0.0499833845533431
192096	50	399	0	0	spinach	1515	90	1	stimuli\spinach\spinach_05s.jpg	4	-1	1	0	spinach_05s.jpg	0	0	0	246.203757201787	246.253732784186	0.0499755823984742
192196	50	400	0	0	home_plate	787	91	1	stimuli\home_plate\home_plate_08s.jpg	7	-1	1	0	home_plate_08s.jpg	0	0	0	246.303761760704	246.353741487954	0.0499797272495925
192296	50	401	0	0	moss	1022	92	1	stimuli\moss\moss_12s.jpg	11	-1	1	0	moss_12s.jpg	0	0	0	246.403789969627	246.453742146492	0.0499521768651903
192396	50	402	0	0	lingerie	932	93	1	stimuli\lingerie\lingerie_05s.jpg	4	-1	1	0	lingerie_05s.jpg	0	0	0	246.503763808869	246.553743780125	0.0499799712561071
192496	50	403	0	0	ravioli	1289	94	1	stimuli\ravioli\ravioli_11s.jpg	10	-1	1	0	ravioli_11s.jpg	0	0	0	246.603764466941	246.653746632393	0.0499821654520929
192596	50	404	0	0	headlamp	764	95	1	stimuli\headlamp\headlamp_03s.jpg	2	-1	1	0	headlamp_03s.jpg	0	0	0	246.703768051229	246.753747534472	0.049979483243078
192696	50	405	0	0	torpedo	1684	96	1	stimuli\torpedo\torpedo_09s.jpg	8	-1	1	0	torpedo_09s.jpg	0	0	0	246.803771391511	246.853751849849	0.0499804583378136
192796	50	406	0	0	tongs	1674	97	1	stimuli\tongs\tongs_02s.jpg	1	-1	1	0	tongs_02s.jpg	0	0	0	246.903773268685	246.953753971029	0.0499807023443282
192896	50	407	0	0	ice_pack	820	98	1	stimuli\ice_pack\ice_pack_08s.jpg	7	-1	1	0	ice_pack_08s.jpg	0	0	0	247.003779778257	247.053757555317	0.0499777770601213
192996	50	408	0	0	spark_plug	1506	99	1	stimuli\spark_plug\spark_plug_07s.jpg	6	-1	1	0	spark_plug_07s.jpg	0	0	0	247.103782143444	247.153760651592	0.0499785081483424
193096	50	409	0	0	bow3	176	100	1	stimuli\bow3\bow3_08s.jpg	7	-1	1	0	bow3_08s.jpg	0	0	0	247.203782070428	247.253761797678	0.0499797272495925
193196	50	410	0	0	kale	860	101	1	stimuli\kale\kale_06s.jpg	5	-1	1	0	kale_06s.jpg	0	0	0	247.303785410244	247.353764649946	0.0499792397022247
193296	50	411	0	0	stingray	1556	102	1	stimuli\stingray\stingray_07s.jpg	6	-1	1	0	stingray_07s.jpg	0	0	0	247.40378972562	247.453767990228	0.0499782646074891
193396	50	412	0	0	payphone	1127	103	1	stimuli\payphone\payphone_05s.jpg	4	-1	1	0	payphone_05s.jpg	0	0	0	247.503787458409	247.553771330509	0.0499838721007109
193496	50	413	0	0	buggy	213	104	1	stimuli\buggy\buggy_12s.jpg	11	-1	1	0	buggy_12s.jpg	0	0	0	247.603798600379	247.653774182778	0.0499755823984742
193596	50	414	0	0	quilt	1264	105	1	stimuli\quilt\quilt_05s.jpg	4	-1	1	0	quilt_05s.jpg	0	0	0	247.703802915756	247.753776060417	0.0499731446616352
193696	50	415	0	0	tile	1660	106	1	stimuli\tile\tile_12s.jpg	11	-1	1	0	tile_12s.jpg	0	0	0	247.80379699124	247.853778425138	0.0499814338982105
193796	50	416	0	0	sauce	1362	107	1	stimuli\sauce\sauce_03s.jpg	2	-1	1	0	sauce_03s.jpg	0	0	0	247.903800087515	247.953784935176	0.0499848476611078
193896	50	417	0	0	mosquito_net	1021	108	1	stimuli\mosquito_net\mosquito_net_08s.jpg	7	-1	1	0	mosquito_net_08s.jpg	0	0	0	248.003802452702	248.053786568344	0.0499841156415641
193996	50	418	0	0	marijuana	974	109	1	stimuli\marijuana\marijuana_12s.jpg	11	-1	1	0	marijuana_12s.jpg	0	0	0	248.103806036524	248.153786007781	0.0499799712561071
194096	50	419	0	0	laser_pointer	899	110	1	stimuli\laser_pointer\laser_pointer_06s.jpg	5	-1	1	0	laser_pointer_06s.jpg	0	0	0	248.203808645252	248.253787153866	0.0499785086140037
194196	50	420	0	0	poodle	1221	111	1	stimuli\poodle\poodle_05s.jpg	4	-1	1	0	poodle_05s.jpg	0	0	0	248.303810766432	248.353791469242	0.0499807028099895
194296	50	421	0	0	brake	191	112	1	stimuli\brake\brake_10s.jpg	9	-1	1	0	brake_10s.jpg	0	0	0	248.403811912518	248.45379407797	0.0499821654520929
194396	50	422	0	0	vest	1759	113	1	stimuli\vest\vest_01b.jpg	0	-1	1	0	vest_01b.jpg	0	0	0	248.503815740347	248.553799612448	0.0499838721007109
194496	50	423	0	0	okra	1074	114	1	stimuli\okra\okra_12s.jpg	11	-1	1	0	okra_12s.jpg	0	0	0	248.603821518365	248.653801245615	0.0499797272495925
194596	50	424	0	0	muffin	1035	115	1	stimuli\muffin\muffin_10n.jpg	9	-1	1	0	muffin_10n.jpg	0	0	0	248.703827784397	248.753801416606	0.049973632209003
194696	50	425	0	0	gem	670	116	1	stimuli\gem\gem_04s.jpg	3	-1	1	0	gem_04s.jpg	0	0	0	248.803824298084	248.853804756887	0.0499804588034749
194796	50	426	0	0	lab_coat	885	117	1	stimuli\lab_coat\lab_coat_07s.jpg	6	-1	1	0	lab_coat_07s.jpg	0	0	0	248.903826175258	248.953812241554	0.0499860662966967
194896	50	427	0	0	cookie_sheet	402	118	1	stimuli\cookie_sheet\cookie_sheet_10s.jpg	9	-1	1	0	cookie_sheet_10s.jpg	0	0	0	249.003828296438	249.05381046189	0.0499821654520929
194996	50	428	0	0	fudge	647	119	1	stimuli\fudge\fudge_06s.jpg	5	-1	1	0	fudge_06s.jpg	0	0	0	249.103833830915	249.153815021273	0.0499811903573573
195096	50	429	0	0	humvee	813	120	1	stimuli\humvee\humvee_01b.jpg	0	-1	1	0	humvee_01b.jpg	0	0	0	249.203835952096	249.253815679345	0.0499797272495925
195196	50	430	0	0	turnstile	1734	121	1	stimuli\turnstile\turnstile_09s.jpg	8	-1	1	0	turnstile_09s.jpg	0	0	0	249.303838073276	249.353818288073	0.0499802147969604
195296	50	431	0	0	card	271	122	1	stimuli\card\card_06s.jpg	5	-1	1	0	card_06s.jpg	0	0	0	249.40383995045	249.45382065326	0.0499807028099895
195396	50	432	0	0	microphone	998	123	1	stimuli\microphone\microphone_09s.jpg	8	-1	1	0	microphone_09s.jpg	0	0	0	249.503842559177	249.553827406373	0.0499848471954465
195496	50	433	0	0	go-kart	682	124	1	stimuli\go-kart\go-kart_03s.jpg	2	-1	1	0	go-kart_03s.jpg	0	0	0	249.603843705263	249.653824895155	0.049981189891696
195596	50	434	0	0	root	1331	125	1	stimuli\root\root_09s.jpg	8	-1	1	0	root_09s.jpg	0	0	0	249.703852897044	249.753828722984	0.0499758259393275
195696	50	435	0	0	roof_rack	1329	126	1	stimuli\roof_rack\roof_rack_02s.jpg	1	-1	1	0	roof_rack_02s.jpg	0	0	0	249.803852580022	249.853834745474	0.0499821654520929
195796	50	436	0	0	bull	214	127	1	stimuli\bull\bull_05s.jpg	4	-1	1	0	bull_05s.jpg	0	0	0	249.903854213655	249.953833696898	0.049979483243078
195896	50	437	0	0	water_heater	1791	128	1	stimuli\water_heater\water_heater_02s.jpg	1	-1	1	0	water_heater_02s.jpg	0	0	0	250.003878521267	250.053835818078	0.0499572968110442
195996	50	438	0	0	uniform	1747	129	1	stimuli\uniform\uniform_10s.jpg	9	-1	1	0	uniform_10s.jpg	0	0	0	250.1038613813	250.153845984954	0.0499846036545932
196096	50	439	0	0	bracket	189	130	1	stimuli\bracket\bracket_01b.jpg	0	-1	1	0	bracket_01b.jpg	0	0	0	250.203862770926	250.253843717277	0.0499809463508427
196196	50	440	0	0	volleyball	1767	131	1	stimuli\volleyball\volleyball_06s.jpg	5	-1	1	0	volleyball_06s.jpg	0	0	0	250.303869524505	250.35384535091	0.0499758264049888
196296	50	441	0	0	balloon	60	132	1	stimuli\balloon\balloon_01b.jpg	0	-1	1	0	balloon_01b.jpg	0	0	0	250.403869207948	250.453847716097	0.0499785081483424
196396	50	442	0	0	hovercraft	808	133	1	stimuli\hovercraft\hovercraft_01b.jpg	0	-1	1	0	hovercraft_01b.jpg	0	0	0	250.50387157267	250.553847399075	0.0499758264049888
196496	50	443	0	0	raincoat	1279	134	1	stimuli\raincoat\raincoat_04s.jpg	3	-1	1	0	raincoat_04s.jpg	0	0	0	250.603872474749	250.653858297039	0.0499858222901821
196596	50	444	0	0	bookmark	166	135	1	stimuli\bookmark\bookmark_04s.jpg	3	-1	1	0	bookmark_04s.jpg	0	0	0	250.703876546584	250.753835793585	0.0499592470005155
196696	50	445	0	0	potato	1231	136	1	stimuli\potato\potato_03n.jpg	2	-1	1	0	potato_03n.jpg	0	0	0	250.80385623686	250.85383596411	0.0499797272495925
196796	50	446	0	0	slime	1465	137	1	stimuli\slime\slime_06s.jpg	5	-1	1	0	slime_06s.jpg	0	0	0	250.903859089594	250.953841498587	0.0499824089929461
196896	50	447	0	0	nest	1056	138	1	stimuli\nest\nest_02s.jpg	1	-1	1	0	nest_02s.jpg	0	0	0	251.003862185869	251.053841669578	0.0499794837087393
196996	50	448	0	0	trowel	1719	139	1	stimuli\trowel\trowel_05s.jpg	4	-1	1	0	trowel_05s.jpg	0	0	0	251.103865770157	251.15384500986	0.0499792397022247
197096	50	449	0	0	squirrel	1529	140	1	stimuli\squirrel\squirrel_02s.jpg	1	-1	1	0	squirrel_02s.jpg	0	0	0	251.203864965588	251.253846643027	0.0499816774390638
197196	50	450	0	0	mullet	1039	141	1	stimuli\mullet\mullet_05s.jpg	4	-1	1	0	mullet_05s.jpg	0	0	0	251.303869280964	251.353849739768	0.0499804588034749
197296	50	451	0	0	spatula	1508	142	1	stimuli\spatula\spatula_05s.jpg	4	-1	1	0	spatula_05s.jpg	0	0	0	251.403871158138	251.453852104489	0.0499809463508427
197396	50	452	0	0	food_processor	627	143	1	stimuli\food_processor\food_processor_06s.jpg	5	-1	1	0	food_processor_06s.jpg	0	0	0	251.503874742426	251.553855932318	0.049981189891696
197496	50	453	0	0	motherboard	1024	144	1	stimuli\motherboard\motherboard_12s.jpg	11	-1	1	0	motherboard_12s.jpg	0	0	0	251.6038766196	251.653858541045	0.0499819214455783
197596	50	454	0	0	printer	1240	145	1	stimuli\printer\printer_12s.jpg	11	-1	1	0	printer_12s.jpg	0	0	0	251.703881422523	251.753860662226	0.0499792397022247
197696	50	455	0	0	cabbage	232	146	1	stimuli\cabbage\cabbage_01b.jpg	0	-1	1	0	cabbage_01b.jpg	0	0	0	251.803884275258	251.8538754615	0.0499911862425506
197796	50	456	0	0	pepper_mill	1151	147	1	stimuli\pepper_mill\pepper_mill_04s.jpg	3	-1	1	0	pepper_mill_04s.jpg	0	0	0	251.903886883985	251.953864904586	0.0499780206009746
197896	50	457	0	0	binoculars	127	148	1	stimuli\binoculars\binoculars_04s.jpg	3	-1	1	0	binoculars_04s.jpg	0	0	0	252.003887298517	252.053870439064	0.0499831405468285
197996	50	458	0	0	stuffing	1575	149	1	stimuli\stuffing\stuffing_02s.jpg	1	-1	1	0	stuffing_02s.jpg	0	0	0	252.103894783184	252.153871097136	0.0499763139523566
198096	50	459	0	0	clothespin	363	150	1	stimuli\clothespin\clothespin_04s.jpg	3	-1	1	0	clothespin_04s.jpg	0	0	0	252.203893491067	252.253872486763	0.0499789956957102
198196	50	460	0	0	microscope	999	151	1	stimuli\microscope\microscope_12s.jpg	11	-1	1	0	microscope_12s.jpg	0	0	0	252.303895612247	252.353875827044	0.0499802147969604
198296	50	461	0	0	diving_board	494	152	1	stimuli\diving_board\diving_board_11s.jpg	10	-1	1	0	diving_board_11s.jpg	0	0	0	252.403900415171	252.453878923319	0.0499785081483424
198396	50	462	0	0	inhaler	828	153	1	stimuli\inhaler\inhaler_02s.jpg	1	-1	1	0	inhaler_02s.jpg	0	0	0	252.503914483357	252.553881288506	0.0499668051488698
198496	50	463	0	0	pulley	1250	154	1	stimuli\pulley\pulley_02s.jpg	1	-1	1	0	pulley_02s.jpg	0	0	0	252.60390343843	252.65388316568	0.0499797272495925
198596	50	464	0	0	map	970	155	1	stimuli\map\map_02s.jpg	1	-1	1	0	map_02s.jpg	0	0	0	252.703905559611	252.753886505961	0.0499809463508427
198696	50	465	0	0	aloe	14	156	1	stimuli\aloe\aloe_07s.jpg	6	-1	1	0	aloe_07s.jpg	0	0	0	252.803909874987	252.853892040439	0.0499821654520929
198796	50	466	0	0	snowsuit	1486	157	1	stimuli\snowsuit\snowsuit_07s.jpg	6	-1	1	0	snowsuit_07s.jpg	0	0	0	252.903913702816	252.953891479876	0.0499777770601213
198896	50	467	0	0	ice_cream	818	158	1	stimuli\ice_cream\ice_cream_03s.jpg	2	-1	1	0	ice_cream_03s.jpg	0	0	0	253.00393727934	253.053894576151	0.0499572968110442
198996	50	468	0	0	soda	1490	159	1	stimuli\soda\soda_10s.jpg	9	-1	1	0	soda_10s.jpg	0	0	0	253.103930623271	253.153897428885	0.049966805614531
199096	50	469	0	0	dessert	481	160	1	stimuli\dessert\dessert_02s.jpg	1	-1	1	0	dessert_02s.jpg	0	0	0	253.203917628154	253.253900281154	0.0499826529994607
199196	50	470	0	0	raisin	1280	161	1	stimuli\raisin\raisin_08s.jpg	7	-1	1	0	raisin_08s.jpg	0	0	0	253.303943155333	253.35393117182	0.0499880164861679
199296	50	471	0	0	pecan	1135	162	1	stimuli\pecan\pecan_11s.jpg	10	-1	1	0	pecan_11s.jpg	0	0	0	253.403924552258	253.453911106568	0.0499865543097258
199396	50	472	0	0	wick	1815	163	1	stimuli\wick\wick_10s.jpg	9	-1	1	0	wick_10s.jpg	0	0	0	253.503926917445	253.553906644695	0.0499797272495925
199496	50	473	0	0	bulletproof_vest	218	164	1	stimuli\bulletproof_vest\bulletproof_vest_06s.jpg	5	-1	1	0	bulletproof_vest_06s.jpg	0	0	0	253.60393098928	253.653910716064	0.0499797267839313
199596	50	474	0	0	gondola	691	165	1	stimuli\gondola\gondola_09s.jpg	8	-1	1	0	gondola_09s.jpg	0	0	0	253.703930915799	253.753916738555	0.0499858227558434
199696	50	475	0	0	birdhouse	131	166	1	stimuli\birdhouse\birdhouse_01b.jpg	0	-1	1	0	birdhouse_01b.jpg	0	0	0	253.803934743628	253.85392885562	0.0499941119924188
199796	50	476	0	0	chick	321	167	1	stimuli\chick\chick_05s.jpg	4	-1	1	0	chick_05s.jpg	0	0	0	253.903936377261	253.953917811159	0.0499814338982105
199896	50	477	0	0	stove2	1564	168	1	stimuli\stove2\stove2_02s.jpg	1	-1	1	0	stove2_02s.jpg	0	0	0	254.003941911738	254.053925296292	0.0499833845533431
199996	50	478	0	0	bullet	216	169	1	stimuli\bullet\bullet_01s.jpg	0	-1	1	0	bullet_01s.jpg	0	0	0	254.103948908858	254.15392497927	0.0499760704115033
200096	50	479	0	0	tulip	1726	170	1	stimuli\tulip\tulip_09s.jpg	8	-1	1	0	tulip_09s.jpg	0	0	0	254.203946885653	254.253927831538	0.0499809458851814
200196	50	480	0	0	coconut	375	171	1	stimuli\coconut\coconut_07s.jpg	6	-1	1	0	coconut_07s.jpg	0	0	0	254.303951932117	254.353930440266	0.0499785081483424
200296	50	481	0	0	bonnet	163	172	1	stimuli\bonnet\bonnet_01s.jpg	0	-1	1	0	bonnet_01s.jpg	0	0	0	254.403951615561	254.453932561446	0.0499809458851814
200396	50	482	0	0	cd_player	290	173	1	stimuli\cd_player\cd_player_04s.jpg	3	-1	1	0	cd_player_04s.jpg	0	0	0	254.503952761181	254.553934195079	0.0499814338982105
200496	50	483	0	0	necklace	1054	174	1	stimuli\necklace\necklace_04n.jpg	3	-1	1	0	necklace_04n.jpg	0	0	0	254.603957808111	254.653936803807	0.0499789956957102
200596	50	484	0	0	cigarette	344	175	1	stimuli\cigarette\cigarette_10s.jpg	9	-1	1	0	cigarette_10s.jpg	0	0	0	254.703957978636	254.75394160673	0.0499836280941963
200696	50	485	0	0	chocolate	338	176	1	stimuli\chocolate\chocolate_05s.jpg	4	-1	1	0	chocolate_05s.jpg	0	0	0	254.803962050471	254.853963476606	0.0500014261342585
200796	50	486	0	0	bologna	158	177	1	stimuli\bologna\bologna_11s.jpg	10	-1	1	0	bologna_11s.jpg	0	0	0	254.903965390753	254.953945361543	0.0499799707904458
200896	50	487	0	0	sheep	1414	178	1	stimuli\sheep\sheep_07s.jpg	6	-1	1	0	sheep_07s.jpg	0	0	0	255.003965804819	255.053948457818	0.0499826529994607
200996	50	488	0	0	wedding_cake	1800	179	1	stimuli\wedding_cake\wedding_cake_10s.jpg	9	-1	1	0	wedding_cake_10s.jpg	0	0	0	255.103968657553	255.153952042107	0.0499833845533431
201096	50	489	0	0	scraper	1387	180	1	stimuli\scraper\scraper_04s.jpg	3	-1	1	0	scraper_04s.jpg	0	0	0	255.203972972929	255.25395391928	0.0499809463508427
201196	50	490	0	0	hotplate	806	181	1	stimuli\hotplate\hotplate_08s.jpg	7	-1	1	0	hotplate_08s.jpg	0	0	0	255.303977044765	255.353958234657	0.049981189891696
201296	50	491	0	0	grenade	713	182	1	stimuli\grenade\grenade_03s.jpg	2	-1	1	0	grenade_03s.jpg	0	0	0	255.403978434391	255.453958649188	0.0499802147969604
201396	50	492	0	0	camper	249	183	1	stimuli\camper\camper_01b.jpg	0	-1	1	0	camper_01b.jpg	0	0	0	255.503980799112	255.553965402767	0.0499846036545932
201496	50	493	0	0	jewel	849	184	1	stimuli\jewel\jewel_08s.jpg	7	-1	1	0	jewel_08s.jpg	0	0	0	255.603984383401	255.653963379096	0.0499789956957102
201596	50	494	0	0	fishing_pole	603	185	1	stimuli\fishing_pole\fishing_pole_04s.jpg	3	-1	1	0	fishing_pole_04s.jpg	0	0	0	255.703986260574	255.753966962919	0.0499807023443282
201696	50	495	0	0	pastry	1124	186	1	stimuli\pastry\pastry_07s.jpg	6	-1	1	0	pastry_07s.jpg	0	0	0	255.803989844862	255.853986638598	0.0499967937357724
201796	50	496	0	0	rifle	1311	187	1	stimuli\rifle\rifle_08s.jpg	7	-1	1	0	rifle_08s.jpg	0	0	0	255.903990990482	255.953998024575	0.0500070340931416
201896	50	497	0	0	crucifix	449	188	1	stimuli\crucifix\crucifix_06s.jpg	5	-1	1	0	crucifix_06s.jpg	0	0	0	256.00399457477	256.053974058013	0.049979483243078
201996	50	498	0	0	gravestone	710	189	1	stimuli\gravestone\gravestone_08s.jpg	7	-1	1	0	gravestone_08s.jpg	0	0	0	256.103997183498	256.15397837339	0.049981189891696
202096	50	499	0	0	boy	184	190	1	stimuli\boy\boy_11s.jpg	10	-1	1	0	boy_11s.jpg	0	0	0	256.204001254868	256.253984882962	0.0499836280941963
202196	50	500	0	0	ring	1313	191	1	stimuli\ring\ring_10s.jpg	9	-1	1	0	ring_10s.jpg	0	0	0	256.304001181852	256.353983103298	0.0499819214455783
202296	50	501	0	0	frisbee	643	192	1	stimuli\frisbee\frisbee_03s.jpg	2	-1	1	0	frisbee_03s.jpg	0	0	0	256.404005741235	256.453984736931	0.0499789956957102
202396	50	502	0	0	bubble_wrap	208	193	1	stimuli\bubble_wrap\bubble_wrap_07s.jpg	6	-1	1	0	bubble_wrap_07s.jpg	0	0	0	256.504008593503	256.553997829556	0.0499892360530794
202496	50	503	0	0	barcode	73	194	1	stimuli\barcode\barcode_01b.jpg	0	-1	1	0	barcode_01b.jpg	0	0	0	256.60400998313	256.653996049426	0.0499860662966967
202596	50	504	0	0	cornbread	413	195	1	stimuli\cornbread\cornbread_09s.jpg	8	-1	1	0	cornbread_09s.jpg	0	0	0	256.704023563303	256.753993538208	0.0499699749052525
202696	50	505	0	0	penguin	1145	196	1	stimuli\penguin\penguin_09s.jpg	8	-1	1	0	penguin_09s.jpg	0	0	0	256.804016176146	256.854000048246	0.0499838721007109
202796	50	506	0	0	carrot	277	197	1	stimuli\carrot\carrot_04n.jpg	3	-1	1	0	carrot_04n.jpg	0	0	0	256.904018297326	256.95399899967	0.0499807023443282
202896	50	507	0	0	girl	676	198	1	stimuli\girl\girl_05s.jpg	4	-1	1	0	girl_05s.jpg	0	0	0	257.004021881148	257.0540040466	0.0499821654520929
202996	50	508	0	0	brace	186	199	1	stimuli\brace\brace_04s.jpg	3	-1	1	0	brace_04s.jpg	0	0	0	257.104024489876	257.154005192686	0.0499807028099895
203096	50	509	0	0	gallows	653	200	1	stimuli\gallows\gallows_03s.jpg	2	-1	1	0	gallows_03s.jpg	0	0	0	257.204028074164	257.254006338306	0.0499782641418278
203196	50	510	0	0	kneepad	878	201	1	stimuli\kneepad\kneepad_07s.jpg	6	-1	1	0	kneepad_07s.jpg	0	0	0	257.304029219784	257.354011141229	0.0499819214455783
203296	50	511	0	0	mug	1036	202	1	stimuli\mug\mug_09s.jpg	8	-1	1	0	mug_09s.jpg	0	0	0	257.404032560065	257.454013749957	0.049981189891696
203396	50	512	0	0	parachute	1118	203	1	stimuli\parachute\parachute_01b.jpg	0	-1	1	0	parachute_01b.jpg	0	0	0	257.504033949692	257.554016846698	0.0499828970059752
203496	50	513	0	0	piggy_bank	1172	204	1	stimuli\piggy_bank\piggy_bank_08s.jpg	7	-1	1	0	piggy_bank_08s.jpg	0	0	0	257.604038021527	257.654017748777	0.0499797272495925
203596	50	514	0	0	sweet_potato	1595	205	1	stimuli\sweet_potato\sweet_potato_06s.jpg	5	-1	1	0	sweet_potato_06s.jpg	0	0	0	257.704039167147	257.754019869957	0.0499807028099895
203696	50	515	0	0	nutcracker	1067	206	1	stimuli\nutcracker\nutcracker_09s.jpg	8	-1	1	0	nutcracker_09s.jpg	0	0	0	257.804042994976	257.854025404435	0.0499824094586074
203796	50	516	0	0	velcro	1756	207	1	stimuli\velcro\velcro_03s.jpg	2	-1	1	0	velcro_03s.jpg	0	0	0	257.904045116156	257.954027281608	0.0499821654520929
203896	50	517	0	0	keyhole	871	208	1	stimuli\keyhole\keyhole_06s.jpg	5	-1	1	0	keyhole_06s.jpg	0	0	0	258.004048456438	258.05402769614	0.0499792397022247
203996	50	518	0	0	sunflower	1584	209	1	stimuli\sunflower\sunflower_03s.jpg	2	-1	1	0	sunflower_03s.jpg	0	0	0	258.104051552713	258.154034205712	0.0499826529994607
204096	50	519	0	0	shower_cap	1434	210	1	stimuli\shower_cap\shower_cap_01b.jpg	0	-1	1	0	shower_cap_01b.jpg	0	0	0	258.204052942339	258.254034376238	0.0499814338982105
204196	50	520	0	0	lampshade	893	211	1	stimuli\lampshade\lampshade_10s.jpg	9	-1	1	0	lampshade_10s.jpg	0	0	0	258.304055551533	258.35403576633	0.0499802147969604
204296	50	521	0	0	tape_recorder	1624	212	1	stimuli\tape_recorder\tape_recorder_05s.jpg	4	-1	1	0	tape_recorder_05s.jpg	0	0	0	258.404064986855	258.454038618598	0.0499736317433417
204396	50	522	0	0	mint	1004	213	1	stimuli\mint\mint_04s.jpg	3	-1	1	0	mint_04s.jpg	0	0	0	258.504059549887	258.554041715339	0.0499821654520929
204496	50	523	0	0	swan	1591	214	1	stimuli\swan\swan_08s.jpg	7	-1	1	0	swan_08s.jpg	0	0	0	258.604062402155	258.654045786709	0.0499833845533431
204596	50	524	0	0	container	398	215	1	stimuli\container\container_08s.jpg	7	-1	1	0	container_08s.jpg	0	0	0	258.704065986443	258.754045713693	0.0499797272495925
204696	50	525	0	0	gearshift	668	216	1	stimuli\gearshift\gearshift_11n.jpg	10	-1	1	0	gearshift_11n.jpg	0	0	0	258.804069082718	258.854052467272	0.0499833845533431
204796	50	526	0	0	bead	100	217	1	stimuli\bead\bead_12s.jpg	11	-1	1	0	bead_12s.jpg	0	0	0	258.904072423	258.954053612892	0.049981189891696
204896	50	527	0	0	possum	1228	218	1	stimuli\possum\possum_12s.jpg	11	-1	1	0	possum_12s.jpg	0	0	0	259.004077957477	259.054055002984	0.0499770455062389
204996	50	528	0	0	knee	877	219	1	stimuli\knee\knee_02s.jpg	1	-1	1	0	knee_02s.jpg	0	0	0	259.104077152908	259.154058830347	0.0499816774390638
205096	50	529	0	0	bubble	207	220	1	stimuli\bubble\bubble_06n.jpg	5	-1	1	0	bubble_06n.jpg	0	0	0	259.204091220628	259.254058025777	0.0499668051488698
205196	50	530	0	0	rose	1334	221	1	stimuli\rose\rose_02s.jpg	1	-1	1	0	rose_02s.jpg	0	0	0	259.304081638809	259.354064291809	0.0499826529994607
205296	50	531	0	0	stamp1	1535	222	1	stimuli\stamp1\stamp1_01b.jpg	0	-1	1	0	stamp1_01b.jpg	0	0	0	259.404086929746	259.45406470634	0.04997777659446
205396	50	532	0	0	candlestick	254	223	1	stimuli\candlestick\candlestick_03s.jpg	2	-1	1	0	candlestick_03s.jpg	0	0	0	259.504088075366	259.554069265723	0.0499811903573573
205496	50	533	0	0	breakfast	197	224	1	stimuli\breakfast\breakfast_11s.jpg	10	-1	1	0	breakfast_11s.jpg	0	0	0	259.6040909281	259.654072849546	0.0499819214455783
205596	50	534	0	0	washing_machine	1784	225	1	stimuli\washing_machine\washing_machine_12s.jpg	11	-1	1	0	washing_machine_12s.jpg	0	0	0	259.704092074186	259.754073751625	0.0499816774390638
205696	50	535	0	0	lantern	895	226	1	stimuli\lantern\lantern_07s.jpg	6	-1	1	0	lantern_07s.jpg	0	0	0	259.804097852204	259.854078311007	0.0499804588034749
205796	50	536	0	0	bench	120	227	1	stimuli\bench\bench_04s.jpg	3	-1	1	0	bench_04s.jpg	0	0	0	259.90409924183	259.954080432188	0.0499811903573573
205896	50	537	0	0	webcam	1799	228	1	stimuli\webcam\webcam_06s.jpg	5	-1	1	0	webcam_06s.jpg	0	0	0	260.004101850558	260.054080846719	0.0499789961613715
205996	50	538	0	0	coffin	383	229	1	stimuli\coffin\coffin_07s.jpg	6	-1	1	0	coffin_07s.jpg	0	0	0	260.10410519084	260.154084674548	0.0499794837087393
206096	50	539	0	0	jackhammer	837	230	1	stimuli\jackhammer\jackhammer_11s.jpg	10	-1	1	0	jackhammer_11s.jpg	0	0	0	260.204106092919	260.254087770823	0.0499816779047251
206196	50	540	0	0	mailbox	960	231	1	stimuli\mailbox\mailbox_01b.jpg	0	-1	1	0	mailbox_01b.jpg	0	0	0	260.304108945653	260.354090867098	0.0499819214455783
206296	50	541	0	0	noisemaker	1060	232	1	stimuli\noisemaker\noisemaker_03s.jpg	2	-1	1	0	noisemaker_03s.jpg	0	0	0	260.404112041928	260.454096645582	0.0499846036545932
206396	50	542	0	0	marble	972	233	1	stimuli\marble\marble_06s.jpg	5	-1	1	0	marble_06s.jpg	0	0	0	260.504114163108	260.554094865452	0.0499807023443282
206496	50	543	0	0	net	1057	234	1	stimuli\net\net_06s.jpg	5	-1	1	0	net_06s.jpg	0	0	0	260.604117259383	260.654099424835	0.0499821654520929
206596	50	544	0	0	camcorder	244	235	1	stimuli\camcorder\camcorder_12s.jpg	11	-1	1	0	camcorder_12s.jpg	0	0	0	260.704124012962	260.75409935182	0.049975338857621
206696	50	545	0	0	dagger	469	236	1	stimuli\dagger\dagger_01b.jpg	0	-1	1	0	dagger_01b.jpg	0	0	0	260.804121989291	260.85410439875	0.0499824094586074
206796	50	546	0	0	train_car	1699	237	1	stimuli\train_car\train_car_08n.jpg	7	-1	1	0	train_car_08n.jpg	0	0	0	260.90412581712	260.954106763471	0.0499809463508427
206896	50	547	0	0	tuxedo	1738	238	1	stimuli\tuxedo\tuxedo_10s.jpg	9	-1	1	0	tuxedo_10s.jpg	0	0	0	261.004128669854	261.054111078847	0.0499824089929461
206996	50	548	0	0	bag	54	239	1	stimuli\bag\bag_07s.jpg	6	-1	1	0	bag_07s.jpg	0	0	0	261.104130303487	261.154110761825	0.0499804583378136
207096	50	549	0	0	panda	1105	240	1	stimuli\panda\panda_05s.jpg	4	-1	1	0	panda_05s.jpg	0	0	0	261.204132912215	261.254115565214	0.0499826529994607
207196	50	550	0	0	moccasin	1010	241	1	stimuli\moccasin\moccasin_11s.jpg	10	-1	1	0	moccasin_11s.jpg	0	0	0	261.304134789389	261.354115735739	0.0499809463508427
207296	50	551	0	0	gazelle	666	242	1	stimuli\gazelle\gazelle_07s.jpg	6	-1	1	0	gazelle_07s.jpg	0	0	0	261.404139836319	261.454119563568	0.0499797272495925
207396	50	552	0	0	scale	1371	243	1	stimuli\scale\scale_04s.jpg	3	-1	1	0	scale_04s.jpg	0	0	0	261.504140006844	261.554122416303	0.0499824094586074
207496	50	553	0	0	chips	335	244	1	stimuli\chips\chips_09s.jpg	8	-1	1	0	chips_09s.jpg	0	0	0	261.604146272875	261.65412502503	0.0499787521548569
207596	50	554	0	0	fire_hydrant	592	245	1	stimuli\fire_hydrant\fire_hydrant_11s.jpg	10	-1	1	0	fire_hydrant_11s.jpg	0	0	0	261.704146443401	261.754129583947	0.0499831405468285
207696	50	555	0	0	blowtorch	148	246	1	stimuli\blowtorch\blowtorch_03s.jpg	2	-1	1	0	blowtorch_03s.jpg	0	0	0	261.804154416081	261.854132436682	0.0499780206009746
207796	50	556	0	0	batter	96	247	1	stimuli\batter\batter_01b.jpg	0	-1	1	1	batter_01b.jpg	0	0	0	261.904152148869	261.954133826308	0.0499816774390638
207896	50	557	0	0	wallpaper	1777	248	1	stimuli\wallpaper\wallpaper_12s.jpg	11	-1	1	0	wallpaper_12s.jpg	0	0	0	262.004155976232	262.054135215934	0.0499792397022247
207996	50	558	0	0	flashlight	611	249	1	stimuli\flashlight\flashlight_01b.jpg	0	-1	1	0	flashlight_01b.jpg	0	0	0	262.104157853872	262.15413928777	0.0499814338982105
208096	50	559	0	0	bathrobe	90	250	1	stimuli\bathrobe\bathrobe_11s.jpg	10	-1	1	0	bathrobe_11s.jpg	0	0	0	262.20416070614	262.254141896497	0.0499811903573573
208196	50	560	0	0	shuffleboard	1439	251	1	stimuli\shuffleboard\shuffleboard_12s.jpg	11	-1	1	0	shuffleboard_12s.jpg	0	0	0	262.304165265523	262.35414353013	0.0499782646074891
208296	50	561	0	0	alligator	12	252	1	stimuli\alligator\alligator_05s.jpg	4	-1	1	0	alligator_05s.jpg	1	0.551334942225367	1	262.404166167602	262.454145894852	0.0499797272495925
208396	50	562	0	0	dryer	524	253	1	stimuli\dryer\dryer_01b.jpg	0	-1	1	0	dryer_01b.jpg	0	0	0	262.504191694316	262.554177029524	0.0499853352084756
208496	50	563	0	0	grass	705	254	1	stimuli\grass\grass_08s.jpg	7	-1	1	0	grass_08s.jpg	0	0	0	262.604196497705	262.65417232411	0.0499758264049888
208596	50	564	0	0	compost	393	255	1	stimuli\compost\compost_04s.jpg	3	-1	1	0	compost_04s.jpg	0	0	0	262.704172775149	262.754154452588	0.0499816774390638
208696	50	565	0	0	wafer	1769	256	1	stimuli\wafer\wafer_09s.jpg	8	-1	1	0	wafer_09s.jpg	0	0	0	262.804176846519	262.854160231072	0.0499833845533431
208796	50	566	0	0	crepe	440	257	1	stimuli\crepe\crepe_05s.jpg	4	-1	1	0	crepe_05s.jpg	0	0	0	262.904181161895	262.954174542334	0.0499933804385364
208896	50	567	0	0	toothpick	1681	258	1	stimuli\toothpick\toothpick_10s.jpg	9	-1	1	0	toothpick_10s.jpg	0	0	0	263.004180357326	263.054162766319	0.0499824089929461
208996	50	568	0	0	hatchet	759	259	1	stimuli\hatchet\hatchet_10s.jpg	9	-1	1	0	hatchet_10s.jpg	0	0	0	263.104184916709	263.154164399952	0.049979483243078
209096	50	569	0	0	cardigan	273	260	1	stimuli\cardigan\cardigan_10s.jpg	9	-1	1	0	cardigan_10s.jpg	0	0	0	263.204187769443	263.254168471787	0.0499807023443282
209196	50	570	0	0	cornhusk	414	261	1	stimuli\cornhusk\cornhusk_03s.jpg	2	-1	1	0	cornhusk_03s.jpg	0	0	0	263.304189159069	263.354172299616	0.0499831405468285
209296	50	571	0	0	lens	916	262	1	stimuli\lens\lens_04s.jpg	3	-1	1	0	lens_04s.jpg	0	0	0	263.404190548696	263.454174908344	0.0499843596480787
209396	50	572	0	0	quesadilla	1261	263	1	stimuli\quesadilla\quesadilla_08s.jpg	7	-1	1	0	quesadilla_08s.jpg	0	0	0	263.504195351619	263.554174347315	0.0499789956957102
209496	50	573	0	0	banner	70	264	1	stimuli\banner\banner_08s.jpg	7	-1	1	0	banner_08s.jpg	0	0	0	263.604197228793	263.654177444056	0.0499802152626216
209596	50	574	0	0	floss	617	265	1	stimuli\floss\floss_07s.jpg	6	-1	1	0	floss_07s.jpg	0	0	0	263.704199837986	263.754185660277	0.0499858222901821
209696	50	575	0	0	potpie	1234	266	1	stimuli\potpie\potpie_11s.jpg	10	-1	1	0	potpie_11s.jpg	0	0	0	263.804209029302	263.854183636606	0.0499746073037386
209796	50	576	0	0	wheelbarrow	1807	267	1	stimuli\wheelbarrow\wheelbarrow_03s.jpg	2	-1	1	0	wheelbarrow_03s.jpg	0	0	0	263.904209200293	263.954185270239	0.049976069945842
209896	50	577	0	0	kayak	863	268	1	stimuli\kayak\kayak_09s.jpg	8	-1	1	0	kayak_09s.jpg	0	0	0	264.004209858365	264.054189341608	0.049979483243078
209996	50	578	0	0	bus	226	269	1	stimuli\bus\bus_04n.jpg	3	-1	1	0	bus_04n.jpg	0	0	0	264.104210272897	264.154190731701	0.0499804588034749
210096	50	579	0	0	tongue	1675	270	1	stimuli\tongue\tongue_09s.jpg	8	-1	1	0	tongue_09s.jpg	0	0	0	264.204213613179	264.254192121327	0.0499785081483424
210196	50	580	0	0	juicer2	856	271	1	stimuli\juicer2\juicer2_07s.jpg	6	-1	1	0	juicer2_07s.jpg	0	0	0	264.304216465447	264.354196192697	0.0499797272495925
210296	50	581	0	0	gravy	711	272	1	stimuli\gravy\gravy_11s.jpg	10	-1	1	0	gravy_11s.jpg	0	0	0	264.404220049735	264.454200020526	0.0499799707904458
210396	50	582	0	0	mop	1019	273	1	stimuli\mop\mop_07s.jpg	6	-1	1	0	mop_07s.jpg	0	0	0	264.504221926909	264.554204092361	0.0499821654520929
210496	50	583	0	0	duck	525	274	1	stimuli\duck\duck_07s.jpg	6	-1	1	0	duck_07s.jpg	0	0	0	264.604224048089	264.654212796129	0.0499887480400503
210596	50	584	0	0	baton1	92	275	1	stimuli\baton1\baton1_01s.jpg	0	-1	1	0	baton1_01s.jpg	0	0	0	264.704227144364	264.754208334722	0.0499811903573573
210696	50	585	0	0	vise	1765	276	1	stimuli\vise\vise_04s.jpg	3	-1	1	0	vise_04s.jpg	0	0	0	264.804230240639	264.854212650098	0.0499824094586074
210796	50	586	0	0	tomato_sauce	1673	277	1	stimuli\tomato_sauce\tomato_sauce_04s.jpg	3	-1	1	0	tomato_sauce_04s.jpg	0	0	0	264.904236019123	264.954210626427	0.0499746073037386
210896	50	587	0	0	daisy	470	278	1	stimuli\daisy\daisy_01b.jpg	0	-1	1	0	daisy_01b.jpg	0	0	0	265.00423545856	265.054214454256	0.0499789956957102
210996	50	588	0	0	elephant	554	279	1	stimuli\elephant\elephant_05n.jpg	4	-1	1	0	elephant_05n.jpg	0	0	0	265.104243674781	265.154217306525	0.0499736317433417
211096	50	589	0	0	inkwell	830	280	1	stimuli\inkwell\inkwell_12s.jpg	11	-1	1	0	inkwell_12s.jpg	0	0	0	265.204240919556	265.254221622366	0.0499807028099895
211196	50	590	0	0	belt_buckle	119	281	1	stimuli\belt_buckle\belt_buckle_10s.jpg	9	-1	1	0	belt_buckle_10s.jpg	0	0	0	265.304258888587	265.35422349954	0.049964610952884
211296	50	591	0	0	backpack	49	282	1	stimuli\backpack\backpack_01b.jpg	0	-1	1	0	backpack_01b.jpg	0	0	0	265.404244430363	265.454226595815	0.0499821654520929
211396	50	592	0	0	hotdog	805	283	1	stimuli\hotdog\hotdog_07s.jpg	6	-1	1	0	hotdog_07s.jpg	0	0	0	265.504245820455	265.554241882637	0.04999606218189
211496	50	593	0	0	combination_lock	390	284	1	stimuli\combination_lock\combination_lock_11s.jpg	10	-1	1	0	combination_lock_11s.jpg	0	0	0	265.604251354933	265.654232544824	0.049981189891696
211596	50	594	0	0	juice	854	285	1	stimuli\juice\juice_08s.jpg	7	-1	1	0	juice_08s.jpg	0	0	0	265.7042529881	265.754234421998	0.0499814338982105
211696	50	595	0	0	hanger	751	286	1	stimuli\hanger\hanger_02s.jpg	1	-1	1	0	hanger_02s.jpg	0	0	0	265.804260473233	265.854241175577	0.0499807023443282
211796	50	596	0	0	speedboat	1511	287	1	stimuli\speedboat\speedboat_06s.jpg	5	-1	1	0	speedboat_06s.jpg	0	0	0	265.904259424657	265.954240371007	0.0499809463508427
211896	50	597	0	0	turtleneck	1737	288	1	stimuli\turtleneck\turtleneck_11s.jpg	10	-1	1	0	turtleneck_11s.jpg	0	0	0	266.004262521397	266.054241517093	0.0499789956957102
211996	50	598	0	0	grasshopper	706	289	1	stimuli\grasshopper\grasshopper_05s.jpg	4	-1	1	0	grasshopper_05s.jpg	0	0	0	266.104263911024	266.154243150726	0.0499792397022247
212096	50	599	0	0	gopher	694	290	1	stimuli\gopher\gopher_05s.jpg	4	-1	1	0	gopher_05s.jpg	0	0	0	266.204285780434	266.254249416292	0.0499636358581483
212196	50	600	0	0	lava	903	291	1	stimuli\lava\lava_06s.jpg	5	-1	1	0	lava_06s.jpg	0	0	0	266.304268884473	266.354252025019	0.0499831405468285
212296	50	601	0	0	blender	138	292	1	stimuli\blender\blender_04s.jpg	3	-1	1	0	blender_04s.jpg	0	0	0	266.404279782902	266.454252439551	0.0499726566486061
212396	50	602	0	0	bison	134	293	1	stimuli\bison\bison_09s.jpg	8	-1	1	0	bison_09s.jpg	0	0	0	266.504275077488	266.554256998934	0.0499819214455783
212496	50	603	0	0	mantle	969	294	1	stimuli\mantle\mantle_06s.jpg	5	-1	1	0	mantle_06s.jpg	0	0	0	266.604279148858	266.654262289405	0.0499831405468285
212596	50	604	0	0	tostada	1688	295	1	stimuli\tostada\tostada_10s.jpg	9	-1	1	0	tostada_10s.jpg	0	0	0	266.704279319849	266.754260022193	0.0499807023443282
212696	50	605	0	0	sock	1489	296	1	stimuli\sock\sock_09s.jpg	8	-1	1	0	sock_09s.jpg	0	0	0	266.804284366313	266.854287743103	0.050003376789391
212796	50	606	0	0	chinchilla	332	297	1	stimuli\chinchilla\chinchilla_01b.jpg	0	-1	1	0	chinchilla_01b.jpg	0	0	0	266.904286975507	266.954264995642	0.0499780201353133
212896	50	607	0	0	vacuum	1750	298	1	stimuli\vacuum\vacuum_01s.jpg	0	-1	1	0	vacuum_01s.jpg	0	0	0	267.00428885268	267.054275650531	0.049986797850579
212996	50	608	0	0	curtain	465	299	1	stimuli\curtain\curtain_09s.jpg	8	-1	1	0	curtain_09s.jpg	0	0	0	267.104290486313	267.154273139313	0.0499826529994607
213096	50	609	0	0	kazoo	864	300	1	stimuli\kazoo\kazoo_09s.jpg	8	-1	1	0	kazoo_09s.jpg	0	0	0	267.204293095041	267.254273797385	0.0499807023443282
213196	50	610	0	0	manhole	967	301	1	stimuli\manhole\manhole_02n.jpg	1	-1	1	0	manhole_02n.jpg	0	0	0	267.304297166411	267.354278844316	0.0499816779047251
213296	50	611	0	0	coop	404	302	1	stimuli\coop\coop_04s.jpg	3	-1	1	0	coop_04s.jpg	0	0	0	267.404297093395	267.454278039746	0.0499809463508427
213396	50	612	0	0	flamethrower	607	303	1	stimuli\flamethrower\flamethrower_07s.jpg	6	-1	1	0	flamethrower_07s.jpg	0	0	0	267.504302140325	267.554284061771	0.0499819214455783
213496	50	613	0	0	ready_meal	1292	304	1	stimuli\ready_meal\ready_meal_09s.jpg	8	-1	1	0	ready_meal_09s.jpg	0	0	0	267.604303773958	267.65428496385	0.049981189891696
213596	50	614	0	0	swing	1598	305	1	stimuli\swing\swing_12s.jpg	11	-1	1	0	swing_12s.jpg	0	0	0	267.704307113774	267.754289523233	0.0499824094586074
213696	50	615	0	0	record_player	1296	306	1	stimuli\record_player\record_player_01b.jpg	0	-1	1	0	record_player_01b.jpg	0	0	0	267.804310941603	267.854289937764	0.0499789961613715
213796	50	616	0	0	tank1	1620	307	1	stimuli\tank1\tank1_03s.jpg	2	-1	1	0	tank1_03s.jpg	0	0	0	267.904313794337	267.954292546492	0.0499787521548569
213896	50	617	0	0	ant	24	308	1	stimuli\ant\ant_12s.jpg	11	-1	1	0	ant_12s.jpg	0	0	0	268.004317134619	268.054295642767	0.0499785081483424
230347	50	618	0	0	dragonfly	514	0	2	stimuli\dragonfly\dragonfly_02s.jpg	1	-1	2	0	dragonfly_02s.jpg	0	0	0	284.454768584576	284.504753919318	0.0499853347428143
230447	50	619	0	0	oyster	1092	1	2	stimuli\oyster\oyster_12s.jpg	11	-1	2	0	oyster_12s.jpg	0	0	0	284.554770949297	284.604756528046	0.0499855787493289
230547	50	620	0	0	cream	436	2	2	stimuli\cream\cream_05s.jpg	4	-1	2	0	cream_05s.jpg	0	0	0	284.65477282647	284.704752797727	0.0499799712561071
230647	50	621	0	0	visor	1766	3	2	stimuli\visor\visor_08s.jpg	7	-1	2	0	visor_08s.jpg	0	0	0	284.75477470411	284.804769059643	0.049994355533272
230747	50	622	0	0	headdress	763	4	2	stimuli\headdress\headdress_04s.jpg	3	-1	2	0	headdress_04s.jpg	0	0	0	284.854778531939	284.904759234283	0.0499807023443282
230847	50	623	0	0	washboard	1782	5	2	stimuli\washboard\washboard_04s.jpg	3	-1	2	0	washboard_04s.jpg	0	0	0	284.954777483363	285.004778665956	0.0500011825934052
230947	50	624	0	0	credit_card	438	6	2	stimuli\credit_card\credit_card_04s.jpg	3	-1	2	0	credit_card_04s.jpg	0	0	0	285.05478301784	285.104760794435	0.04997777659446
231047	50	625	0	0	glove	680	7	2	stimuli\glove\glove_08s.jpg	7	-1	2	0	glove_08s.jpg	0	0	0	285.154785139021	285.204793879762	0.0500087407417595
231147	50	626	0	0	sim_card	1446	8	2	stimuli\sim_card\sim_card_02s.jpg	1	-1	2	0	sim_card_02s.jpg	0	0	0	285.254788722843	285.304766012356	0.0499772895127535
231247	50	627	0	0	baseball	78	9	2	stimuli\baseball\baseball_01b.jpg	0	-1	2	0	baseball_01b.jpg	0	0	0	285.354792307131	285.405070457142	0.050278150010854
231347	50	628	0	0	pliers	1201	10	2	stimuli\pliers\pliers_09s.jpg	8	-1	2	0	pliers_09s.jpg	0	0	0	285.454793940764	285.504773668014	0.0499797272495925
231447	50	629	0	0	satellite	1360	11	2	stimuli\satellite\satellite_01b.jpg	0	-1	2	0	satellite_01b.jpg	0	0	0	285.554794111289	285.604817967862	0.0500238565728068
231547	50	630	0	0	remote_control	1302	12	2	stimuli\remote_control\remote_control_05s.jpg	4	-1	2	0	remote_control_05s.jpg	0	0	0	285.654796964023	285.704779860564	0.049982896540314
231647	50	631	0	0	pallet	1101	13	2	stimuli\pallet\pallet_12s.jpg	11	-1	2	0	pallet_12s.jpg	0	0	0	285.754801035393	285.80478222575	0.0499811903573573
231747	50	632	0	0	razor	1290	14	2	stimuli\razor\razor_02s.jpg	1	-1	2	0	razor_02s.jpg	0	0	0	285.854802425019	285.904782883823	0.0499804588034749
231847	50	633	0	0	alpaca	15	15	2	stimuli\alpaca\alpaca_11s.jpg	10	-1	2	0	alpaca_11s.jpg	0	0	0	285.954806740396	286.004787443206	0.0499807028099895
231947	50	634	0	0	strap	1567	16	2	stimuli\strap\strap_02s.jpg	1	-1	2	0	strap_02s.jpg	0	0	0	286.054809349123	286.104789807927	0.0499804588034749
232047	50	635	0	0	toothpaste	1680	17	2	stimuli\toothpaste\toothpaste_03s.jpg	2	-1	2	0	toothpaste_03s.jpg	0	0	0	286.154813420959	286.204793879762	0.0499804588034749
232147	50	636	0	0	fossil	636	18	2	stimuli\fossil\fossil_12s.jpg	11	-1	2	0	fossil_12s.jpg	0	0	0	286.254813103937	286.304794294294	0.0499811903573573
232247	50	637	0	0	beachball	99	19	2	stimuli\beachball\beachball_11s.jpg	10	-1	2	0	beachball_11s.jpg	0	0	0	286.354815469123	286.404796171468	0.0499807023443282
232347	50	638	0	0	washcloth	1783	20	2	stimuli\washcloth\washcloth_10s.jpg	9	-1	2	0	washcloth_10s.jpg	0	0	0	286.454819540493	286.5048036566	0.0499841161072254
232447	50	639	0	0	oilcan	1073	21	2	stimuli\oilcan\oilcan_07s.jpg	6	-1	2	0	oilcan_07s.jpg	0	0	0	286.55482093012	286.60480480222	0.0499838721007109
232547	50	640	0	0	air_pump	6	22	2	stimuli\air_pump\air_pump_09s.jpg	8	-1	2	0	air_pump_09s.jpg	0	0	0	286.654825733509	286.704808630049	0.049982896540314
232647	50	641	0	0	barbed_wire	71	23	2	stimuli\barbed_wire\barbed_wire_04s.jpg	3	-1	2	0	barbed_wire_04s.jpg	0	0	0	286.754827366676	286.804808557034	0.0499811903573573
232747	50	642	0	0	wall	1775	24	2	stimuli\wall\wall_09s.jpg	8	-1	2	0	wall_09s.jpg	0	0	0	286.854830950964	286.904811409302	0.0499804583378136
232847	50	643	0	0	plunger	1204	25	2	stimuli\plunger\plunger_05s.jpg	4	-1	2	0	plunger_05s.jpg	0	0	0	286.954833803233	287.004813042935	0.0499792397022247
232947	50	644	0	0	rollerskate	1327	26	2	stimuli\rollerskate\rollerskate_04s.jpg	3	-1	2	0	rollerskate_04s.jpg	0	0	0	287.054835680872	287.10481711477	0.0499814338982105
233047	50	645	0	0	strawberry	1570	27	2	stimuli\strawberry\strawberry_01b.jpg	0	-1	2	0	strawberry_01b.jpg	0	0	0	287.154836826492	287.204817772843	0.0499809463508427
233147	50	646	0	0	lunchbox	950	28	2	stimuli\lunchbox\lunchbox_03s.jpg	2	-1	2	0	lunchbox_03s.jpg	0	0	0	287.25484041078	287.304822575767	0.0499821649864316
233247	50	647	0	0	comic_book	391	29	2	stimuli\comic_book\comic_book_02s.jpg	1	-1	2	0	comic_book_02s.jpg	0	0	0	287.35484448215	287.404823965859	0.0499794837087393
233347	50	648	0	0	boxing_gloves	183	30	2	stimuli\boxing_gloves\boxing_gloves_02s.jpg	1	-1	2	0	boxing_gloves_02s.jpg	0	0	0	287.454845628235	287.504826087039	0.0499804588034749
233447	50	649	0	0	eyeliner	567	31	2	stimuli\eyeliner\eyeliner_01s.jpg	0	-1	2	0	eyeliner_01s.jpg	0	0	0	287.554850187618	287.604830645956	0.0499804583378136
233547	50	650	0	0	watch	1786	32	2	stimuli\watch\watch_01b.jpg	0	-1	2	0	watch_01b.jpg	0	0	0	287.654853039887	287.704831548035	0.0499785081483424
233647	50	651	0	0	mustard	1044	33	2	stimuli\mustard\mustard_12s.jpg	11	-1	2	0	mustard_12s.jpg	0	0	0	287.754853210878	287.804839764722	0.0499865538440645
233747	50	652	0	0	green_beans	712	34	2	stimuli\green_beans\green_beans_02s.jpg	1	-1	2	0	green_beans_02s.jpg	0	0	0	287.854856307153	287.904837741051	0.0499814338982105
233847	50	653	0	0	barrette	77	35	2	stimuli\barrette\barrette_06s.jpg	5	-1	2	0	barrette_06s.jpg	0	0	0	287.954858184326	288.004841812421	0.0499836280941963
233947	50	654	0	0	biscuit	133	36	2	stimuli\biscuit\biscuit_04s.jpg	3	-1	2	0	biscuit_04s.jpg	0	0	0	288.05486298725	288.1048427145	0.0499797272495925
