onset	duration	eventnumber	blocksequencenumber	isteststim	object	objectnumber	presentationnumber	sequencenumber	stim	stimnumber	teststimnumber	withinsequencenumber	istarget	stimname	response	rt	correct	time_stimon	time_stimoff	stimdur
37282	50	0	0	0	scrambled_egg	1386	0	0	stimuli\scrambled_egg\scrambled_egg_04s.jpg	3	-1	0	0	scrambled_egg_04s.jpg	0	0	0	30.8681519194215	30.9180993907503	0.0499474713287782
37382	50	1	0	0	bat2	88	1	0	stimuli\bat2\bat2_04s.jpg	3	-1	0	0	bat2_04s.jpg	0	0	0	30.9681241495709	31.0180833237246	0.0499591741536278
37482	50	2	0	0	tab	1607	2	0	stimuli\tab\tab_07s.jpg	6	-1	0	0	tab_07s.jpg	0	0	0	31.0680990616092	31.1180772528751	0.0499781912658364
37582	50	3	0	0	wood	1833	3	0	stimuli\wood\wood_06s.jpg	5	-1	0	0	wood_06s.jpg	0	0	0	31.1681117640401	31.2180858105712	0.0499740465311334
37682	50	4	0	0	notepad	1065	4	0	stimuli\notepad\notepad_09s.jpg	8	-1	0	0	notepad_09s.jpg	0	0	0	31.2681049617822	31.3180865663744	0.0499816045921762
37782	50	5	0	0	camera2	247	5	0	stimuli\camera2\camera2_06s.jpg	5	-1	0	0	camera2_06s.jpg	0	0	0	31.368108887109	31.4186614927021	0.0505526055931114
37882	50	6	0	0	nail_clippers	1047	6	0	stimuli\nail_clippers\nail_clippers_11s.jpg	10	-1	0	0	nail_clippers_11s.jpg	0	0	0	31.4681379247631	31.5181027065555	0.0499647817923687
37982	50	7	0	0	cordon_bleu	408	7	0	stimuli\cordon_bleu\cordon_bleu_04s.jpg	3	-1	0	0	cordon_bleu_04s.jpg	0	0	0	31.5681394120038	31.6181039499643	0.0499645379604772
38082	50	8	0	0	hotdog	805	8	0	stimuli\hotdog\hotdog_11n.jpg	10	-1	0	0	hotdog_11n.jpg	0	0	0	31.6681226135697	31.7181232352741	0.0500006217043847
38182	50	9	0	0	gravy	711	9	0	stimuli\gravy\gravy_10s.jpg	9	-1	0	0	gravy_10s.jpg	0	0	0	31.7681414112449	31.8181259415578	0.0499845303129405
38282	50	10	0	0	origami	1083	10	0	stimuli\origami\origami_08s.jpg	7	-1	0	0	origami_08s.jpg	0	0	0	31.868128026108	31.918125478318	0.0499974522099365
38382	50	11	0	0	fire_hydrant	592	11	0	stimuli\fire_hydrant\fire_hydrant_01b.jpg	0	-1	0	0	fire_hydrant_01b.jpg	0	0	0	31.9681412162026	32.018130378885	0.0499891626823228
38482	50	12	0	0	plate	1197	12	0	stimuli\plate\plate_12s.jpg	11	-1	0	0	plate_12s.jpg	0	0	0	32.0681514805474	32.1181123613787	0.0499608808313496
38582	50	13	0	0	chalkboard	303	13	0	stimuli\chalkboard\chalkboard_08s.jpg	7	-1	0	0	chalkboard_08s.jpg	0	0	0	32.1681259049801	32.218100195314	0.0499742903339211
38682	50	14	0	0	pom-pom	1218	14	0	stimuli\pom-pom\pom-pom_12s.jpg	11	-1	0	0	pom-pom_12s.jpg	0	0	0	32.2681266607833	32.3181033892033	0.0499767284200061
38782	50	15	0	0	duster	534	15	0	stimuli\duster\duster_09s.jpg	8	-1	0	0	duster_09s.jpg	0	0	0	32.3681286356586	32.418108777405	0.0499801417463459
38882	50	16	0	0	bun	220	16	0	stimuli\bun\bun_03s.jpg	2	-1	0	0	bun_03s.jpg	0	0	0	32.4681703513779	32.518109777011	0.0499394256330561
38982	50	17	0	0	dumpster	533	17	0	stimuli\dumpster\dumpster_05s.jpg	4	-1	0	0	dumpster_05s.jpg	0	0	0	32.5681308787025	32.6181102890114	0.0499794103088789
39082	50	18	0	0	jeep	843	18	0	stimuli\jeep\jeep_11s.jpg	10	-1	0	0	jeep_11s.jpg	0	0	0	32.6681352916348	32.7181137267035	0.0499784350686241
39182	50	19	0	0	gem	670	19	0	stimuli\gem\gem_12s.jpg	11	-1	0	0	gem_12s.jpg	0	0	0	32.7681404360046	32.8181213091884	0.0499808731838129
39282	50	20	0	0	eggbeater	548	20	0	stimuli\eggbeater\eggbeater_02s.jpg	1	-1	0	0	eggbeater_02s.jpg	0	0	0	32.8681402165676	32.9181340116484	0.0499937950808089
39382	50	21	0	0	tree_trunk	1709	21	0	stimuli\tree_trunk\tree_trunk_05s.jpg	4	-1	0	0	tree_trunk_05s.jpg	0	0	0	32.968141947611	33.0181250150781	0.0499830674671102
39482	50	22	0	0	wrap	1837	22	0	stimuli\wrap\wrap_11s.jpg	10	-1	0	0	wrap_11s.jpg	0	0	0	33.0681446538947	33.1181272337562	0.0499825798615348
39582	50	23	0	0	sundial	1583	23	0	stimuli\sundial\sundial_10s.jpg	9	-1	0	0	sundial_10s.jpg	0	0	0	33.1681495544617	33.218160659977	0.0500111055152956
39682	50	24	0	0	gazelle	666	24	0	stimuli\gazelle\gazelle_04s.jpg	3	-1	0	0	gazelle_04s.jpg	0	0	0	33.2681824930769	33.3181665357843	0.049984042707365
39782	50	25	0	0	fountain_pen	637	25	0	stimuli\fountain_pen\fountain_pen_06s.jpg	5	-1	0	0	fountain_pen_06s.jpg	0	0	0	33.3681869060383	33.4181487620808	0.0499618560425006
39882	50	26	0	0	baby	46	26	0	stimuli\baby\baby_06s.jpg	5	-1	0	0	baby_06s.jpg	0	0	0	33.4681903437304	33.5181673159532	0.0499769722227938
39982	50	27	0	0	piano	1165	27	0	stimuli\piano\piano_02n.jpg	1	-1	0	0	piano_02n.jpg	0	0	0	33.5681784214685	33.6181407651457	0.0499623436771799
40082	50	28	0	0	quilt	1264	28	0	stimuli\quilt\quilt_02s.jpg	1	-1	0	1	quilt_02s.jpg	0	0	0	33.6681618668372	33.7181454219099	0.0499835550726857
40182	50	29	0	0	corn	412	29	0	stimuli\corn\corn_09s.jpg	8	-1	0	0	corn_09s.jpg	0	0	0	33.7681679864472	33.8181434958242	0.0499755093769636
40282	50	30	0	0	wedding_cake	1800	30	0	stimuli\wedding_cake\wedding_cake_06s.jpg	5	-1	0	0	wedding_cake_06s.jpg	0	0	0	33.8681665479671	33.9181462020788	0.0499796541116666
40382	50	31	0	0	blouse	144	31	0	stimuli\blouse\blouse_11s.jpg	10	-1	0	0	blouse_11s.jpg	0	0	0	33.968167791405	34.018150858843	0.0499830674380064
40482	50	32	0	0	cornhusk	414	32	0	stimuli\cornhusk\cornhusk_06s.jpg	5	-1	0	0	cornhusk_06s.jpg	0	0	0	34.0681707414915	34.1181491765601	0.0499784350686241
40582	50	33	0	0	cabinet	233	33	0	stimuli\cabinet\cabinet_08s.jpg	7	-1	0	0	cabinet_08s.jpg	0	0	0	34.1681690592086	34.2181589532993	0.049989894090686
40682	50	34	0	0	pantyhose	1110	34	0	stimuli\pantyhose\pantyhose_11s.jpg	10	-1	0	0	pantyhose_11s.jpg	0	0	0	34.2681788359478	34.318161659583	0.0499828236352187
40782	50	35	0	0	lion	933	35	0	stimuli\lion\lion_12s.jpg	11	-1	0	0	lion_12s.jpg	0	0	0	34.3681791041454	34.4181604649348	0.0499813607893884
40882	50	36	0	0	hookah	795	36	0	stimuli\hookah\hookah_07s.jpg	6	-1	0	0	hookah_07s.jpg	0	0	0	34.4681849799235	34.5181680473906	0.0499830674671102
40982	50	37	0	0	walker1	1773	37	0	stimuli\walker1\walker1_06s.jpg	5	-1	0	0	walker1_06s.jpg	0	0	0	34.5681884176447	34.6181602698925	0.0499718522478361
41082	50	38	0	0	spacesuit	1502	38	0	stimuli\spacesuit\spacesuit_04s.jpg	3	-1	0	0	spacesuit_04s.jpg	0	0	0	34.6681833220355	34.7181656580651	0.0499823360296432
41182	50	39	0	0	boa	150	39	0	stimuli\boa\boa_07s.jpg	6	-1	0	0	boa_07s.jpg	0	0	0	34.7681884664053	34.8181673891086	0.0499789227033034
41282	50	40	0	0	terrarium	1644	40	0	stimuli\terrarium\terrarium_10s.jpg	9	-1	0	0	terrarium_10s.jpg	0	0	0	34.8682238431065	34.9181881372642	0.0499642941576894
41382	50	41	0	0	broccoli	201	41	0	stimuli\broccoli\broccoli_10s.jpg	9	-1	0	0	broccoli_10s.jpg	0	0	0	34.9682068008406	35.0181896245049	0.0499828236643225
41482	50	42	0	0	jetski	848	42	0	stimuli\jetski\jetski_01b.jpg	0	-1	0	0	jetski_01b.jpg	0	0	0	35.0681953662133	35.1181757517625	0.0499803855491336
41582	50	43	0	0	aquarium	34	43	0	stimuli\aquarium\aquarium_06s.jpg	5	-1	0	0	aquarium_06s.jpg	0	0	0	35.1681953905791	35.2181772390031	0.0499818484240677
41682	50	44	0	0	broom	203	44	0	stimuli\broom\broom_08s.jpg	7	-1	0	0	broom_08s.jpg	0	0	0	35.2682022416266	35.3181826271757	0.0499803855491336
41782	50	45	0	0	pinwheel	1185	45	0	stimuli\pinwheel\pinwheel_04s.jpg	3	-1	0	0	pinwheel_04s.jpg	0	0	0	35.3682003155409	35.4181824077386	0.0499820921977516
41882	50	46	0	0	soda	1490	46	0	stimuli\soda\soda_07s.jpg	6	-1	0	0	soda_07s.jpg	0	0	0	35.4682376427227	35.5182055940095	0.049967951286817
41982	50	47	0	0	keg	866	47	0	stimuli\keg\keg_06s.jpg	5	-1	0	0	keg_06s.jpg	0	0	0	35.5682076785597	35.6181887955463	0.0499811169866007
42082	50	48	0	0	stem	1547	48	0	stimuli\stem\stem_05s.jpg	4	-1	0	0	stem_05s.jpg	0	0	0	35.6682130667614	35.7181922332675	0.0499791665060911
42182	50	49	0	0	unicycle	1746	49	0	stimuli\unicycle\unicycle_03s.jpg	2	-1	0	0	unicycle_03s.jpg	0	0	0	35.7682186987367	35.818195183354	0.0499764846172184
42282	50	50	0	0	hummingbird	811	50	0	stimuli\hummingbird\hummingbird_03s.jpg	2	-1	0	0	hummingbird_03s.jpg	0	0	0	35.8682172602566	35.9181995962863	0.0499823360296432
42382	50	51	0	0	latte	901	51	0	stimuli\latte\latte_05s.jpg	4	-1	0	0	latte_05s.jpg	0	0	0	35.9682197227376	36.0182008397242	0.0499811169866007
42482	50	52	0	0	salad	1348	52	0	stimuli\salad\salad_08s.jpg	7	-1	0	0	salad_08s.jpg	0	0	0	36.0682182842575	36.1181994012441	0.0499811169866007
42582	50	53	0	0	flask	612	53	0	stimuli\flask\flask_11s.jpg	10	-1	0	0	flask_11s.jpg	0	0	0	36.1682387886103	36.2182060084888	0.0499672198784538
42682	50	54	0	0	pie	1168	54	0	stimuli\pie\pie_11s.jpg	10	-1	0	1	pie_11s.jpg	0	0	0	36.2682236968249	36.318198962399	0.0499752655741759
42782	50	55	0	0	mousepad	1028	55	0	stimuli\mousepad\mousepad_05s.jpg	4	-1	0	0	mousepad_05s.jpg	0	0	0	36.3682668754191	36.418242384796	0.0499755093769636
42882	50	56	0	0	treasure	1707	56	0	stimuli\treasure\treasure_03s.jpg	2	-1	0	0	treasure_03s.jpg	0	0	0	36.4682437379379	36.5182109577872	0.0499672198493499
42982	50	57	0	0	chicken_wire	324	57	0	stimuli\chicken_wire\chicken_wire_10s.jpg	9	-1	0	0	chicken_wire_10s.jpg	0	0	0	36.568229133758	36.6182122012251	0.0499830674671102
43082	50	58	0	0	tank2	1621	58	0	stimuli\tank2\tank2_01b.jpg	0	-1	0	0	tank2_01b.jpg	0	0	0	36.6682354971999	36.7182487969694	0.0500132997694891
43182	50	59	0	0	revolver	1304	59	0	stimuli\revolver\revolver_04s.jpg	3	-1	0	0	revolver_04s.jpg	0	0	0	36.7682708739012	36.818233705184	0.0499628312827554
43282	50	60	0	0	iron	832	60	0	stimuli\iron\iron_02s.jpg	1	-1	0	0	iron_02s.jpg	0	0	0	36.8682396906952	36.918219344836	0.0499796541407704
43382	50	61	0	0	deer	476	61	0	stimuli\deer\deer_09s.jpg	8	-1	0	0	deer_09s.jpg	0	0	0	36.968258976005	37.0182257082488	0.0499667322437745
43482	50	62	0	0	sunroof	1586	62	0	stimuli\sunroof\sunroof_02s.jpg	1	-1	0	0	sunroof_02s.jpg	1	0.841926589549985	1	37.0682465661375	37.1182289021672	0.0499823360296432
43582	50	63	0	0	paperclip	1116	63	0	stimuli\paperclip\paperclip_11s.jpg	10	-1	0	0	paperclip_11s.jpg	0	0	0	37.1682548800018	37.2182320960565	0.0499772160546854
43682	50	64	0	0	pine_needle	1180	64	0	stimuli\pine_needle\pine_needle_05s.jpg	4	-1	0	0	pine_needle_05s.jpg	0	0	0	37.2682490529842	37.3182287070958	0.0499796541116666
43782	50	65	0	0	sorbet	1497	65	0	stimuli\sorbet\sorbet_01b.jpg	0	-1	0	0	sorbet_01b.jpg	0	0	0	37.368251515436	37.4182326324226	0.0499811169866007
43882	50	66	0	0	wolf	1831	66	0	stimuli\wolf\wolf_12n.jpg	11	-1	0	0	wolf_12n.jpg	0	0	0	37.468257635046	37.5182394834701	0.0499818484240677
43982	50	67	0	0	television	1641	67	0	stimuli\television\television_01b.jpg	0	-1	0	0	television_01b.jpg	0	0	0	37.5682603413297	37.6182399954705	0.0499796541407704
44082	50	68	0	0	counter	424	68	0	stimuli\counter\counter_09s.jpg	8	-1	0	0	counter_09s.jpg	0	0	0	37.6682623162051	37.7182392884279	0.0499769722227938
44182	50	69	0	0	horseshoe	799	69	0	stimuli\horseshoe\horseshoe_11n.jpg	10	-1	0	0	horseshoe_11n.jpg	0	0	0	37.7682652662916	37.8182729584514	0.050007692159852
44282	50	70	0	0	compass	392	70	0	stimuli\compass\compass_09n.jpg	8	-1	0	0	compass_09n.jpg	0	0	0	37.868285039207	37.9182466514467	0.0499616122397128
44382	50	71	0	0	cassette	283	71	0	stimuli\cassette\cassette_05s.jpg	4	-1	0	0	cassette_05s.jpg	0	0	0	37.96827823692	38.0182471634471	0.0499689265270717
44482	50	72	0	0	carousel	275	72	0	stimuli\carousel\carousel_12s.jpg	11	-1	0	0	carousel_12s.jpg	0	0	0	38.0682694841817	38.1182474316447	0.0499779474630486
44582	50	73	0	0	ram	1282	73	0	stimuli\ram\ram_09s.jpg	8	-1	0	0	ram_09s.jpg	0	0	0	38.1682692647446	38.2182508693659	0.04998160462128
44682	50	74	0	0	moccasin	1010	74	0	stimuli\moccasin\moccasin_10s.jpg	9	-1	0	0	moccasin_10s.jpg	0	0	0	38.2682744091144	38.3182530880149	0.0499786789005157
44782	50	75	0	0	bull	214	75	0	stimuli\bull\bull_03s.jpg	2	-1	0	0	bull_03s.jpg	0	0	0	38.3682754087495	38.4182565257361	0.0499811169866007
44882	50	76	0	0	parking_meter	1120	76	0	stimuli\parking_meter\parking_meter_08s.jpg	7	-1	0	0	parking_meter_08s.jpg	0	0	0	38.4682844540512	38.5182950719609	0.0500106179097202
44982	50	77	0	0	silicone	1444	77	0	stimuli\silicone\silicone_10s.jpg	9	-1	0	0	silicone_10s.jpg	0	0	0	38.5683125164942	38.6182658392354	0.049953322741203
45082	50	78	0	0	llama	938	78	0	stimuli\llama\llama_09s.jpg	8	-1	0	0	llama_09s.jpg	1	0	0	38.6682852342492	38.7182683017163	0.0499830674671102
45182	50	79	0	0	aloe	14	79	0	stimuli\aloe\aloe_08n.jpg	7	-1	0	0	aloe_08n.jpg	0	0	0	38.7682991557522	38.8182649127557	0.0499657570035197
45282	50	80	0	0	lime	930	80	0	stimuli\lime\lime_12s.jpg	11	-1	0	0	lime_12s.jpg	0	0	0	38.8682886963361	38.9182688380824	0.0499801417463459
45382	50	81	0	0	mat	982	81	0	stimuli\mat\mat_09s.jpg	8	-1	0	0	mat_09s.jpg	0	0	0	38.9683057873626	39.0182773957786	0.0499716084159445
45482	50	82	0	0	polo_shirt	1216	82	0	stimuli\polo_shirt\polo_shirt_07s.jpg	6	-1	0	0	polo_shirt_07s.jpg	0	0	0	39.0682970346243	39.1182776639762	0.0499806293519214
45582	50	83	0	0	camel	245	83	0	stimuli\camel\camel_04s.jpg	3	-1	0	0	camel_04s.jpg	0	0	0	39.1682999847108	39.2183091397455	0.0500091550347861
45682	50	84	0	0	yoke	1849	84	0	stimuli\yoke\yoke_12s.jpg	11	-1	0	0	yoke_12s.jpg	0	0	0	39.2683346299746	39.3183142841153	0.0499796541407704
45782	50	85	0	0	match	983	85	0	stimuli\match\match_05s.jpg	4	-1	0	0	match_05s.jpg	0	0	0	39.3683397743443	39.4183152837213	0.0499755093769636
45882	50	86	0	0	tostada	1688	86	0	stimuli\tostada\tostada_11s.jpg	10	-1	0	0	tostada_11s.jpg	0	0	0	39.4683410177822	39.518317990005	0.0499769722227938
45982	50	87	0	0	motherboard	1024	87	0	stimuli\motherboard\motherboard_07s.jpg	6	-1	0	0	motherboard_07s.jpg	0	0	0	39.5683425050229	39.6183192334429	0.0499767284200061
46082	50	88	0	0	modem	1011	88	0	stimuli\modem\modem_03s.jpg	2	-1	0	0	modem_03s.jpg	0	0	0	39.6683435046289	39.7183114559157	0.049967951286817
46182	50	89	0	0	harp	755	89	0	stimuli\harp\harp_09s.jpg	8	-1	0	0	harp_09s.jpg	0	0	0	39.7683442604321	39.818327571702	0.049983311269898
46282	50	90	0	0	knee	877	90	0	stimuli\knee\knee_07s.jpg	6	-1	0	0	knee_07s.jpg	0	0	0	39.8683447724325	39.9183275960968	0.0499828236643225
46382	50	91	0	0	pantsuit	1109	91	0	stimuli\pantsuit\pantsuit_02s.jpg	1	-1	0	0	pantsuit_02s.jpg	0	0	0	39.9683343130455	40.0183361537929	0.0500018407474272
46482	50	92	0	0	coconut	375	92	0	stimuli\coconut\coconut_11s.jpg	10	-1	0	0	coconut_11s.jpg	0	0	0	40.0683514040429	40.1183176486811	0.049966244638199
46582	50	93	0	0	air_mattress	5	93	0	stimuli\air_mattress\air_mattress_04s.jpg	3	-1	0	0	air_mattress_04s.jpg	0	0	0	40.1683531350864	40.2183371777937	0.049984042707365
46682	50	94	0	0	dolly	501	94	0	stimuli\dolly\dolly_07s.jpg	6	-1	0	0	dolly_07s.jpg	0	0	0	40.2683592546964	40.3183220860083	0.0499628313118592
46782	50	95	0	0	bracelet1	187	95	0	stimuli\bracelet1\bracelet1_08s.jpg	7	-1	0	0	bracelet1_08s.jpg	0	0	0	40.3683422124595	40.4183416151209	0.0499994026613422
46882	50	96	0	0	badger	53	96	0	stimuli\badger\badger_05s.jpg	4	-1	0	0	badger_05s.jpg	0	0	0	40.4683653987013	40.5183294490271	0.0499640503257979
46982	50	97	0	0	machine_gun	954	97	0	stimuli\machine_gun\machine_gun_04s.jpg	3	-1	0	0	machine_gun_04s.jpg	0	0	0	40.5683325088467	40.6183131381986	0.0499806293519214
47082	50	98	0	0	hearse	771	98	0	stimuli\hearse\hearse_08s.jpg	7	-1	0	0	hearse_08s.jpg	0	0	0	40.6683320456068	40.7183116997476	0.0499796541407704
47182	50	99	0	0	lifesaver	925	99	0	stimuli\lifesaver\lifesaver_04s.jpg	3	-1	0	0	lifesaver_04s.jpg	0	0	0	40.7683352394961	40.8183156250743	0.0499803855782375
47282	50	100	0	0	cabbage	232	100	0	stimuli\cabbage\cabbage_11s.jpg	10	-1	0	0	cabbage_11s.jpg	0	0	0	40.868337701977	40.9183173561178	0.0499796541407704
47382	50	101	0	0	scorpion	1384	101	0	stimuli\scorpion\scorpion_03n.jpg	2	-1	0	0	scorpion_03n.jpg	0	0	0	40.968343821587	41.0183268890542	0.0499830674671102
47482	50	102	0	0	wallet	1776	102	0	stimuli\wallet\wallet_11s.jpg	10	-1	0	0	wallet_11s.jpg	0	0	0	41.068347503111	41.1183256943768	0.0499781912658364
47582	50	103	0	0	router	1336	103	0	stimuli\router\router_06s.jpg	5	-1	0	0	router_06s.jpg	0	0	0	41.1683499655919	41.218330351141	0.0499803855491336
47682	50	104	0	0	ear	538	104	0	stimuli\ear\ear_12s.jpg	11	-1	0	0	ear_12s.jpg	0	0	0	41.2683516966354	41.3183315945498	0.0499798979144543
47782	50	105	0	0	canoe	262	105	0	stimuli\canoe\canoe_06s.jpg	5	-1	0	0	canoe_06s.jpg	0	0	0	41.3683526962413	41.41833113131	0.0499784350686241
47882	50	106	0	0	marijuana	974	106	0	stimuli\marijuana\marijuana_09s.jpg	8	-1	0	0	marijuana_09s.jpg	0	0	0	41.468352964439	41.5183338375937	0.0499808731547091
47982	50	107	0	0	fig	581	107	0	stimuli\fig\fig_10s.jpg	9	-1	0	0	fig_10s.jpg	0	0	0	41.568407845858	41.6183704333671	0.0499625875090715
48082	50	108	0	0	lettuce	920	108	0	stimuli\lettuce\lettuce_11s.jpg	10	-1	0	0	lettuce_11s.jpg	0	0	0	41.6683900721837	41.7183714329731	0.0499813607893884
48182	50	109	0	0	incense	826	109	0	stimuli\incense\incense_02s.jpg	1	-1	0	0	incense_02s.jpg	0	0	0	41.7683959479909	41.8183619487972	0.0499660008063074
48282	50	110	0	0	fish	600	110	0	stimuli\fish\fish_10s.jpg	9	-1	0	0	fish_10s.jpg	0	0	0	41.8683808562055	41.9183605103171	0.0499796541116666
48382	50	111	0	0	spark_plug	1506	111	0	stimuli\spark_plug\spark_plug_09s.jpg	8	-1	0	0	spark_plug_09s.jpg	0	0	0	41.9683820996142	42.0183610223175	0.0499789227033034
48482	50	112	0	0	clarinet	350	112	0	stimuli\clarinet\clarinet_05n.jpg	4	-1	0	0	clarinet_05n.jpg	0	0	0	42.0683823678119	42.1183659228845	0.0499835550726857
48582	50	113	0	0	loincloth	944	113	0	stimuli\loincloth\loincloth_04s.jpg	3	-1	0	0	loincloth_04s.jpg	0	0	0	42.1683801979234	42.2183618025156	0.0499816045921762
48682	50	114	0	0	lasagna	898	114	0	stimuli\lasagna\lasagna_11s.jpg	10	-1	0	0	lasagna_11s.jpg	0	0	0	42.2683811975294	42.3183640211646	0.0499828236352187
48782	50	115	0	0	float	616	115	0	stimuli\float\float_02s.jpg	1	-1	0	0	float_02s.jpg	0	0	0	42.3683843914187	42.4183662398427	0.0499818484240677
48882	50	116	0	0	footbath	631	116	0	stimuli\footbath\footbath_08s.jpg	7	-1	0	0	footbath_08s.jpg	0	0	0	42.468387585337	42.51837211565	0.0499845303129405
48982	50	117	0	0	scraper	1387	117	0	stimuli\scraper\scraper_03s.jpg	2	-1	0	1	scraper_03s.jpg	0	0	0	42.5683949239901	42.618375553342	0.0499806293519214
49082	50	118	0	0	strap	1567	118	0	stimuli\strap\strap_01b.jpg	0	-1	0	0	strap_01b.jpg	0	0	0	42.668397386471	42.7183770405827	0.0499796541116666
49182	50	119	0	0	baton1	92	119	0	stimuli\baton1\baton1_09s.jpg	8	-1	0	0	baton1_09s.jpg	0	0	0	42.7683964355965	42.8184009582619	0.0500045226654038
49282	50	120	0	0	bologna	158	120	0	stimuli\bologna\bologna_05s.jpg	4	-1	0	0	bologna_05s.jpg	0	0	0	42.8684047494899	42.9183831845876	0.0499784350977279
49382	50	121	0	0	crab	428	121	0	stimuli\crab\crab_12s.jpg	11	-1	0	0	crab_12s.jpg	0	0	0	42.968399166275	43.0183829651505	0.0499837988754734
49482	50	122	0	0	wire	1828	122	0	stimuli\wire\wire_03s.jpg	2	-1	0	0	wire_03s.jpg	0	0	0	43.0683965087519	43.1183690924081	0.0499725836561993
49582	50	123	0	0	sewing_machine	1407	123	0	stimuli\sewing_machine\sewing_machine_11s.jpg	10	-1	0	0	sewing_machine_11s.jpg	0	0	0	43.1684099426202	43.2183876462805	0.0499777036602609
49682	50	124	0	0	star_fruit	1540	124	0	stimuli\star_fruit\star_fruit_05s.jpg	4	-1	0	0	star_fruit_05s.jpg	0	0	0	43.2684082603373	43.3183910840016	0.0499828236643225
49782	50	125	0	0	kaleidoscope	861	125	0	stimuli\kaleidoscope\kaleidoscope_09s.jpg	8	-1	0	0	kaleidoscope_09s.jpg	0	0	0	43.3684048714058	43.4183920836076	0.0499872122018132
49882	50	126	0	0	bubble	207	126	0	stimuli\bubble\bubble_06n.jpg	5	-1	0	0	bubble_06n.jpg	0	0	0	43.4684180614713	43.5183930832136	0.0499750217422843
49982	50	127	0	0	luggage	948	127	0	stimuli\luggage\luggage_09s.jpg	8	-1	0	0	luggage_09s.jpg	0	0	0	43.568415647751	43.6183957894973	0.0499801417463459
50082	50	128	0	0	blanket	136	128	0	stimuli\blanket\blanket_04s.jpg	3	-1	0	0	blanket_04s.jpg	0	0	0	43.6684173787944	43.7184016653046	0.0499842865101527
50182	50	129	0	0	mail	959	129	0	stimuli\mail\mail_07s.jpg	6	-1	0	0	mail_07s.jpg	0	0	0	43.76842032891	43.8184082725493	0.0499879436392803
50282	50	130	0	0	muffin	1035	130	0	stimuli\muffin\muffin_03n.jpg	2	-1	0	0	muffin_03n.jpg	0	0	0	43.8684262046881	43.9184041521512	0.0499779474630486
50382	50	131	0	0	life_jacket	924	131	0	stimuli\life_jacket\life_jacket_09s.jpg	8	-1	0	0	life_jacket_09s.jpg	0	0	0	43.9684286671691	44.0184251441387	0.0499964769696817
50482	50	132	0	0	safety_pin	1344	132	0	stimuli\safety_pin\safety_pin_08s.jpg	7	-1	0	0	safety_pin_08s.jpg	0	0	0	44.0684362496249	44.1184161475685	0.0499798979435582
50582	50	133	0	0	apron	33	133	0	stimuli\apron\apron_06s.jpg	5	-1	0	0	apron_06s.jpg	0	0	0	44.1684394435433	44.2184149528912	0.0499755093478598
50682	50	134	0	0	cloak	358	134	0	stimuli\cloak\cloak_10s.jpg	9	-1	0	0	cloak_10s.jpg	0	0	0	44.2684455631534	44.3184181468096	0.0499725836561993
50782	50	135	0	0	landmine	894	135	0	stimuli\landmine\landmine_02s.jpg	1	-1	0	0	landmine_02s.jpg	0	0	0	44.3684689931979	44.4184196340502	0.0499506408523303
50882	50	136	0	0	roof_rack	1329	136	0	stimuli\roof_rack\roof_rack_09s.jpg	8	-1	0	0	roof_rack_09s.jpg	0	0	0	44.4684460995195	44.5184279479436	0.0499818484240677
50982	50	137	0	0	exhaust_pipe	562	137	0	stimuli\exhaust_pipe\exhaust_pipe_11s.jpg	10	-1	0	0	exhaust_pipe_11s.jpg	0	0	0	44.5684466115199	44.6184299227898	0.049983311269898
51082	50	138	0	0	boat	154	138	0	stimuli\boat\boat_09s.jpg	8	-1	0	0	boat_09s.jpg	0	0	0	44.6684519996925	44.7184270214639	0.0499750217713881
51182	50	139	0	0	bow1	174	139	0	stimuli\bow1\bow1_02s.jpg	1	-1	0	0	bow1_02s.jpg	0	0	0	44.7684488545638	44.8184294839157	0.0499806293519214
51282	50	140	0	0	cane	258	140	0	stimuli\cane\cane_09s.jpg	8	-1	0	0	cane_09s.jpg	0	0	0	44.8684761855693	44.9184380416409	0.0499618560716044
51382	50	141	0	0	typewriter	1741	141	0	stimuli\typewriter\typewriter_03s.jpg	2	-1	0	0	typewriter_03s.jpg	0	0	0	44.9684745032864	45.0184536697925	0.0499791665060911
51482	50	142	0	0	knitting	880	142	0	stimuli\knitting\knitting_03s.jpg	2	-1	0	0	knitting_03s.jpg	0	0	0	45.0684664819564	45.1184505246638	0.049984042707365
51582	50	143	0	0	filing_cabinet	585	143	0	stimuli\filing_cabinet\filing_cabinet_08s.jpg	7	-1	0	0	filing_cabinet_08s.jpg	0	0	0	45.1684679691971	45.2184520119044	0.049984042707365
51682	50	144	0	0	magnet	956	144	0	stimuli\magnet\magnet_02s.jpg	1	-1	0	0	magnet_02s.jpg	0	0	0	45.2684645802656	45.3184266801109	0.0499620998452883
51782	50	145	0	0	trapdoor	1703	145	0	stimuli\trapdoor\trapdoor_08s.jpg	7	-1	0	0	trapdoor_08s.jpg	0	0	0	45.3684563151328	45.4184381635278	0.0499818483949639
51882	50	146	0	0	butterfly	229	146	0	stimuli\butterfly\butterfly_09s.jpg	8	-1	0	0	butterfly_09s.jpg	0	0	0	45.4684568271332	45.5184445269406	0.0499876998073887
51982	50	147	0	0	cornmeal	415	147	0	stimuli\cornmeal\cornmeal_06s.jpg	5	-1	0	0	cornmeal_06s.jpg	0	0	0	45.568458070542	45.6184391875286	0.0499811169866007
52082	50	148	0	0	racket	1270	148	0	stimuli\racket\racket_06s.jpg	5	-1	0	1	racket_06s.jpg	1	0.0501498329103924	1	45.6684615082631	45.7184367738373	0.0499752655741759
52182	50	149	0	0	makeup	961	149	0	stimuli\makeup\makeup_01b.jpg	0	-1	0	0	makeup_01b.jpg	0	0	0	45.7684578754997	45.8184460629418	0.049988187442068
52282	50	150	0	0	seaweed	1400	150	0	stimuli\seaweed\seaweed_05s.jpg	4	-1	0	0	seaweed_05s.jpg	0	0	0	45.8684647265472	45.9184526701865	0.0499879436392803
52382	50	151	0	0	tile	1660	151	0	stimuli\tile\tile_07s.jpg	6	-1	0	0	tile_07s.jpg	0	0	0	45.968465969956	46.0184468431398	0.0499808731838129
52482	50	152	0	0	blimp	139	152	0	stimuli\blimp\blimp_11n.jpg	10	-1	0	0	blimp_11n.jpg	0	0	0	46.0684669695911	46.1184800255578	0.0500130559667014
52582	50	153	0	0	kneepad	878	153	0	stimuli\kneepad\kneepad_01b.jpg	0	-1	0	0	kneepad_01b.jpg	0	0	0	46.168497713923	46.218479562318	0.0499818483949639
52682	50	154	0	0	rolling_pin	1328	154	0	stimuli\rolling_pin\rolling_pin_10s.jpg	9	-1	0	0	rolling_pin_10s.jpg	0	0	0	46.2685013954469	46.3184842190822	0.0499828236352187
52782	50	155	0	0	red_carpet	1298	155	0	stimuli\red_carpet\red_carpet_09s.jpg	8	-1	0	0	red_carpet_09s.jpg	0	0	0	46.3684780141339	46.4184540111164	0.0499759969825391
52882	50	156	0	0	cheeseburger	313	156	0	stimuli\cheeseburger\cheeseburger_03s.jpg	2	-1	0	0	cheeseburger_03s.jpg	0	0	0	46.4684773070912	46.5184601307265	0.0499828236352187
52982	50	157	0	0	aluminum_foil	17	157	0	stimuli\aluminum_foil\aluminum_foil_02s.jpg	1	-1	0	0	aluminum_foil_02s.jpg	0	0	0	46.5684831828985	46.6184596675157	0.0499764846172184
53082	50	158	0	0	home_plate	787	158	0	stimuli\home_plate\home_plate_07s.jpg	6	-1	0	0	home_plate_07s.jpg	0	0	0	46.6684710168047	46.7184613985592	0.0499903817544691
53182	50	159	0	0	radar	1271	159	0	stimuli\radar\radar_06s.jpg	5	-1	0	0	radar_06s.jpg	0	0	0	46.768487132591	46.8184684933804	0.0499813607893884
53282	50	160	0	0	vacuum	1750	160	0	stimuli\vacuum\vacuum_01s.jpg	0	-1	0	0	vacuum_01s.jpg	0	0	0	46.8685222654894	46.9184967996262	0.0499745341367088
53382	50	161	0	0	fire_pit	593	161	0	stimuli\fire_pit\fire_pit_05s.jpg	4	-1	0	0	fire_pit_05s.jpg	0	0	0	46.9685215584468	47.0185024316306	0.0499808731838129
53482	50	162	0	0	waterwheel	1794	162	0	stimuli\waterwheel\waterwheel_04s.jpg	3	-1	0	0	waterwheel_04s.jpg	0	0	0	47.0685193885583	47.1184822198411	0.0499628312827554
53582	50	163	0	0	baseball_glove	80	163	0	stimuli\baseball_glove\baseball_glove_01b.jpg	0	-1	0	0	baseball_glove_01b.jpg	0	0	0	47.1684979577258	47.2184785870777	0.0499806293519214
53682	50	164	0	0	pickax	1166	164	0	stimuli\pickax\pickax_08s.jpg	7	-1	0	0	pickax_08s.jpg	0	0	0	47.2685001764039	47.3184820247989	0.0499818483949639
53782	50	165	0	0	paperweight	1117	165	0	stimuli\paperweight\paperweight_12s.jpg	11	-1	0	0	paperweight_12s.jpg	0	0	0	47.3685318959469	47.4185108186502	0.0499789227033034
53882	50	166	0	0	pocket	1205	166	0	stimuli\pocket\pocket_09s.jpg	8	-1	0	0	pocket_09s.jpg	0	0	0	47.4685058327741	47.5185125496937	0.0500067169195972
53982	50	167	0	0	gyro	730	167	0	stimuli\gyro\gyro_03s.jpg	2	-1	0	0	gyro_03s.jpg	0	0	0	47.5685353580338	47.6184884369723	0.0499530789384153
54082	50	168	0	0	dress	518	168	0	stimuli\dress\dress_10s.jpg	9	-1	0	0	dress_10s.jpg	0	0	0	47.6685175843595	47.7184984575433	0.0499808731838129
54182	50	169	0	0	crane	431	169	0	stimuli\crane\crane_04s.jpg	3	-1	0	0	crane_04s.jpg	0	0	0	47.7685254106473	47.818498481909	0.0499730712617747
54282	50	170	0	0	earwig	541	170	0	stimuli\earwig\earwig_12s.jpg	11	-1	0	0	earwig_12s.jpg	0	0	0	47.8685425016447	47.9185026510386	0.0499601493938826
54382	50	171	0	0	mussel	1042	171	0	stimuli\mussel\mussel_11s.jpg	10	-1	0	0	mussel_11s.jpg	0	0	0	47.9685254594078	48.0185053573223	0.0499798979144543
54482	50	172	0	0	fur_coat	650	172	0	stimuli\fur_coat\fur_coat_09s.jpg	8	-1	0	0	fur_coat_09s.jpg	0	0	0	48.0685271904513	48.1185153778933	0.049988187442068
54582	50	173	0	0	binder	126	173	0	stimuli\binder\binder_03s.jpg	2	-1	0	0	binder_03s.jpg	0	0	0	48.1685318471864	48.2185019927565	0.0499701455701143
54682	50	174	0	0	backscratcher	50	174	0	stimuli\backscratcher\backscratcher_07s.jpg	6	-1	0	0	backscratcher_07s.jpg	0	0	0	48.2685396734742	48.3185207904608	0.0499811169866007
54782	50	175	0	0	water_heater	1791	175	0	stimuli\water_heater\water_heater_10s.jpg	9	-1	0	0	water_heater_10s.jpg	0	0	0	48.3685528635397	48.4185344681318	0.0499816045921762
54882	50	176	0	0	fence	575	176	0	stimuli\fence\fence_02s.jpg	1	-1	0	0	fence_02s.jpg	0	0	0	48.468541916518	48.5185369306128	0.0499950140947476
54982	50	177	0	0	ruby	1338	177	0	stimuli\ruby\ruby_12s.jpg	11	-1	0	0	ruby_12s.jpg	0	0	0	48.568564858957	48.6185467073519	0.0499818483949639
55082	50	178	0	0	torpedo	1684	178	0	stimuli\torpedo\torpedo_11s.jpg	10	-1	0	0	torpedo_11s.jpg	0	0	0	48.6685634204769	48.7185406365024	0.0499772160255816
55182	50	179	0	0	birdhouse	131	179	0	stimuli\birdhouse\birdhouse_07s.jpg	6	-1	0	0	birdhouse_07s.jpg	0	0	0	48.7685485724942	48.8185428551806	0.0499942826863844
55282	50	180	0	0	cooler	403	180	0	stimuli\cooler\cooler_11s.jpg	10	-1	0	0	cooler_11s.jpg	0	0	0	48.8685683454387	48.9185477557476	0.0499794103088789
55382	50	181	0	0	fishbowl	601	181	0	stimuli\fishbowl\fishbowl_01b.jpg	0	-1	0	0	fishbowl_01b.jpg	0	0	0	48.9685673945642	49.0185533877229	0.0499859931587707
55482	50	182	0	0	oil	1072	182	0	stimuli\oil\oil_08s.jpg	7	-1	0	0	oil_08s.jpg	0	0	0	49.0685766836978	49.1185524368775	0.0499757531797513
55582	50	183	0	0	velcro	1756	183	0	stimuli\velcro\velcro_09s.jpg	8	-1	0	0	velcro_09s.jpg	0	0	0	49.1685703690455	49.2185534364835	0.0499830674380064
55682	50	184	0	0	stapler	1539	184	0	stimuli\stapler\stapler_05s.jpg	4	-1	0	0	stapler_05s.jpg	1	0	0	49.2685664924793	49.3185420018563	0.0499755093769636
55782	50	185	0	0	mousetrap	1029	185	0	stimuli\mousetrap\mousetrap_03s.jpg	2	-1	0	0	mousetrap_03s.jpg	0	0	0	49.3685538387799	49.4185427576595	0.049988918879535
55882	50	186	0	0	cart	278	186	0	stimuli\cart\cart_10s.jpg	9	-1	0	0	cart_10s.jpg	0	0	0	49.468562396476	49.5185647248582	0.0500023283821065
55982	50	187	0	0	gate	662	187	0	stimuli\gate\gate_01b.jpg	0	-1	0	0	gate_01b.jpg	0	0	0	49.5685663218028	49.6185676749446	0.0500013531418517
56082	50	188	0	0	thermometer	1646	188	0	stimuli\thermometer\thermometer_11s.jpg	10	-1	0	0	thermometer_11s.jpg	0	0	0	49.6685875575931	49.7185525831592	0.0499650255660526
56182	50	189	0	0	napkin	1050	189	0	stimuli\napkin\napkin_02s.jpg	1	-1	0	0	napkin_02s.jpg	0	0	0	49.7685892886366	49.8185716246662	0.0499823360296432
56282	50	190	0	0	test_tube	1645	190	0	stimuli\test_tube\test_tube_09s.jpg	8	-1	0	0	test_tube_09s.jpg	0	0	0	49.86857687874	49.9185589709668	0.0499820922268555
56382	50	191	0	0	wrapping_paper	1838	191	0	stimuli\wrapping_paper\wrapping_paper_03s.jpg	2	-1	0	0	wrapping_paper_03s.jpg	0	0	0	49.9685778783751	50.0185753305559	0.0499974521808326
56482	50	192	0	0	pepper_mill	1151	192	0	stimuli\pepper_mill\pepper_mill_09s.jpg	8	-1	0	0	pepper_mill_09s.jpg	0	0	0	50.0685988703335	50.1185734044702	0.0499745341367088
56582	50	193	0	0	slingshot	1467	193	0	stimuli\slingshot\slingshot_07s.jpg	6	-1	0	0	slingshot_07s.jpg	0	0	0	50.1685962128104	50.2185629450541	0.0499667322437745
56682	50	194	0	0	snowplow	1484	194	0	stimuli\snowplow\snowplow_06n.jpg	5	-1	0	0	snowplow_06n.jpg	0	0	0	50.2685850219568	50.3185578494449	0.0499728274880908
56782	50	195	0	0	speedboat	1511	195	0	stimuli\speedboat\speedboat_11s.jpg	10	-1	0	0	speedboat_11s.jpg	0	0	0	50.3685901663557	50.4185751842742	0.049985017918516
56882	50	196	0	0	fondue	626	196	0	stimuli\fondue\fondue_06s.jpg	5	-1	0	0	fondue_06s.jpg	0	0	0	50.4685909221589	50.518601052434	0.0500101302750409
56982	50	197	0	0	rim	1312	197	0	stimuli\rim\rim_08s.jpg	7	-1	0	0	rim_08s.jpg	0	0	0	50.5686075255508	50.618593031104	0.0499855055531953
57082	50	198	0	0	squeegee	1527	198	0	stimuli\squeegee\squeegee_12n.jpg	11	-1	0	0	squeegee_12n.jpg	0	0	0	50.6685968223319	50.7185925678641	0.0499957455322146
57182	50	199	0	0	seagull	1395	199	0	stimuli\seagull\seagull_03s.jpg	2	-1	0	0	seagull_03s.jpg	0	0	0	50.7686195209681	50.8185804017994	0.0499608808313496
57282	50	200	0	0	organ	1082	200	0	stimuli\organ\organ_05s.jpg	4	-1	0	0	organ_05s.jpg	0	0	0	50.8686163758102	50.9185950547107	0.0499786789005157
57382	50	201	0	0	file2	584	201	0	stimuli\file2\file2_01b.jpg	0	-1	0	0	file2_01b.jpg	0	0	0	50.9686181068828	51.0185892276641	0.0499711207812652
57482	50	202	0	0	rocking_horse	1322	202	0	stimuli\rocking_horse\rocking_horse_09s.jpg	8	-1	0	0	rocking_horse_09s.jpg	0	0	0	51.0686132550763	51.1185868139728	0.0499735588964541
57582	50	203	0	0	mud	1033	203	0	stimuli\mud\mud_12s.jpg	11	-1	0	0	mud_12s.jpg	0	0	0	51.1686110851588	51.2185900078621	0.0499789227033034
57682	50	204	0	0	wineglass	1826	204	0	stimuli\wineglass\wineglass_12s.jpg	11	-1	0	0	wineglass_12s.jpg	1	0	0	51.268611840962	51.318588569382	0.0499767284200061
57782	50	205	0	0	knife	879	205	0	stimuli\knife\knife_05s.jpg	4	-1	0	0	knife_05s.jpg	0	0	0	51.3686106463138	51.4185907880601	0.0499801417463459
57882	50	206	0	0	mashed_potato	979	206	0	stimuli\mashed_potato\mashed_potato_01b.jpg	0	-1	0	0	mashed_potato_01b.jpg	0	0	0	51.4686123773572	51.5186164123879	0.0500040350307245
57982	50	207	0	0	binoculars	127	207	0	stimuli\binoculars\binoculars_04s.jpg	3	-1	0	0	binoculars_04s.jpg	1	0	0	51.5686309312296	51.6186001015594	0.0499691703298595
58082	50	208	0	0	cufflink	458	208	0	stimuli\cufflink\cufflink_10s.jpg	9	-1	0	0	cufflink_10s.jpg	0	0	0	51.6686207156163	51.718588910735	0.0499681951187085
58182	50	209	0	0	cherry	316	209	0	stimuli\cherry\cherry_04n.jpg	3	-1	0	0	cherry_04n.jpg	0	0	0	51.768624640943	51.8186050265213	0.0499803855782375
58282	50	210	0	0	toucan	1690	210	0	stimuli\toucan\toucan_12s.jpg	11	-1	0	0	toucan_12s.jpg	1	0	0	51.8686236900976	51.918605050887	0.0499813607893884
58382	50	211	0	0	wall	1775	211	0	stimuli\wall\wall_03s.jpg	2	-1	0	0	wall_03s.jpg	0	0	0	51.9686288344674	52.0186006867152	0.0499718522478361
58482	50	212	0	0	cake	237	212	0	stimuli\cake\cake_08s.jpg	7	-1	0	0	cake_08s.jpg	0	0	0	52.068620081729	52.1186107072572	0.049990625528153
58582	50	213	0	0	toad	1664	213	0	stimuli\toad\toad_04s.jpg	3	-1	0	0	toad_04s.jpg	1	0	0	52.1686537517526	52.2186019545188	0.0499482027662452
58682	50	214	0	0	poker	1210	214	0	stimuli\poker\poker_02s.jpg	1	-1	0	0	poker_02s.jpg	0	0	0	52.2686347590352	52.3186195331509	0.0499847741157282
58782	50	215	0	0	brussels_sprouts	206	215	0	stimuli\brussels_sprouts\brussels_sprouts_05s.jpg	4	-1	0	0	brussels_sprouts_05s.jpg	0	0	0	52.3686384405592	52.4186173632625	0.0499789227033034
58882	50	216	0	0	worm	1836	216	0	stimuli\worm\worm_07n.jpg	6	-1	0	0	worm_07n.jpg	1	0	0	52.4686416344484	52.5186276276072	0.0499859931587707
58982	50	217	0	0	slot	1469	217	0	stimuli\slot\slot_06s.jpg	5	-1	0	0	slot_06s.jpg	0	0	0	52.568640683603	52.6186193624744	0.0499786788714118
59082	50	218	0	0	woman	1832	218	0	stimuli\woman\woman_04s.jpg	3	-1	0	0	woman_04s.jpg	0	0	0	52.6686433898867	52.7186242630414	0.0499808731547091
59182	50	219	0	0	shoehorn	1425	219	0	stimuli\shoehorn\shoehorn_09s.jpg	8	-1	0	0	shoehorn_09s.jpg	1	0	0	52.7686468275788	52.8186484245234	0.0500015969446395
59282	50	220	0	0	helmet	776	220	0	stimuli\helmet\helmet_05s.jpg	4	-1	0	0	helmet_05s.jpg	0	0	0	52.8686697700177	52.9186455231975	0.0499757531797513
59382	50	221	0	0	sewage	1405	221	0	stimuli\sewage\sewage_03s.jpg	2	-1	0	0	sewage_03s.jpg	0	0	0	52.9686517525406	53.0186501799617	0.0499984274210874
59482	50	222	0	0	gauze	664	222	0	stimuli\gauze\gauze_05s.jpg	4	-1	0	0	gauze_05s.jpg	1	0	0	53.0686664054519	53.118645571958	0.0499791665060911
59582	50	223	0	0	giraffe	675	223	0	stimuli\giraffe\giraffe_10s.jpg	9	-1	0	0	giraffe_10s.jpg	0	0	0	53.1686678926926	53.2186334058933	0.0499655132007319
59682	50	224	0	0	hash	756	224	0	stimuli\hash\hash_09s.jpg	8	-1	0	0	hash_09s.jpg	0	0	0	53.2686459742545	53.3186417197867	0.0499957455322146
59782	50	225	0	0	coffin	383	225	0	stimuli\coffin\coffin_03s.jpg	2	-1	0	0	coffin_03s.jpg	0	0	0	53.3686623338435	53.4186310165678	0.049968682724284
59882	50	226	0	0	leg	911	226	0	stimuli\leg\leg_06s.jpg	5	-1	0	0	leg_06s.jpg	0	0	0	53.4686526058649	53.5186417685472	0.0499891626823228
59982	50	227	0	0	globe	679	227	0	stimuli\globe\globe_08s.jpg	7	-1	0	0	globe_08s.jpg	0	0	0	53.5686899330467	53.6186454500712	0.0499555170245003
60082	50	228	0	0	smoothie	1474	228	0	stimuli\smoothie\smoothie_04s.jpg	3	-1	0	0	smoothie_04s.jpg	0	0	0	53.6686670393683	53.7186452306341	0.0499781912658364
60182	50	229	0	0	brass_knuckles	193	229	0	stimuli\brass_knuckles\brass_knuckles_04s.jpg	3	-1	0	0	brass_knuckles_04s.jpg	0	0	0	53.7686629189993	53.8186301388487	0.0499672198493499
60282	50	230	0	0	remote_control	1302	230	0	stimuli\remote_control\remote_control_07s.jpg	6	-1	0	0	remote_control_07s.jpg	0	0	0	53.8686895185674	53.9186691726791	0.0499796541116666
60382	50	231	0	0	sawhorse	1367	231	0	stimuli\sawhorse\sawhorse_08s.jpg	7	-1	0	0	sawhorse_08s.jpg	0	0	0	53.9686907620053	54.018652374245	0.0499616122397128
60482	50	232	0	0	saltshaker	1350	232	0	stimuli\saltshaker\saltshaker_08s.jpg	7	-1	0	0	saltshaker_08s.jpg	0	0	0	54.0686798149545	54.1186506919621	0.0499708770075813
60582	50	233	0	0	xylophone	1843	233	0	stimuli\xylophone\xylophone_12s.jpg	11	-1	0	0	xylophone_12s.jpg	1	0	0	54.1686834964785	54.218662175379	0.0499786789005157
60682	50	234	0	0	license_plate	921	234	0	stimuli\license_plate\license_plate_04s.jpg	3	-1	0	0	license_plate_04s.jpg	0	0	0	54.2686898598913	54.3186617121391	0.0499718522478361
60782	50	235	0	0	jersey	846	235	0	stimuli\jersey\jersey_10s.jpg	9	-1	0	0	jersey_10s.jpg	0	0	0	54.3686852519168	54.4186539346119	0.0499686826951802
60882	50	236	0	0	wine_cooler	1825	236	0	stimuli\wine_cooler\wine_cooler_05s.jpg	4	-1	0	0	wine_cooler_05s.jpg	1	0	0	54.4686882020032	54.5186715132731	0.049983311269898
60982	50	237	0	0	basketball	83	237	0	stimuli\basketball\basketball_06s.jpg	5	-1	0	0	basketball_06s.jpg	0	0	0	54.56869212733	54.6186625167029	0.049970389372902
61082	50	238	0	0	hammer	741	238	0	stimuli\hammer\hammer_03s.jpg	2	-1	0	0	hammer_03s.jpg	0	0	0	54.6686819117167	54.7186632725061	0.0499813607893884
61182	50	239	0	0	brake	191	239	0	stimuli\brake\brake_10s.jpg	9	-1	0	0	brake_10s.jpg	0	0	0	54.7687014408293	54.8186691483133	0.0499677074840292
61282	50	240	0	0	funnel	649	240	0	stimuli\funnel\funnel_03s.jpg	2	-1	0	0	funnel_03s.jpg	0	0	0	54.8686987833062	54.9186986736022	0.0499998902960215
61382	50	241	0	0	trough	1718	241	0	stimuli\trough\trough_05s.jpg	4	-1	0	0	trough_05s.jpg	0	0	0	54.9687214819423	55.0187035741692	0.0499820922268555
61482	50	242	0	0	hanger	751	242	0	stimuli\hanger\hanger_09s.jpg	8	-1	0	0	hanger_09s.jpg	1	0	0	55.0687266263121	55.1186770233617	0.0499503970495425
61582	50	243	0	0	lizard	937	243	0	stimuli\lizard\lizard_03n.jpg	2	-1	0	0	lizard_03n.jpg	0	0	0	55.1687081212003	55.2186887505814	0.0499806293810252
61682	50	244	0	0	polisher	1215	244	0	stimuli\polisher\polisher_03s.jpg	2	-1	0	0	polisher_03s.jpg	1	0	0	55.2687130217673	55.3186938949511	0.0499808731838129
61782	50	245	0	0	water_cooler	1788	245	0	stimuli\water_cooler\water_cooler_07s.jpg	6	-1	0	0	water_cooler_07s.jpg	0	0	0	55.36871182709	55.4186807536171	0.0499689265270717
61882	50	246	0	0	tack	1611	246	0	stimuli\tack\tack_10s.jpg	9	-1	0	0	tack_10s.jpg	0	0	0	55.4687138019654	55.518697357038	0.0499835550726857
61982	50	247	0	0	turnstile	1734	247	0	stimuli\turnstile\turnstile_04s.jpg	3	-1	0	0	turnstile_04s.jpg	1	0	0	55.5687172396574	55.6186978690384	0.0499806293810252
62082	50	248	0	0	flag	605	248	0	stimuli\flag\flag_08s.jpg	7	-1	0	0	flag_08s.jpg	0	0	0	55.6687075116788	55.7186874096224	0.0499798979435582
62182	50	249	0	0	dynamite	536	249	0	stimuli\dynamite\dynamite_02s.jpg	1	-1	0	0	dynamite_02s.jpg	1	0	0	55.7687267969886	55.8187032816058	0.0499764846172184
62282	50	250	0	0	exerciser	561	250	0	stimuli\exerciser\exerciser_02s.jpg	1	-1	0	0	exerciser_02s.jpg	0	0	0	55.868724870903	55.9187084259756	0.0499835550726857
62382	50	251	0	0	bowtie	180	251	0	stimuli\bowtie\bowtie_03s.jpg	2	-1	0	0	bowtie_03s.jpg	1	0	0	55.96874756951	56.0187086941442	0.0499611246341374
62482	50	252	0	0	curling_iron	463	252	0	stimuli\curling_iron\curling_iron_04s.jpg	3	-1	0	0	curling_iron_04s.jpg	0	0	0	56.0687302834413	56.1187089623418	0.0499786789005157
62582	50	253	0	0	hot-water_bottle	802	253	0	stimuli\hot-water_bottle\hot-water_bottle_12s.jpg	11	-1	0	0	hot-water_bottle_12s.jpg	1	0	0	56.1687305516389	56.2187267848058	0.0499962331668939
62682	50	254	0	0	banana_split	65	254	0	stimuli\banana_split\banana_split_05s.jpg	4	-1	0	0	banana_split_05s.jpg	0	0	0	56.268737890292	56.3187126682315	0.0499747779394966
62782	50	255	0	0	cinnamon	348	255	0	stimuli\cinnamon\cinnamon_05s.jpg	4	-1	0	0	cinnamon_05s.jpg	0	0	0	56.3687320632744	56.4187141554721	0.0499820921977516
62882	50	256	0	0	chopsticks	339	256	0	stimuli\chopsticks\chopsticks_12s.jpg	11	-1	0	0	chopsticks_12s.jpg	1	0	0	56.4687369638123	56.5187049150991	0.049967951286817
62982	50	257	0	0	mallet	962	257	0	stimuli\mallet\mallet_05s.jpg	4	-1	0	0	mallet_05s.jpg	0	0	0	56.5687389386876	56.6187171299534	0.0499781912658364
63082	50	258	0	0	sardine	1359	258	0	stimuli\sardine\sardine_01s.jpg	0	-1	0	0	sardine_01s.jpg	0	0	0	56.6687379878131	56.7187276381301	0.0499896503170021
63182	50	259	0	0	slide	1464	259	0	stimuli\slide\slide_03s.jpg	2	-1	0	0	slide_03s.jpg	0	0	0	56.768760930252	56.8187444853247	0.0499835550726857
63282	50	260	0	0	pecan	1135	260	0	stimuli\pecan\pecan_04s.jpg	3	-1	0	0	pecan_04s.jpg	1	0	0	56.8687565660803	56.9187442659168	0.0499876998364925
63382	50	261	0	0	bulletproof_vest	218	261	0	stimuli\bulletproof_vest\bulletproof_vest_01s.jpg	0	-1	0	0	bulletproof_vest_01s.jpg	0	0	0	56.9687685371027	57.018747459806	0.0499789227033034
63482	50	262	0	0	ski_boots	1453	262	0	stimuli\ski_boots\ski_boots_09s.jpg	8	-1	0	0	ski_boots_09s.jpg	0	0	0	57.0687749005156	57.1187491908495	0.0499742903339211
63582	50	263	0	0	poodle	1221	263	0	stimuli\poodle\poodle_07s.jpg	6	-1	0	0	poodle_07s.jpg	1	0	0	57.1687685858633	57.2187304419349	0.0499618560716044
63682	50	264	0	0	neck	1053	264	0	stimuli\neck\neck_05s.jpg	4	-1	0	0	neck_05s.jpg	0	0	0	57.2687517874292	57.3187360739103	0.0499842864810489
63782	50	265	0	0	brace	186	265	0	stimuli\brace\brace_08s.jpg	7	-1	0	0	brace_08s.jpg	1	0	0	57.3687603451253	57.418739999237	0.0499796541116666
63882	50	266	0	0	bark	74	266	0	stimuli\bark\bark_06s.jpg	5	-1	0	0	bark_06s.jpg	0	0	0	57.4687879199337	57.5187417302805	0.0499538103467785
63982	50	267	0	0	plum	1203	267	0	stimuli\plum\plum_06s.jpg	5	-1	0	0	plum_06s.jpg	1	0	0	57.5687684395816	57.618751019414	0.0499825798324309
64082	50	268	0	0	lamppost	892	268	0	stimuli\lamppost\lamppost_07s.jpg	6	-1	0	0	lamppost_07s.jpg	0	0	0	57.6687679763418	57.7187522628519	0.0499842865101527
64182	50	269	0	0	baton4	95	269	0	stimuli\baton4\baton4_11s.jpg	10	-1	0	0	baton4_11s.jpg	1	0	0	57.7687587359687	57.8187539938954	0.0499952579266392
64282	50	270	0	0	sling	1466	270	0	stimuli\sling\sling_07s.jpg	6	-1	0	0	sling_07s.jpg	0	0	0	57.868776070798	57.9187435344793	0.0499674636812415
64382	50	271	0	0	seal	1397	271	0	stimuli\seal\seal_08s.jpg	7	-1	0	0	seal_08s.jpg	0	0	0	57.9687780456734	58.0187425836339	0.0499645379604772
64482	50	272	0	0	caterpillar	286	272	0	stimuli\caterpillar\caterpillar_01b.jpg	0	-1	0	0	caterpillar_01b.jpg	1	0	0	58.0687695367378	58.1187584555882	0.0499889188504312
64582	50	273	0	0	punch2	1255	273	0	stimuli\punch2\punch2_06s.jpg	5	-1	0	0	punch2_06s.jpg	0	0	0	58.1687822391686	58.2187640875927	0.0499818484240677
64682	50	274	0	0	tea	1631	274	0	stimuli\tea\tea_08s.jpg	7	-1	0	0	tea_08s.jpg	1	0	0	58.2687837264093	58.3187550910225	0.0499713646131568
64782	50	275	0	0	dolphin	502	275	0	stimuli\dolphin\dolphin_08s.jpg	7	-1	0	0	dolphin_08s.jpg	0	0	0	58.3687808250834	58.4187648677907	0.049984042707365
64882	50	276	0	0	videogame	1762	276	0	stimuli\videogame\videogame_05s.jpg	4	-1	0	0	videogame_05s.jpg	1	0	0	58.4688001103932	58.5187722064438	0.0499720960506238
64982	50	277	0	0	sonogram	1496	277	0	stimuli\sonogram\sonogram_08s.jpg	7	-1	0	0	sonogram_08s.jpg	0	0	0	58.5687755100371	58.6187675984402	0.0499920884030871
65082	50	278	0	0	volleyball	1767	278	0	stimuli\volleyball\volleyball_12s.jpg	11	-1	0	0	volleyball_12s.jpg	1	0	0	58.6687911382178	58.7187746932905	0.0499835550726857
65182	50	279	0	0	banjo	68	279	0	stimuli\banjo\banjo_04s.jpg	3	-1	0	0	banjo_04s.jpg	0	0	0	58.7687960387848	58.8187759367283	0.0499798979435582
65282	50	280	0	0	eyeliner	567	280	0	stimuli\eyeliner\eyeliner_07s.jpg	6	-1	0	0	eyeliner_07s.jpg	1	0	0	58.8687960631505	58.9187774239399	0.0499813607893884
65382	50	281	0	0	comic_book	391	281	0	stimuli\comic_book\comic_book_08s.jpg	7	-1	0	0	comic_book_08s.jpg	0	0	0	58.9688309522462	59.0187735473737	0.0499425951275043
65482	50	282	0	0	wreck	1840	282	0	stimuli\wreck\wreck_05s.jpg	4	-1	0	0	wreck_05s.jpg	1	0	0	59.0688034261984	59.1187825927045	0.0499791665060911
65582	50	283	0	0	doormat	511	283	0	stimuli\doormat\doormat_05s.jpg	4	-1	0	0	doormat_05s.jpg	1	0	0	59.1688017439155	59.2187774970953	0.0499757531797513
65682	50	284	0	0	wrist	1842	284	0	stimuli\wrist\wrist_06s.jpg	5	-1	0	0	wrist_06s.jpg	0	0	0	59.2687966483063	59.3187909309636	0.0499942826572806
65782	50	285	0	0	camera_lens	248	285	0	stimuli\camera_lens\camera_lens_07s.jpg	6	-1	0	0	camera_lens_07s.jpg	1	0	0	59.3688110574149	59.4187958315306	0.0499847741157282
65882	50	286	0	0	pocketknife	1207	286	0	stimuli\pocketknife\pocketknife_11s.jpg	10	-1	0	0	pocketknife_11s.jpg	0	0	0	59.4688379008148	59.5188087777933	0.0499708769784775
65982	50	287	0	0	leech	909	287	0	stimuli\leech\leech_11s.jpg	10	-1	0	0	leech_11s.jpg	1	0	0	59.568834755657	59.6188112402742	0.0499764846172184
66082	50	288	0	0	urinal	1748	288	0	stimuli\urinal\urinal_02s.jpg	1	-1	0	0	urinal_02s.jpg	1	0	0	59.6688328295713	59.7188180913217	0.0499852617504075
66182	50	289	0	0	blowgun	147	289	0	stimuli\blowgun\blowgun_11s.jpg	10	-1	0	0	blowgun_11s.jpg	0	0	0	59.7688096920901	59.8187998300127	0.0499901379225776
66282	50	290	0	0	shirt	1422	290	0	stimuli\shirt\shirt_05s.jpg	4	-1	0	0	shirt_05s.jpg	1	0	0	59.8688223945501	59.9187879077508	0.0499655132007319
66382	50	291	0	0	underwear	1745	291	0	stimuli\underwear\underwear_07s.jpg	6	-1	0	0	underwear_07s.jpg	0	0	0	59.9688238817907	60.0188296234992	0.0500057417084463
66482	50	292	0	0	fossil	636	292	0	stimuli\fossil\fossil_04s.jpg	3	-1	0	0	fossil_04s.jpg	1	0	0	60.0688419480284	60.1188072174264	0.0499652693979442
66582	50	293	0	0	wallpaper	1777	293	0	stimuli\wallpaper\wallpaper_10s.jpg	9	-1	0	0	wallpaper_10s.jpg	0	0	0	60.1688283191179	60.2188277217792	0.0499994026613422
66682	50	294	0	0	inkwell	830	294	0	stimuli\inkwell\inkwell_09s.jpg	8	-1	0	0	inkwell_09s.jpg	1	0	0	60.2688256615947	60.3188106795133	0.049985017918516
66782	50	295	0	0	wheelchair	1808	295	0	stimuli\wheelchair\wheelchair_08s.jpg	7	-1	0	0	wheelchair_08s.jpg	0	0	0	60.3688334878534	60.4188158238831	0.0499823360296432
66882	50	296	0	0	cup	460	296	0	stimuli\cup\cup_03s.jpg	2	-1	0	0	cup_03s.jpg	1	0	0	60.4688361941371	60.5188039016211	0.0499677074840292
66982	50	297	0	0	gum	724	297	0	stimuli\gum\gum_11s.jpg	10	-1	0	0	gum_11s.jpg	1	0	0	60.5688203709433	60.6188375716738	0.0500172007305082
67082	50	298	0	0	spider	1513	298	0	stimuli\spider\spider_01b.jpg	0	-1	0	0	spider_01b.jpg	0	0	0	60.668857698096	60.718838327477	0.0499806293810252
67182	50	299	0	0	buffet	211	299	0	stimuli\buffet\buffet_09s.jpg	8	-1	0	0	buffet_09s.jpg	1	0	0	60.7688533339242	60.8188298185414	0.0499764846172184
67282	50	300	0	0	zucchini	1853	300	0	stimuli\zucchini\zucchini_06n.jpg	5	-1	0	0	zucchini_06n.jpg	0	0	0	60.868849457358	60.9188308181474	0.0499813607893884
67382	50	301	0	0	diskette	493	301	0	stimuli\diskette\diskette_11s.jpg	10	-1	0	0	diskette_11s.jpg	1	0	0	60.9688511884015	61.0188364501519	0.0499852617504075
67482	50	302	0	0	duffel_bag	529	302	0	stimuli\duffel_bag\duffel_bag_02s.jpg	1	-1	0	0	duffel_bag_02s.jpg	0	0	0	61.068855357531	61.1188413507189	0.0499859931878746
67582	50	303	0	0	cashew	281	303	0	stimuli\cashew\cashew_09s.jpg	8	-1	0	0	cashew_09s.jpg	1	0	0	61.1688646466646	61.2188401560416	0.0499755093769636
67682	50	304	0	0	gravel	709	304	0	stimuli\gravel\gravel_08s.jpg	7	-1	0	0	gravel_08s.jpg	0	0	0	61.2688583320123	61.3188392051961	0.0499808731838129
67782	50	305	0	0	locket	942	305	0	stimuli\locket\locket_04s.jpg	3	-1	0	0	locket_04s.jpg	1	0	0	61.3688634763821	61.4188423990854	0.0499789227033034
67882	50	306	0	0	pendulum	1144	306	0	stimuli\pendulum\pendulum_08s.jpg	7	-1	0	0	pendulum_08s.jpg	1	0	0	61.4688642321853	61.5188470558496	0.0499828236643225
67982	50	307	0	0	crutch	452	307	0	stimuli\crutch\crutch_08s.jpg	7	-1	0	0	crutch_08s.jpg	0	0	0	61.5688613308594	61.6188434230862	0.0499820922268555
68082	50	308	0	0	pedal	1136	308	0	stimuli\pedal\pedal_04s.jpg	3	-1	0	0	pedal_04s.jpg	1	0	0	61.6688708637957	61.7188502741337	0.0499794103379827
119334	50	309	0	0	lens	916	0	1	stimuli\lens\lens_05s.jpg	4	-1	1	0	lens_05s.jpg	0	0	0	112.920133246575	112.970112413081	0.0499791665060911
119434	50	310	0	0	flypaper	622	1	1	stimuli\flypaper\flypaper_01b.jpg	0	-1	1	0	flypaper_01b.jpg	0	0	0	113.020143267117	113.07010707364	0.0499638065230101
119534	50	311	0	0	bib	122	2	1	stimuli\bib\bib_07s.jpg	6	-1	1	0	bib_07s.jpg	0	0	0	113.120141828636	113.170121482777	0.0499796541407704
119634	50	312	0	0	plant	1194	3	1	stimuli\plant\plant_07s.jpg	6	-1	1	0	plant_07s.jpg	0	0	0	113.220144778723	113.270150032826	0.0500052541028708
119734	50	313	0	0	laptop	897	4	1	stimuli\laptop\laptop_02s.jpg	1	-1	1	0	laptop_02s.jpg	0	0	0	113.320162601187	113.37012835819	0.0499657570035197
119834	50	314	0	0	candelabra	252	5	1	stimuli\candelabra\candelabra_12s.jpg	11	-1	1	0	candelabra_12s.jpg	0	0	0	113.420150435093	113.470130820671	0.0499803855782375
119934	50	315	0	0	comb	389	6	1	stimuli\comb\comb_10s.jpg	9	-1	1	0	comb_10s.jpg	0	0	0	113.520151190925	113.570119629818	0.0499684388923924
120034	50	316	0	0	puppy	1258	7	1	stimuli\puppy\puppy_02s.jpg	1	-1	1	0	puppy_02s.jpg	0	0	0	113.620154384815	113.670136720844	0.0499823360296432
120134	50	317	0	0	birdcage	130	8	1	stimuli\birdcage\birdcage_05s.jpg	4	-1	1	0	birdcage_05s.jpg	0	0	0	113.720146363485	113.770127724274	0.0499813607893884
120234	50	318	0	0	walrus	1779	9	1	stimuli\walrus\walrus_10s.jpg	9	-1	1	0	walrus_10s.jpg	0	0	0	113.820139317424	113.870162125764	0.0500228083401453
120334	50	319	0	0	candy_cane	257	10	1	stimuli\candy_cane\candy_cane_05s.jpg	4	-1	1	0	candy_cane_05s.jpg	0	0	0	113.920178351254	113.970145814936	0.0499674636812415
120434	50	320	0	0	hood	791	11	1	stimuli\hood\hood_12s.jpg	11	-1	1	0	hood_12s.jpg	0	0	0	114.020182276581	114.070144376456	0.0499620998743922
120534	50	321	0	0	nut	1066	12	1	stimuli\nut\nut_09s.jpg	8	-1	1	0	nut_09s.jpg	0	0	0	114.120183520019	114.170150008431	0.0499664884118829
120634	50	322	0	0	toolbox	1677	13	1	stimuli\toolbox\toolbox_10s.jpg	9	-1	1	0	toolbox_10s.jpg	0	0	0	114.220187932951	114.270159541367	0.0499716084159445
120734	50	323	0	0	milk	1001	14	1	stimuli\milk\milk_11s.jpg	10	-1	1	0	milk_11s.jpg	0	0	0	114.32016942784	114.370143961976	0.0499745341367088
120834	50	324	0	0	grits	717	15	1	stimuli\grits\grits_07s.jpg	6	-1	1	0	grits_07s.jpg	0	0	0	114.420177010295	114.470180801523	0.0500037912279367
120934	50	325	0	0	lightbulb	927	16	1	stimuli\lightbulb\lightbulb_07s.jpg	6	-1	1	0	lightbulb_07s.jpg	0	0	0	114.520170695643	114.570154738351	0.049984042707365
121034	50	326	0	0	beaker	101	17	1	stimuli\beaker\beaker_10s.jpg	9	-1	1	0	beaker_10s.jpg	0	0	0	114.620178521931	114.670157200802	0.0499786788714118
121134	50	327	0	0	omelet	1076	18	1	stimuli\omelet\omelet_04n.jpg	3	-1	1	0	omelet_04n.jpg	0	0	0	114.720185129147	114.770162101369	0.0499769722227938
121234	50	328	0	0	keyhole	871	19	1	stimuli\keyhole\keyhole_09s.jpg	8	-1	1	0	keyhole_09s.jpg	0	0	0	114.820188323036	114.870168708614	0.0499803855782375
121334	50	329	0	0	bag	54	20	1	stimuli\bag\bag_08s.jpg	7	-1	1	0	bag_08s.jpg	0	0	0	114.920192248363	114.970172633941	0.0499803855782375
121434	50	330	0	0	water_filter	1789	21	1	stimuli\water_filter\water_filter_06s.jpg	5	-1	1	0	water_filter_06s.jpg	0	0	0	115.020195198478	115.07016826974	0.0499730712617747
121534	50	331	0	0	cupcake	461	22	1	stimuli\cupcake\cupcake_01b.jpg	0	-1	1	0	cupcake_01b.jpg	0	0	0	115.120194247604	115.170172438869	0.0499781912658364
121634	50	332	0	0	sandbox	1354	23	1	stimuli\sandbox\sandbox_04s.jpg	3	-1	1	0	sandbox_04s.jpg	0	0	0	115.220194271998	115.270174657548	0.0499803855491336
121734	50	333	0	0	footrest	633	24	1	stimuli\footrest\footrest_05s.jpg	4	-1	1	0	footrest_05s.jpg	0	0	0	115.320196490648	115.370174438111	0.0499779474630486
121834	50	334	0	0	pelican	1140	25	1	stimuli\pelican\pelican_12s.jpg	11	-1	1	0	pelican_12s.jpg	0	0	0	115.420203829301	115.470182508201	0.0499786789005157
121934	50	335	0	0	doll	499	26	1	stimuli\doll\doll_10s.jpg	9	-1	1	0	doll_10s.jpg	0	0	0	115.520207754627	115.570182044961	0.0499742903339211
122034	50	336	0	0	buckle	210	27	1	stimuli\buckle\buckle_04s.jpg	3	-1	1	0	buckle_04s.jpg	0	0	0	115.620206072344	115.670184751245	0.0499786789005157
122134	50	337	0	0	ice_cream	818	28	1	stimuli\ice_cream\ice_cream_02s.jpg	1	-1	1	0	ice_cream_02s.jpg	0	0	0	115.720213654829	115.770186969894	0.0499733150645625
122234	50	338	0	0	juice	854	29	1	stimuli\juice\juice_12s.jpg	11	-1	1	0	juice_12s.jpg	0	0	0	115.820208071586	115.870189188572	0.0499811169866007
122334	50	339	0	0	train	1698	30	1	stimuli\train\train_06s.jpg	5	-1	1	0	train_06s.jpg	0	0	0	115.92021370359	115.970190919616	0.0499772160255816
122434	50	340	0	0	cash_machine	279	31	1	stimuli\cash_machine\cash_machine_06s.jpg	5	-1	1	0	cash_machine_06s.jpg	0	0	0	116.020237377437	116.070217031578	0.0499796541407704
122534	50	341	0	0	shark	1409	32	1	stimuli\shark\shark_10s.jpg	9	-1	1	0	shark_10s.jpg	0	0	0	116.120221798046	116.170201939793	0.0499801417463459
122634	50	342	0	0	pacifier	1093	33	1	stimuli\pacifier\pacifier_07s.jpg	6	-1	1	0	pacifier_07s.jpg	0	0	0	116.220241570962	116.270222931751	0.0499813607893884
122734	50	343	0	0	dalmatian	471	34	1	stimuli\dalmatian\dalmatian_03s.jpg	2	-1	1	0	dalmatian_03s.jpg	0	0	0	116.320245496288	116.370207839966	0.0499623436771799
122834	50	344	0	0	chest1	319	35	1	stimuli\chest1\chest1_11s.jpg	10	-1	1	0	chest1_11s.jpg	0	0	0	116.420245276851	116.470229075756	0.0499837989045773
122934	50	345	0	0	tablet	1610	36	1	stimuli\tablet\tablet_12s.jpg	11	-1	1	0	tablet_12s.jpg	0	0	0	116.520254322182	116.570235682972	0.0499813607893884
123034	50	346	0	0	coffee_table	381	37	1	stimuli\coffee_table\coffee_table_08s.jpg	7	-1	1	0	coffee_table_08s.jpg	0	0	0	116.620252639899	116.670208400727	0.049955760827288
123134	50	347	0	0	sweeper	1594	38	1	stimuli\sweeper\sweeper_05s.jpg	4	-1	1	0	sweeper_05s.jpg	0	0	0	116.720230721461	116.770239145058	0.0500084235973191
123234	50	348	0	0	puck	1245	39	1	stimuli\puck\puck_04s.jpg	3	-1	1	0	puck_04s.jpg	0	0	0	116.820256589592	116.870239657059	0.0499830674671102
123334	50	349	0	0	marshmallow	977	40	1	stimuli\marshmallow\marshmallow_08s.jpg	7	-1	1	0	marshmallow_08s.jpg	0	0	0	116.920250274939	116.970218713861	0.0499684389214963
123434	50	350	0	0	bow3	176	41	1	stimuli\bow3\bow3_08s.jpg	7	-1	1	0	bow3_08s.jpg	0	0	0	117.020264684077	117.070225077274	0.0499603931966703
123534	50	351	0	0	fan	571	42	1	stimuli\fan\fan_02s.jpg	1	-1	1	0	fan_02s.jpg	0	0	0	117.120262026554	117.170253627322	0.0499916007684078
123634	50	352	0	0	icepick	822	43	1	stimuli\icepick\icepick_06s.jpg	5	-1	1	0	icepick_06s.jpg	0	0	0	117.220254249027	117.270247800276	0.0499935512489174
123734	50	353	0	0	tweezers	1739	44	1	stimuli\tweezers\tweezers_05s.jpg	4	-1	1	0	tweezers_05s.jpg	0	0	0	117.320267195289	117.370232952322	0.0499657570326235
123834	50	354	0	0	telephone_pole	1639	45	1	stimuli\telephone_pole\telephone_pole_08s.jpg	7	-1	1	0	telephone_pole_08s.jpg	0	0	0	117.420257467311	117.470248336671	0.0499908693600446
123934	50	355	0	0	tongs	1674	46	1	stimuli\tongs\tongs_06s.jpg	5	-1	1	0	tongs_06s.jpg	0	0	0	117.520276996423	117.570253481041	0.0499764846172184
124034	50	356	0	0	pinecone	1183	47	1	stimuli\pinecone\pinecone_10s.jpg	9	-1	1	0	pinecone_10s.jpg	0	0	0	117.620259954158	117.670239120693	0.049979166535195
124134	50	357	0	0	scone	1380	48	1	stimuli\scone\scone_05s.jpg	4	-1	1	0	scone_05s.jpg	0	0	0	117.720260466158	117.770262550737	0.0500020845793188
124234	50	358	0	0	air_conditioner	4	49	1	stimuli\air_conditioner\air_conditioner_07s.jpg	6	-1	1	0	air_conditioner_07s.jpg	0	0	0	117.820264879119	117.870242095145	0.0499772160255816
124334	50	359	0	0	dog	495	50	1	stimuli\dog\dog_12s.jpg	11	-1	1	0	dog_12s.jpg	0	0	0	117.920267829206	117.970270157588	0.0500023283821065
124434	50	360	0	0	bottle_opener	171	51	1	stimuli\bottle_opener\bottle_opener_09s.jpg	8	-1	1	0	bottle_opener_09s.jpg	0	0	0	118.020272242138	118.07024726391	0.0499750217713881
124534	50	361	0	0	emerald	555	52	1	stimuli\emerald\emerald_10s.jpg	9	-1	1	0	emerald_10s.jpg	0	0	0	118.120268365601	118.170246313064	0.0499779474630486
124634	50	362	0	0	doorhandle	508	53	1	stimuli\doorhandle\doorhandle_04s.jpg	3	-1	1	0	doorhandle_04s.jpg	0	0	0	118.220268146164	118.270249263151	0.0499811169866007
124734	50	363	0	0	memory_stick	995	54	1	stimuli\memory_stick\memory_stick_04s.jpg	3	-1	1	0	memory_stick_04s.jpg	0	0	0	118.320295233367	118.370273424633	0.0499781912658364
124834	50	364	0	0	chips	335	55	1	stimuli\chips\chips_10s.jpg	9	-1	1	0	chips_10s.jpg	0	0	0	118.420265756838	118.470261502371	0.0499957455322146
124934	50	365	0	0	stair	1532	56	1	stimuli\stair\stair_09s.jpg	8	-1	1	0	stair_09s.jpg	0	0	0	118.520284310711	118.570256894367	0.0499725836561993
125034	50	366	0	0	hummus	812	57	1	stimuli\hummus\hummus_12s.jpg	11	-1	1	0	hummus_12s.jpg	0	0	0	118.620281165553	118.670291052025	0.0500098864722531
125134	50	367	0	0	urn	1749	58	1	stimuli\urn\urn_01b.jpg	0	-1	1	0	urn_01b.jpg	0	0	0	118.720311909885	118.770264501218	0.0499525913328398
125234	50	368	0	0	macadamia	951	59	1	stimuli\macadamia\macadamia_11s.jpg	10	-1	1	0	macadamia_11s.jpg	0	0	0	118.820281458145	118.870264037978	0.0499825798324309
125334	50	369	0	0	wheel	1806	60	1	stimuli\wheel\wheel_08s.jpg	7	-1	1	0	wheel_08s.jpg	0	0	0	118.920283920597	118.970288930897	0.0500050103000831
125434	50	370	0	0	awning	44	61	1	stimuli\awning\awning_10s.jpg	9	-1	1	0	awning_10s.jpg	0	0	0	119.020308569714	119.070292124787	0.0499835550726857
125534	50	371	0	0	catapult	285	62	1	stimuli\catapult\catapult_05s.jpg	4	-1	1	0	catapult_05s.jpg	0	0	0	119.120298841735	119.170279471087	0.0499806293519214
125634	50	372	0	0	bread	194	63	1	stimuli\bread\bread_07s.jpg	6	-1	1	0	bread_07s.jpg	0	0	0	119.220299353736	119.270279251679	0.0499798979435582
125734	50	373	0	0	cleat	353	64	1	stimuli\cleat\cleat_10s.jpg	9	-1	1	0	cleat_10s.jpg	0	0	0	119.320298890496	119.370279276045	0.0499803855491336
125834	50	374	0	0	kite	874	65	1	stimuli\kite\kite_07s.jpg	6	-1	1	0	kite_07s.jpg	0	0	0	119.42030257202	119.470283688977	0.0499811169574969
125934	50	375	0	0	arrow	38	66	1	stimuli\arrow\arrow_08s.jpg	7	-1	1	1	arrow_08s.jpg	0	0	0	119.520306497347	119.570284932415	0.0499784350686241
126034	50	376	0	0	eggplant	550	67	1	stimuli\eggplant\eggplant_08s.jpg	7	-1	1	0	eggplant_08s.jpg	0	0	0	119.620307009347	119.670289832982	0.0499828236352187
126134	50	377	0	0	puffin	1248	68	1	stimuli\puffin\puffin_05s.jpg	4	-1	1	0	puffin_05s.jpg	0	0	0	119.720308008953	119.770286931656	0.0499789227033034
126234	50	378	0	0	minivan	1003	69	1	stimuli\minivan\minivan_10s.jpg	9	-1	1	0	minivan_10s.jpg	1	0.350157464126823	1	119.820309496194	119.870287931262	0.0499784350686241
126334	50	379	0	0	popsicle	1225	70	1	stimuli\popsicle\popsicle_03s.jpg	2	-1	1	0	popsicle_03s.jpg	0	0	0	119.92031805389	119.970297464199	0.0499794103088789
126434	50	380	0	0	glue	681	71	1	stimuli\glue\glue_12s.jpg	11	-1	1	0	glue_12s.jpg	0	0	0	120.020317103044	120.070296025748	0.0499789227033034
126534	50	381	0	0	doorknocker	510	72	1	stimuli\doorknocker\doorknocker_07s.jpg	6	-1	1	0	doorknocker_07s.jpg	0	0	0	120.120319321693	120.170294587268	0.0499752655741759
126634	50	382	0	0	footprint	632	73	1	stimuli\footprint\footprint_01b.jpg	0	-1	1	0	footprint_01b.jpg	0	0	0	120.220320077497	120.270329963969	0.0500098864722531
126734	50	383	0	0	coat	369	74	1	stimuli\coat\coat_06s.jpg	5	-1	1	0	coat_06s.jpg	0	0	0	120.320327903784	120.370299756003	0.0499718522187322
126834	50	384	0	0	windsock	1822	75	1	stimuli\windsock\windsock_03s.jpg	2	-1	1	0	windsock_03s.jpg	0	0	0	120.420324514824	120.470306363248	0.0499818484240677
126934	50	385	0	0	paper_plate	1114	76	1	stimuli\paper_plate\paper_plate_12s.jpg	11	-1	1	0	paper_plate_12s.jpg	0	0	0	120.520325758262	120.570326379966	0.0500006217043847
127034	50	386	0	0	flyswatter	623	77	1	stimuli\flyswatter\flyswatter_10n.jpg	9	-1	1	0	flyswatter_10n.jpg	0	0	0	120.620347481658	120.670322015794	0.0499745341367088
127134	50	387	0	0	vending_machine	1757	78	1	stimuli\vending_machine\vending_machine_09s.jpg	8	-1	1	0	vending_machine_09s.jpg	0	0	0	120.720344824134	120.7703230154	0.0499781912658364
127234	50	388	0	0	straw1	1568	79	1	stimuli\straw1\straw1_06s.jpg	5	-1	1	0	straw1_06s.jpg	0	0	0	120.820327538066	120.870316700748	0.0499891626823228
127334	50	389	0	0	blowtorch	148	80	1	stimuli\blowtorch\blowtorch_06s.jpg	5	-1	1	0	blowtorch_06s.jpg	0	0	0	120.920341215766	120.970318919426	0.0499777036602609
127434	50	390	0	0	beachball	99	81	1	stimuli\beachball\beachball_11s.jpg	10	-1	1	0	beachball_11s.jpg	0	0	0	121.020337095397	121.070316018071	0.0499789226741996
127534	50	391	0	0	saw	1366	82	1	stimuli\saw\saw_01s.jpg	0	-1	1	0	saw_01s.jpg	0	0	0	121.120340289286	121.17030702153	0.0499667322437745
127634	50	392	0	0	sword	1602	83	1	stimuli\sword\sword_01b.jpg	0	-1	1	0	sword_01b.jpg	0	0	0	121.220345677459	121.270322649681	0.0499769722227938
127734	50	393	0	0	tie	1658	84	1	stimuli\tie\tie_07s.jpg	6	-1	1	0	tie_07s.jpg	0	0	0	121.320346920897	121.370330719772	0.0499837988754734
127834	50	394	0	0	tennis_ball	1642	85	1	stimuli\tennis_ball\tennis_ball_03s.jpg	2	-1	1	0	tennis_ball_03s.jpg	0	0	0	121.420350114786	121.470320991793	0.0499708770075813
127934	50	395	0	0	birdbath	129	86	1	stimuli\birdbath\birdbath_07s.jpg	6	-1	1	0	birdbath_07s.jpg	0	0	0	121.520371838182	121.570326623769	0.0499547855870333
128034	50	396	0	0	barbell	72	87	1	stimuli\barbell\barbell_03s.jpg	2	-1	1	0	barbell_03s.jpg	0	0	0	121.620354064507	121.670334450057	0.0499803855491336
128134	50	397	0	0	tadpole	1614	88	1	stimuli\tadpole\tadpole_03s.jpg	2	-1	1	0	tadpole_03s.jpg	0	0	0	121.720355064113	121.770335693494	0.0499806293810252
128234	50	398	0	0	hip	780	89	1	stimuli\hip\hip_04s.jpg	3	-1	1	0	hip_04s.jpg	0	0	0	121.820385077008	121.870357904496	0.0499728274880908
128334	50	399	0	0	speedometer	1512	90	1	stimuli\speedometer\speedometer_07s.jpg	6	-1	1	0	speedometer_07s.jpg	0	0	0	121.920361939527	121.970346957474	0.0499850179476198
128434	50	400	0	0	mistletoe	1007	91	1	stimuli\mistletoe\mistletoe_10s.jpg	9	-1	1	0	mistletoe_10s.jpg	0	0	0	122.020364158205	122.0703591723	0.0499950140947476
128534	50	401	0	0	forklift	635	92	1	stimuli\forklift\forklift_12s.jpg	11	-1	1	0	forklift_12s.jpg	0	0	0	122.120385637769	122.170347006235	0.0499613684660289
128634	50	402	0	0	headband	762	93	1	stimuli\headband\headband_08s.jpg	7	-1	1	0	headband_08s.jpg	0	0	0	122.220387856447	122.270365560107	0.0499777036602609
128734	50	403	0	0	golf_cart	689	94	1	stimuli\golf_cart\golf_cart_08s.jpg	7	-1	1	0	golf_cart_08s.jpg	0	0	0	122.320391294168	122.370348517841	0.0499572236731183
128834	50	404	0	0	stained_glass	1531	95	1	stimuli\stained_glass\stained_glass_09s.jpg	8	-1	1	0	stained_glass_09s.jpg	0	0	0	122.420375227142	122.470355856494	0.0499806293519214
128934	50	405	0	0	champagne	304	96	1	stimuli\champagne\champagne_08s.jpg	7	-1	1	0	champagne_08s.jpg	0	0	0	122.520391830534	122.570371972281	0.0499801417463459
129034	50	406	0	0	camcorder	244	97	1	stimuli\camcorder\camcorder_10s.jpg	9	-1	1	0	camcorder_10s.jpg	0	0	0	122.620383565401	122.670366145234	0.0499825798324309
129134	50	407	0	0	puddle	1247	98	1	stimuli\puddle\puddle_07s.jpg	6	-1	1	0	puddle_07s.jpg	0	0	0	122.720387003123	122.770352516323	0.0499655132007319
129234	50	408	0	0	beer	113	99	1	stimuli\beer\beer_08s.jpg	7	-1	1	0	beer_08s.jpg	0	0	0	122.820390440815	122.870366193994	0.0499757531797513
129334	50	409	0	0	bathmat	89	100	1	stimuli\bathmat\bathmat_02s.jpg	1	-1	1	0	bathmat_02s.jpg	0	0	0	122.920387295686	122.970361342188	0.0499740465020295
129434	50	410	0	0	hamster	743	101	1	stimuli\hamster\hamster_06s.jpg	5	-1	1	0	hamster_06s.jpg	0	0	0	123.020386588643	123.070371118956	0.0499845303129405
129534	50	411	0	0	coaster	368	102	1	stimuli\coaster\coaster_02s.jpg	1	-1	1	0	coaster_02s.jpg	0	0	0	123.120378567313	123.17036529191	0.0499867245962378
129634	50	412	0	0	cake_mix	238	103	1	stimuli\cake_mix\cake_mix_08s.jpg	7	-1	1	0	cake_mix_08s.jpg	0	0	0	123.220380054554	123.27037141152	0.0499913569656201
129734	50	413	0	0	rickshaw	1310	104	1	stimuli\rickshaw\rickshaw_10s.jpg	9	-1	1	0	rickshaw_10s.jpg	0	0	0	123.320424452191	123.37037094828	0.0499464960885234
129834	50	414	0	0	goldfish	688	105	1	stimuli\goldfish\goldfish_03s.jpg	2	-1	1	0	goldfish_03s.jpg	0	0	0	123.420399608032	123.470377311693	0.0499777036602609
129934	50	415	0	0	squirt_gun	1530	106	1	stimuli\squirt_gun\squirt_gun_02s.jpg	1	-1	1	0	squirt_gun_02s.jpg	0	0	0	123.520376226748	123.570402448415	0.0500262216664851
130034	50	416	0	0	guardrail	720	107	1	stimuli\guardrail\guardrail_03s.jpg	2	-1	1	0	guardrail_03s.jpg	0	0	0	123.620396487298	123.670381017611	0.0499845303129405
130134	50	417	0	0	drawer	516	108	1	stimuli\drawer\drawer_05s.jpg	4	-1	1	0	drawer_05s.jpg	0	0	0	123.720405776403	123.770382504823	0.0499767284200061
130234	50	418	0	0	rat	1285	109	1	stimuli\rat\rat_01b.jpg	0	-1	1	0	rat_01b.jpg	0	0	0	123.820408970321	123.870413005352	0.0500040350307245
130334	50	419	0	0	maggot	955	110	1	stimuli\maggot\maggot_04s.jpg	3	-1	1	0	maggot_04s.jpg	0	0	0	123.920427036588	123.970376945974	0.0499499093857594
130434	50	420	0	0	sweater	1592	111	1	stimuli\sweater\sweater_07s.jpg	6	-1	1	0	sweater_07s.jpg	0	0	0	124.020400485751	124.070394037	0.0499935512489174
130534	50	421	0	0	panda	1105	112	1	stimuli\panda\panda_02s.jpg	1	-1	1	0	panda_02s.jpg	0	0	0	124.120438544371	124.170394549001	0.0499560046300758
130634	50	422	0	0	rhubarb	1307	113	1	stimuli\rhubarb\rhubarb_10n.jpg	9	-1	1	0	rhubarb_10n.jpg	0	0	0	124.220418820216	124.270399205765	0.0499803855491336
130734	50	423	0	0	pinball	1178	114	1	stimuli\pinball\pinball_12s.jpg	11	-1	1	0	pinball_12s.jpg	0	0	0	124.320419332216	124.370402643457	0.0499833112407941
130834	50	424	0	0	coyote	427	115	1	stimuli\coyote\coyote_05s.jpg	4	-1	1	0	coyote_05s.jpg	0	0	0	124.420422526106	124.470403643092	0.0499811169866007
130934	50	425	0	0	banner	70	116	1	stimuli\banner\banner_03s.jpg	2	-1	1	0	banner_03s.jpg	0	0	0	124.520427670475	124.570424147445	0.0499964769696817
131034	50	426	0	0	pony	1220	117	1	stimuli\pony\pony_04s.jpg	3	-1	1	0	pony_04s.jpg	0	0	0	124.620420380583	124.670407348982	0.0499869683990255
131134	50	427	0	0	trident	1712	118	1	stimuli\trident\trident_10s.jpg	9	-1	1	0	trident_10s.jpg	0	0	0	124.720432107802	124.7703973772	0.0499652693979442
131234	50	428	0	0	enchilada	556	119	1	stimuli\enchilada\enchilada_06s.jpg	5	-1	1	0	enchilada_06s.jpg	0	0	0	124.820429694082	124.870439580554	0.0500098864722531
131334	50	429	0	0	pin	1177	120	1	stimuli\pin\pin_04s.jpg	3	-1	1	0	pin_04s.jpg	0	0	0	124.92045726892	124.97041327355	0.0499560046300758
131434	50	430	0	0	stake	1533	121	1	stimuli\stake\stake_03s.jpg	2	-1	1	0	stake_03s.jpg	0	0	0	125.020442420937	125.070445968362	0.050003547425149
131534	50	431	0	0	fruit	645	122	1	stimuli\fruit\fruit_01b.jpg	0	-1	1	0	fruit_01b.jpg	0	0	0	125.120460243372	125.170422830881	0.0499625875090715
131634	50	432	0	0	arm	36	123	1	stimuli\arm\arm_04s.jpg	3	-1	1	0	arm_04s.jpg	0	0	0	125.220459780132	125.270443579037	0.0499837989045773
131734	50	433	0	0	cranberry	430	124	1	stimuli\cranberry\cranberry_07n.jpg	6	-1	1	0	cranberry_07n.jpg	0	0	0	125.320461267373	125.370441409119	0.0499801417463459
131834	50	434	0	0	pallet	1101	125	1	stimuli\pallet\pallet_05s.jpg	4	-1	1	0	pallet_05s.jpg	0	0	0	125.420467630785	125.470446553489	0.0499789227033034
131934	50	435	0	0	mirror	1005	126	1	stimuli\mirror\mirror_10s.jpg	9	-1	1	0	mirror_10s.jpg	0	0	0	125.520450344717	125.570430486463	0.0499801417463459
132034	50	436	0	0	blowfish	146	127	1	stimuli\blowfish\blowfish_07s.jpg	6	-1	1	0	blowfish_07s.jpg	0	0	0	125.620458902442	125.670435630833	0.0499767283909023
132134	50	437	0	0	bacon	51	128	1	stimuli\bacon\bacon_07s.jpg	6	-1	1	0	bacon_07s.jpg	0	0	0	125.720460877288	125.770449552336	0.0499886750476435
132234	50	438	0	0	melon	994	129	1	stimuli\melon\melon_01b.jpg	0	-1	1	0	melon_01b.jpg	0	0	0	125.820448955026	125.870432997704	0.0499840426782612
132334	50	439	0	0	curtain	465	130	1	stimuli\curtain\curtain_08s.jpg	7	-1	1	0	curtain_08s.jpg	0	0	0	125.920459463203	125.970424976374	0.0499655131716281
132434	50	440	0	0	scaffold	1369	131	1	stimuli\scaffold\scaffold_04s.jpg	3	-1	1	0	scaffold_04s.jpg	0	0	0	126.020482405642	126.070442311204	0.049959905561991
132534	50	441	0	0	porcupine	1226	132	1	stimuli\porcupine\porcupine_02s.jpg	1	-1	1	0	porcupine_02s.jpg	0	0	0	126.120469751942	126.170444773685	0.0499750217422843
132634	50	442	0	0	clothesline	362	133	1	stimuli\clothesline\clothesline_08s.jpg	7	-1	1	0	clothesline_08s.jpg	0	0	0	126.220470995351	126.270478931343	0.0500079359917436
132734	50	443	0	0	coffee_filter	379	134	1	stimuli\coffee_filter\coffee_filter_02s.jpg	1	-1	1	0	coffee_filter_02s.jpg	0	0	0	126.320474920678	126.370447748166	0.0499728274880908
132834	50	444	0	0	christmas_tree	341	135	1	stimuli\christmas_tree\christmas_tree_10s.jpg	9	-1	1	0	christmas_tree_10s.jpg	0	0	0	126.420471775549	126.470450942055	0.0499791665060911
132934	50	445	0	0	reindeer	1301	136	1	stimuli\reindeer\reindeer_05s.jpg	4	-1	1	0	reindeer_05s.jpg	0	0	0	126.520477651356	126.570453648339	0.0499759969825391
133034	50	446	0	0	hoe	784	137	1	stimuli\hoe\hoe_11s.jpg	10	-1	1	0	hoe_11s.jpg	0	0	0	126.620476944314	126.670458305103	0.0499813607893884
133134	50	447	0	0	swing	1598	138	1	stimuli\swing\swing_01b.jpg	0	-1	1	0	swing_01b.jpg	0	0	0	126.720468679181	126.77046125519	0.0499925760086626
133234	50	448	0	0	paddle	1094	139	1	stimuli\paddle\paddle_09s.jpg	8	-1	1	0	paddle_09s.jpg	0	0	0	126.820488695899	126.87046932528	0.0499806293810252
133334	50	449	0	0	blinder	141	140	1	stimuli\blinder\blinder_03s.jpg	2	-1	1	0	blinder_03s.jpg	0	0	0	126.920489939337	126.970455452538	0.0499655132007319
133434	50	450	0	0	coil	384	141	1	stimuli\coil\coil_06s.jpg	5	-1	1	0	coil_06s.jpg	0	0	0	127.020493864664	127.070462547388	0.049968682724284
133534	50	451	0	0	dragonfly	514	142	1	stimuli\dragonfly\dragonfly_08s.jpg	7	-1	1	0	dragonfly_08s.jpg	0	0	0	127.120492913789	127.170465253643	0.0499723398534115
133634	50	452	0	0	bucket	209	143	1	stimuli\bucket\bucket_10s.jpg	9	-1	1	0	bucket_10s.jpg	0	0	0	127.220492450579	127.270473811368	0.0499813607893884
133734	50	453	0	0	chisel	336	144	1	stimuli\chisel\chisel_03s.jpg	2	-1	1	0	chisel_03s.jpg	0	0	0	127.320495888271	127.370460670034	0.0499647817632649
133834	50	454	0	0	roller	1324	145	1	stimuli\roller\roller_10s.jpg	9	-1	1	0	roller_10s.jpg	0	0	0	127.420499813597	127.470479711541	0.0499798979435582
133934	50	455	0	0	microphone	998	146	1	stimuli\microphone\microphone_02n.jpg	1	-1	1	0	microphone_02n.jpg	0	0	0	127.520504470362	127.570488269237	0.0499837988754734
134034	50	456	0	0	ostrich	1084	147	1	stimuli\ostrich\ostrich_08s.jpg	7	-1	1	0	ostrich_08s.jpg	0	0	0	127.62050571377	127.670485367911	0.0499796541407704
134134	50	457	0	0	tuba	1723	148	1	stimuli\tuba\tuba_01b.jpg	0	-1	1	0	tuba_01b.jpg	0	0	0	127.720507688646	127.770483198023	0.0499755093769636
134234	50	458	0	0	jigsaw_puzzle	851	149	1	stimuli\jigsaw_puzzle\jigsaw_puzzle_02s.jpg	1	-1	1	0	jigsaw_puzzle_02s.jpg	0	0	0	127.820508200646	127.87051345472	0.050005254073767
134334	50	459	0	0	wasp	1785	150	1	stimuli\wasp\wasp_01b.jpg	0	-1	1	0	wasp_01b.jpg	0	0	0	127.920509444055	127.970484465826	0.0499750217713881
134434	50	460	0	0	pajamas	1099	151	1	stimuli\pajamas\pajamas_07s.jpg	6	-1	1	0	pajamas_07s.jpg	0	0	0	128.020507761772	128.070484246389	0.0499764846172184
134534	50	461	0	0	ukulele	1742	152	1	stimuli\ukulele\ukulele_02s.jpg	1	-1	1	0	ukulele_02s.jpg	0	0	0	128.120513393776	128.170490365999	0.0499769722227938
134634	50	462	0	0	pool_table	1222	153	1	stimuli\pool_table\pool_table_09s.jpg	8	-1	1	0	pool_table_09s.jpg	0	0	0	128.22051414958	128.270484538953	0.049970389372902
134734	50	463	0	0	orange_rind	1079	154	1	stimuli\orange_rind\orange_rind_06s.jpg	5	-1	1	0	orange_rind_06s.jpg	0	0	0	128.320514173945	128.370494071889	0.0499798979435582
134834	50	464	0	0	lantern	895	155	1	stimuli\lantern\lantern_02s.jpg	1	-1	1	0	lantern_02s.jpg	0	0	0	128.420523706911	128.470492877241	0.0499691703298595
134934	50	465	0	0	gravestone	710	156	1	stimuli\gravestone\gravestone_06s.jpg	5	-1	1	0	gravestone_06s.jpg	0	0	0	128.52051739223	128.57049607113	0.0499786789005157
135034	50	466	0	0	sim_card	1446	157	1	stimuli\sim_card\sim_card_07s.jpg	6	-1	1	0	sim_card_07s.jpg	0	0	0	128.620527656603	128.670498289808	0.0499706332047936
135134	50	467	0	0	collar	387	158	1	stimuli\collar\collar_05s.jpg	4	-1	1	1	collar_05s.jpg	0	0	0	128.720530362887	128.770510260831	0.0499798979435582
135234	50	468	0	0	toothpick	1681	159	1	stimuli\toothpick\toothpick_05s.jpg	4	-1	1	0	toothpick_05s.jpg	0	0	0	128.820531850128	128.870512723282	0.0499808731547091
135334	50	469	0	0	oar	1068	160	1	stimuli\oar\oar_04s.jpg	3	-1	1	0	oar_04s.jpg	0	0	0	128.920525535475	128.970503482939	0.0499779474630486
135434	50	470	0	0	checkers	311	161	1	stimuli\checkers\checkers_12s.jpg	11	-1	1	0	checkers_12s.jpg	0	0	0	129.020531898888	129.070506676828	0.0499747779394966
135534	50	471	0	0	ready_meal	1292	162	1	stimuli\ready_meal\ready_meal_05s.jpg	4	-1	1	0	ready_meal_05s.jpg	1	0.392219660338014	1	129.120528022322	129.170520110725	0.0499920884030871
135634	50	472	0	0	sail	1346	163	1	stimuli\sail\sail_07s.jpg	6	-1	1	0	sail_07s.jpg	0	0	0	129.220548526675	129.270526961744	0.0499784350686241
135734	50	473	0	0	polaroid	1212	164	1	stimuli\polaroid\polaroid_09s.jpg	8	-1	1	0	polaroid_09s.jpg	0	0	0	129.320548063435	129.370527961379	0.0499798979435582
135834	50	474	0	0	confetti	396	165	1	stimuli\confetti\confetti_09s.jpg	8	-1	1	0	confetti_09s.jpg	0	0	0	129.420550282084	129.470517501963	0.0499672198784538
135934	50	475	0	0	anteater	25	166	1	stimuli\anteater\anteater_05s.jpg	4	-1	1	0	anteater_05s.jpg	0	0	0	129.520540554106	129.570522890135	0.0499823360296432
136034	50	476	0	0	bassinet	85	167	1	stimuli\bassinet\bassinet_01b.jpg	0	-1	1	0	bassinet_01b.jpg	0	0	0	129.620555450849	129.670532179269	0.0499767284200061
136134	50	477	0	0	snowsuit	1486	168	1	stimuli\snowsuit\snowsuit_05s.jpg	4	-1	1	0	snowsuit_05s.jpg	0	0	0	129.720554256171	129.77055999788	0.0500057417084463
136234	50	478	0	0	football	629	169	1	stimuli\football\football_07s.jpg	6	-1	1	0	football_07s.jpg	0	0	0	129.820563057699	129.870542224206	0.0499791665060911
136334	50	479	0	0	spur	1525	170	1	stimuli\spur\spur_07s.jpg	6	-1	1	0	spur_07s.jpg	0	0	0	129.920561131614	129.970536397159	0.049975265545072
136434	50	480	0	0	magnifying_glass	958	171	1	stimuli\magnifying_glass\magnifying_glass_11s.jpg	10	-1	1	0	magnifying_glass_11s.jpg	0	0	0	130.020553841692	130.070527644421	0.0499738027283456
136534	50	481	0	0	coffeemaker	382	172	1	stimuli\coffeemaker\coffeemaker_10s.jpg	9	-1	1	0	coffeemaker_10s.jpg	0	0	0	130.120568982267	130.170541322121	0.0499723398534115
136634	50	482	0	0	painting	1098	173	1	stimuli\painting\painting_02s.jpg	1	-1	1	0	painting_02s.jpg	0	0	0	130.220572419959	130.27055109886	0.0499786789005157
136734	50	483	0	0	bison	134	174	1	stimuli\bison\bison_07n.jpg	6	-1	1	0	bison_07n.jpg	0	0	0	130.320570981479	130.370546490856	0.0499755093769636
136834	50	484	0	0	ravioli	1289	175	1	stimuli\ravioli\ravioli_10s.jpg	9	-1	1	0	ravioli_10s.jpg	0	0	0	130.420571249677	130.470553341904	0.0499820922268555
136934	50	485	0	0	ink	829	176	1	stimuli\ink\ink_04s.jpg	3	-1	1	0	ink_04s.jpg	0	0	0	130.520600043528	130.570577990991	0.0499779474630486
137034	50	486	0	0	visor	1766	177	1	stimuli\visor\visor_08s.jpg	7	-1	1	0	visor_08s.jpg	0	0	0	130.620580563176	130.670564605884	0.049984042707365
137134	50	487	0	0	backpack	49	178	1	stimuli\backpack\backpack_09s.jpg	8	-1	1	0	backpack_09s.jpg	0	0	0	130.720580831374	130.770563167403	0.0499823360296432
137234	50	488	0	0	photograph	1164	179	1	stimuli\photograph\photograph_05s.jpg	4	-1	1	0	photograph_05s.jpg	0	0	0	130.820599141443	130.870584890799	0.049985749355983
137334	50	489	0	0	rack2	1269	180	1	stimuli\rack2\rack2_01s.jpg	0	-1	1	0	rack2_01s.jpg	0	0	0	130.920606480096	130.970587597083	0.0499811169866007
137434	50	490	0	0	rope	1332	181	1	stimuli\rope\rope_09s.jpg	8	-1	1	0	rope_09s.jpg	0	0	0	131.020595776878	131.070571286255	0.0499755093769636
137534	50	491	0	0	lemon	914	182	1	stimuli\lemon\lemon_11s.jpg	10	-1	1	0	lemon_11s.jpg	0	0	0	131.120591412706	131.170571066818	0.0499796541116666
137634	50	492	0	0	pita	1189	183	1	stimuli\pita\pita_11s.jpg	10	-1	1	0	pita_11s.jpg	0	0	0	131.220597044681	131.270593277848	0.0499962331668939
137734	50	493	0	0	drum	522	184	1	stimuli\drum\drum_10n.jpg	9	-1	1	0	drum_10n.jpg	0	0	0	131.320597556682	131.370574285102	0.0499767284200061
137834	50	494	0	0	wafer	1769	185	1	stimuli\wafer\wafer_05s.jpg	4	-1	1	0	wafer_05s.jpg	0	0	0	131.420598068682	131.470580648514	0.0499825798324309
137934	50	495	0	0	peppermint	1152	186	1	stimuli\peppermint\peppermint_10s.jpg	9	-1	1	0	peppermint_10s.jpg	0	0	0	131.52059175403	131.570565800532	0.0499740465020295
138034	50	496	0	0	face_mask	570	187	1	stimuli\face_mask\face_mask_05s.jpg	4	-1	1	0	face_mask_05s.jpg	0	0	0	131.620616890752	131.670598007739	0.0499811169866007
138134	50	497	0	0	licorice	922	188	1	stimuli\licorice\licorice_08s.jpg	7	-1	1	0	licorice_08s.jpg	0	0	0	131.720615939907	131.770599251147	0.0499833112407941
138234	50	498	0	0	hook2	794	189	1	stimuli\hook2\hook2_10s.jpg	9	-1	1	0	hook2_10s.jpg	0	0	0	131.820622303319	131.870600738388	0.0499784350686241
138334	50	499	0	0	pill	1174	190	1	stimuli\pill\pill_09s.jpg	8	-1	1	0	pill_09s.jpg	0	0	0	131.920623059123	131.970602957066	0.0499798979435582
138434	50	500	0	0	stove1	1563	191	1	stimuli\stove1\stove1_10s.jpg	9	-1	1	0	stove1_10s.jpg	0	0	0	132.020626496844	132.070600299543	0.0499738026992418
138534	50	501	0	0	branch	192	192	1	stimuli\branch\branch_12s.jpg	11	-1	1	0	branch_12s.jpg	0	0	0	132.120614574553	132.170589596324	0.0499750217713881
138634	50	502	0	0	meat_grinder	988	193	1	stimuli\meat_grinder\meat_grinder_01b.jpg	0	-1	1	0	meat_grinder_01b.jpg	0	0	0	132.220613379905	132.270597910217	0.0499845303129405
138734	50	503	0	0	card	271	194	1	stimuli\card\card_11s.jpg	10	-1	1	0	card_11s.jpg	0	0	0	132.320617549034	132.370594521257	0.0499769722227938
138834	50	504	0	0	parfait	1119	195	1	stimuli\parfait\parfait_09s.jpg	8	-1	1	0	parfait_09s.jpg	0	0	0	132.420627325773	132.470602347545	0.0499750217713881
138934	50	505	0	0	scale	1371	196	1	stimuli\scale\scale_05s.jpg	4	-1	1	0	scale_05s.jpg	0	0	0	132.520628813014	132.570600909065	0.0499720960506238
139034	50	506	0	0	wetsuit	1803	197	1	stimuli\wetsuit\wetsuit_10s.jpg	9	-1	1	0	wetsuit_10s.jpg	0	0	0	132.62062420501	132.670611417241	0.0499872122309171
139134	50	507	0	0	siren	1448	198	1	stimuli\siren\siren_11s.jpg	10	-1	1	0	siren_11s.jpg	0	0	0	132.720631056058	132.770613392087	0.0499823360296432
139234	50	508	0	0	battery	97	199	1	stimuli\battery\battery_11s.jpg	10	-1	1	0	battery_11s.jpg	0	0	0	132.820631080453	132.870611709805	0.0499806293519214
139334	50	509	0	0	hot_chocolate	803	200	1	stimuli\hot_chocolate\hot_chocolate_03s.jpg	2	-1	1	0	hot_chocolate_03s.jpg	0	0	0	132.920634274342	132.970611246565	0.0499769722227938
139434	50	510	0	0	wreath	1839	201	1	stimuli\wreath\wreath_12s.jpg	11	-1	1	0	wreath_12s.jpg	0	0	0	133.02066648152	133.070640284248	0.0499738027283456
139534	50	511	0	0	crepe	440	202	1	stimuli\crepe\crepe_12s.jpg	11	-1	1	0	crepe_12s.jpg	0	0	0	133.120643100236	133.170624704828	0.0499816045921762
139634	50	512	0	0	diaper	485	203	1	stimuli\diaper\diaper_12s.jpg	11	-1	1	0	diaper_12s.jpg	0	0	0	133.220662385545	133.270647403464	0.049985017918516
139734	50	513	0	0	breadbox	195	204	1	stimuli\breadbox\breadbox_08s.jpg	7	-1	1	0	breadbox_08s.jpg	0	0	0	133.320664360392	133.370632799284	0.0499684388923924
139834	50	514	0	0	bookmark	166	205	1	stimuli\bookmark\bookmark_04s.jpg	3	-1	1	0	bookmark_04s.jpg	0	0	0	133.420657070499	133.470633798919	0.0499767284200061
139934	50	515	0	0	grille	715	206	1	stimuli\grille\grille_01b.jpg	0	-1	1	0	grille_01b.jpg	0	0	0	133.520675380569	133.570659179444	0.0499837988754734
140034	50	516	0	0	chainsaw	299	207	1	stimuli\chainsaw\chainsaw_06s.jpg	5	-1	1	0	chainsaw_06s.jpg	0	0	0	133.620660776389	133.670655546681	0.0499947702919599
140134	50	517	0	0	mast	981	208	1	stimuli\mast\mast_08s.jpg	7	-1	1	0	mast_08s.jpg	0	0	0	133.720652511256	133.770634847286	0.0499823360296432
140234	50	518	0	0	soap	1487	209	1	stimuli\soap\soap_08s.jpg	7	-1	1	0	soap_08s.jpg	0	0	0	133.820680329896	133.870661934488	0.0499816045921762
140334	50	519	0	0	tattoo	1629	210	1	stimuli\tattoo\tattoo_04s.jpg	3	-1	1	0	tattoo_04s.jpg	0	0	0	133.920678403781	133.970660252206	0.0499818484240677
140434	50	520	0	0	scooter	1382	211	1	stimuli\scooter\scooter_02s.jpg	1	-1	1	0	scooter_02s.jpg	0	0	0	134.020671357721	134.070669297536	0.0499979398155119
140534	50	521	0	0	bunkbed	222	212	1	stimuli\bunkbed\bunkbed_11s.jpg	10	-1	1	0	bunkbed_11s.jpg	0	0	0	134.120685766829	134.170668590465	0.0499828236352187
140634	50	522	0	0	needle	1055	213	1	stimuli\needle\needle_09s.jpg	8	-1	1	0	needle_09s.jpg	0	0	0	134.220689448353	134.270655205357	0.0499657570035197
140734	50	523	0	0	police_car	1214	214	1	stimuli\police_car\police_car_10s.jpg	9	-1	1	0	police_car_10s.jpg	0	0	0	134.320669724199	134.370670833508	0.0500011093099602
140834	50	524	0	0	sand	1351	215	1	stimuli\sand\sand_11s.jpg	10	-1	1	0	sand_11s.jpg	0	0	0	134.420693641878	134.470674758835	0.0499811169574969
140934	50	525	0	0	bassoon	86	216	1	stimuli\bassoon\bassoon_11s.jpg	10	-1	1	0	bassoon_11s.jpg	0	0	0	134.520678062458	134.570678684162	0.0500006217043847
141034	50	526	0	0	centrifuge	296	217	1	stimuli\centrifuge\centrifuge_11s.jpg	10	-1	1	0	centrifuge_11s.jpg	0	0	0	134.620680768741	134.670680659037	0.0499998902960215
141134	50	527	0	0	pasta	1123	218	1	stimuli\pasta\pasta_03s.jpg	2	-1	1	0	pasta_03s.jpg	0	0	0	134.720682987419	134.770680927206	0.0499979397864081
141234	50	528	0	0	backdrop	47	219	1	stimuli\backdrop\backdrop_12s.jpg	11	-1	1	0	backdrop_12s.jpg	0	0	0	134.820687400352	134.870666079252	0.0499786789005157
141334	50	529	0	0	trophy	1717	220	1	stimuli\trophy\trophy_11s.jpg	10	-1	1	0	trophy_11s.jpg	0	0	0	134.920682548545	134.970660008403	0.0499774598574731
141434	50	530	0	0	chickpea	325	221	1	stimuli\chickpea\chickpea_05s.jpg	4	-1	1	0	chickpea_05s.jpg	1	0	0	135.020714999555	135.070678318472	0.0499633189174347
141534	50	531	0	0	goalpost	683	222	1	stimuli\goalpost\goalpost_10s.jpg	9	-1	1	0	goalpost_10s.jpg	0	0	0	135.120692837285	135.170669321902	0.0499764846172184
141634	50	532	0	0	metronome	997	223	1	stimuli\metronome\metronome_01b.jpg	0	-1	1	0	metronome_01b.jpg	0	0	0	135.220693105482	135.270673978666	0.0499808731838129
141734	50	533	0	0	tupperware	1729	224	1	stimuli\tupperware\tupperware_08s.jpg	7	-1	1	0	tupperware_08s.jpg	0	0	0	135.320697518444	135.370677172556	0.0499796541116666
141834	50	534	0	0	charger	308	225	1	stimuli\charger\charger_12s.jpg	11	-1	1	0	charger_12s.jpg	0	0	0	135.420694373286	135.470677684556	0.049983311269898
141934	50	535	0	0	trombone	1716	226	1	stimuli\trombone\trombone_07s.jpg	6	-1	1	0	trombone_07s.jpg	0	0	0	135.520700249093	135.570681609883	0.0499813607893884
142034	50	536	0	0	cannonball	261	227	1	stimuli\cannonball\cannonball_01b.jpg	0	-1	1	0	cannonball_01b.jpg	0	0	0	135.620704905858	135.670684316166	0.0499794103088789
142134	50	537	0	0	ferret	578	228	1	stimuli\ferret\ferret_01b.jpg	0	-1	1	0	ferret_01b.jpg	0	0	0	135.720707124507	135.770688972931	0.0499818484240677
142234	50	538	0	0	ginger	673	229	1	stimuli\ginger\ginger_03s.jpg	2	-1	1	0	ginger_03s.jpg	0	0	0	135.820703491743	135.870685096364	0.04998160462128
142334	50	539	0	0	ticktacktoe	1657	230	1	stimuli\ticktacktoe\ticktacktoe_04s.jpg	3	-1	1	0	ticktacktoe_04s.jpg	0	0	0	135.92070839231	135.970685852168	0.0499774598574731
142434	50	540	0	0	notebook	1064	231	1	stimuli\notebook\notebook_02s.jpg	1	-1	1	0	notebook_02s.jpg	0	0	0	136.02073426047	136.070717084105	0.0499828236352187
142534	50	541	0	0	seaplane	1398	232	1	stimuli\seaplane\seaplane_05s.jpg	4	-1	1	0	seaplane_05s.jpg	0	0	0	136.12071868105	136.170692483778	0.0499738027283456
142634	50	542	0	0	shoe	1423	233	1	stimuli\shoe\shoe_10s.jpg	9	-1	1	0	shoe_10s.jpg	0	0	0	136.220741867321	136.270722984307	0.0499811169866007
142734	50	543	0	0	firetruck	596	234	1	stimuli\firetruck\firetruck_01b.jpg	0	-1	1	0	firetruck_01b.jpg	0	0	0	136.320726044098	136.370700090629	0.0499740465311334
142834	50	544	0	0	quad	1260	235	1	stimuli\quad\quad_12s.jpg	11	-1	1	0	quad_12s.jpg	0	0	0	136.42074264749	136.470712549257	0.0499699017673265
142934	50	545	0	0	ice_pack	820	236	1	stimuli\ice_pack\ice_pack_07s.jpg	6	-1	1	0	ice_pack_07s.jpg	0	0	0	136.520731944271	136.570705746999	0.0499738027283456
143034	50	546	0	0	hoodie	792	237	1	stimuli\hoodie\hoodie_01b.jpg	0	-1	1	0	hoodie_01b.jpg	0	0	0	136.620728799142	136.670708209451	0.0499794103088789
143134	50	547	0	0	arugula	40	238	1	stimuli\arugula\arugula_01b.jpg	0	-1	1	0	arugula_01b.jpg	0	0	0	136.720733212074	136.770714329061	0.0499811169866007
143234	50	548	0	0	sheep	1414	239	1	stimuli\sheep\sheep_09s.jpg	8	-1	1	0	sheep_09s.jpg	0	0	0	136.820736893598	136.870716547739	0.0499796541407704
143334	50	549	0	0	pea	1128	240	1	stimuli\pea\pea_05s.jpg	4	-1	1	0	pea_05s.jpg	0	0	0	136.920736186556	136.970720960671	0.0499847741157282
143434	50	550	0	0	cornbread	413	241	1	stimuli\cornbread\cornbread_12s.jpg	11	-1	1	0	cornbread_12s.jpg	0	0	0	137.020736942359	137.070738783135	0.050001840776531
143534	50	551	0	0	handbrake	745	242	1	stimuli\handbrake\handbrake_05s.jpg	4	-1	1	0	handbrake_05s.jpg	0	0	0	137.12076012863	137.170723935153	0.0499638065230101
143634	50	552	0	0	christmas_card	340	243	1	stimuli\christmas_card\christmas_card_10s.jpg	9	-1	1	0	christmas_card_10s.jpg	0	0	0	137.220764785365	137.270727372874	0.0499625875090715
143734	50	553	0	0	column	388	244	1	stimuli\column\column_07s.jpg	6	-1	1	0	column_07s.jpg	0	0	0	137.320754325949	137.370724227716	0.0499699017673265
143834	50	554	0	0	antelope	26	245	1	stimuli\antelope\antelope_04n.jpg	3	-1	1	0	antelope_04n.jpg	0	0	0	137.420746060816	137.470720107347	0.0499740465311334
143934	50	555	0	0	caramel	270	246	1	stimuli\caramel\caramel_09s.jpg	8	-1	1	0	caramel_09s.jpg	0	0	0	137.520774367062	137.570752070722	0.0499777036602609
144034	50	556	0	0	pulley	1250	247	1	stimuli\pulley\pulley_07s.jpg	6	-1	1	0	pulley_07s.jpg	0	0	0	137.620772440976	137.670736735134	0.0499642941576894
144134	50	557	0	0	shopping_cart	1428	248	1	stimuli\shopping_cart\shopping_cart_05s.jpg	4	-1	1	0	shopping_cart_05s.jpg	0	0	0	137.720741013967	137.770742610941	0.0500015969737433
144234	50	558	0	0	fireworks	598	249	1	stimuli\fireworks\fireworks_10s.jpg	9	-1	1	0	fireworks_10s.jpg	0	0	0	137.820756642148	137.870734102005	0.0499774598574731
144334	50	559	0	0	board	152	250	1	stimuli\board\board_12s.jpg	11	-1	1	0	board_12s.jpg	0	0	0	137.92076203032	137.970755825372	0.0499937950517051
144434	50	560	0	0	guacamole	719	251	1	stimuli\guacamole\guacamole_05s.jpg	4	-1	1	0	guacamole_05s.jpg	0	0	0	138.020793262287	138.070761944982	0.0499686826951802
144534	50	561	0	0	okra	1074	252	1	stimuli\okra\okra_12s.jpg	11	-1	1	0	okra_12s.jpg	0	0	0	138.120790604764	138.170748559874	0.0499579551105853
144634	50	562	0	0	gramophone	699	253	1	stimuli\gramophone\gramophone_11s.jpg	10	-1	1	0	gramophone_11s.jpg	0	0	0	138.220787215803	138.270769064227	0.0499818484240677
144734	50	563	0	0	seatbelt	1399	254	1	stimuli\seatbelt\seatbelt_03s.jpg	2	-1	1	0	seatbelt_03s.jpg	0	0	0	138.320772611653	138.370745439111	0.049972827458987
144834	50	564	0	0	hat	757	255	1	stimuli\hat\hat_10s.jpg	9	-1	1	0	hat_10s.jpg	0	0	0	138.420773367456	138.47076082346	0.049987456004601
144934	50	565	0	0	oven	1089	256	1	stimuli\oven\oven_01b.jpg	0	-1	1	0	oven_01b.jpg	0	0	0	138.520775098499	138.57074816979	0.0499730712908786
145034	50	566	0	0	undershirt	1744	257	1	stimuli\undershirt\undershirt_10s.jpg	9	-1	1	0	undershirt_10s.jpg	0	0	0	138.62077658574	138.670755264611	0.0499786788714118
145134	50	567	0	0	watermelon	1793	258	1	stimuli\watermelon\watermelon_01b.jpg	0	-1	1	0	watermelon_01b.jpg	0	0	0	138.720771246328	138.770740416658	0.0499691703298595
145234	50	568	0	0	lightning_bug	929	259	1	stimuli\lightning_bug\lightning_bug_07s.jpg	6	-1	1	0	lightning_bug_07s.jpg	0	0	0	138.820804672549	138.870781644771	0.0499769722227938
145334	50	569	0	0	measuring_cup	986	260	1	stimuli\measuring_cup\measuring_cup_03s.jpg	2	-1	1	0	measuring_cup_03s.jpg	0	0	0	138.920787630283	138.970785813901	0.0499981836182997
145434	50	570	0	0	blind	140	261	1	stimuli\blind\blind_08s.jpg	7	-1	1	0	blind_08s.jpg	0	0	0	139.020810085116	139.070791933511	0.0499818483949639
145534	50	571	0	0	tugboat	1725	262	1	stimuli\tugboat\tugboat_07s.jpg	6	-1	1	0	tugboat_07s.jpg	0	0	0	139.120808646636	139.170790251228	0.0499816045921762
145634	50	572	0	0	platypus	1198	263	1	stimuli\platypus\platypus_02s.jpg	1	-1	1	0	platypus_02s.jpg	0	0	0	139.220814766246	139.270780035644	0.0499652693979442
145734	50	573	0	0	guitar	723	264	1	stimuli\guitar\guitar_04s.jpg	3	-1	1	0	guitar_04s.jpg	0	0	0	139.320821861096	139.37079615143	0.0499742903339211
145834	50	574	0	0	hand	744	265	1	stimuli\hand\hand_05s.jpg	4	-1	1	0	hand_05s.jpg	0	0	0	139.420816521684	139.470799345319	0.0499828236352187
145934	50	575	0	0	speaker	1509	266	1	stimuli\speaker\speaker_01s.jpg	0	-1	1	0	speaker_01s.jpg	0	0	0	139.520801429899	139.570775232598	0.0499738026992418
146034	50	576	0	0	cookie_cutter	401	267	1	stimuli\cookie_cutter\cookie_cutter_09s.jpg	8	-1	1	0	cookie_cutter_09s.jpg	0	0	0	139.620801454264	139.670780376968	0.0499789227033034
146134	50	577	0	0	fire	590	268	1	stimuli\fire\fire_11s.jpg	10	-1	1	0	fire_11s.jpg	0	0	0	139.720805379591	139.77079332323	0.0499879436392803
146234	50	578	0	0	chariot	309	269	1	stimuli\chariot\chariot_07s.jpg	6	-1	1	0	chariot_07s.jpg	0	0	0	139.820811986807	139.870787496184	0.0499755093769636
146334	50	579	0	0	hairnet	736	270	1	stimuli\hairnet\hairnet_05s.jpg	4	-1	1	0	hairnet_05s.jpg	0	0	0	139.920811035961	139.970790690102	0.0499796541407704
146434	50	580	0	0	eraser	559	271	1	stimuli\eraser\eraser_06s.jpg	5	-1	1	0	eraser_06s.jpg	0	0	0	140.020814717485	140.070789495425	0.0499747779394966
146534	50	581	0	0	net	1057	272	1	stimuli\net\net_05s.jpg	4	-1	1	0	net_05s.jpg	0	0	0	140.120814741851	140.170786106493	0.0499713646422606
146634	50	582	0	0	hearing_aid	770	273	1	stimuli\hearing_aid\hearing_aid_12s.jpg	11	-1	1	0	hearing_aid_12s.jpg	0	0	0	140.220815741486	140.270821239392	0.0500054979056586
146734	50	583	0	0	vise	1765	274	1	stimuli\vise\vise_11s.jpg	10	-1	1	0	vise_11s.jpg	0	0	0	140.320822836336	140.370802734251	0.0499798979144543
146834	50	584	0	0	skeleton	1450	275	1	stimuli\skeleton\skeleton_11s.jpg	10	-1	1	0	skeleton_11s.jpg	0	0	0	140.420843828295	140.470830309088	0.04998648079345
146934	50	585	0	0	cobra	371	276	1	stimuli\cobra\cobra_09s.jpg	8	-1	1	0	cobra_09s.jpg	0	0	0	140.520828492707	140.570802539209	0.0499740465020295
147034	50	586	0	0	generator	671	277	1	stimuli\generator\generator_08s.jpg	7	-1	1	0	generator_08s.jpg	0	0	0	140.620828029467	140.670807683578	0.0499796541116666
147134	50	587	0	0	raisin	1280	278	1	stimuli\raisin\raisin_10s.jpg	9	-1	1	0	raisin_10s.jpg	0	0	0	140.720826590987	140.770829894609	0.0500033036223613
147234	50	588	0	0	pipe2	1187	279	1	stimuli\pipe2\pipe2_08s.jpg	7	-1	1	0	pipe2_08s.jpg	0	0	0	140.82083588012	140.870832357061	0.0499964769405778
147334	50	589	0	0	mouse2	1027	280	1	stimuli\mouse2\mouse2_09s.jpg	8	-1	1	0	mouse2_09s.jpg	0	0	0	140.920854677795	140.970821653842	0.0499669760465622
147434	50	590	0	0	stroller	1574	281	1	stimuli\stroller\stroller_09s.jpg	8	-1	1	0	stroller_09s.jpg	0	0	0	141.020837635529	141.070814363949	0.0499767284200061
147534	50	591	0	0	scalpel	1374	282	1	stimuli\scalpel\scalpel_02s.jpg	1	-1	1	0	scalpel_02s.jpg	0	0	0	141.120835221838	141.170814632147	0.0499794103088789
147634	50	592	0	0	loom	946	283	1	stimuli\loom\loom_12s.jpg	11	-1	1	0	loom_12s.jpg	0	0	0	141.220841585251	141.27082294604	0.0499813607893884
147734	50	593	0	0	eyedropper	566	284	1	stimuli\eyedropper\eyedropper_10s.jpg	9	-1	1	0	eyedropper_10s.jpg	0	0	0	141.32084477914	141.370822726603	0.0499779474630486
147834	50	594	0	0	nail_polish	1049	285	1	stimuli\nail_polish\nail_polish_12s.jpg	11	-1	1	0	nail_polish_12s.jpg	0	0	0	141.420846997818	141.470832747174	0.049985749355983
147934	50	595	0	0	bottle	170	286	1	stimuli\bottle\bottle_08s.jpg	7	-1	1	0	bottle_08s.jpg	0	0	0	141.520852873626	141.570827163931	0.0499742903048173
148034	50	596	0	0	lawnmower	905	287	1	stimuli\lawnmower\lawnmower_08s.jpg	7	-1	1	0	lawnmower_08s.jpg	0	0	0	141.620851678948	141.6708323083	0.0499806293519214
148134	50	597	0	0	bone	161	288	1	stimuli\bone\bone_09s.jpg	8	-1	1	0	bone_09s.jpg	0	0	0	141.720861943322	141.770836233627	0.0499742903048173
148234	50	598	0	0	garter	659	289	1	stimuli\garter\garter_03s.jpg	2	-1	1	0	garter_03s.jpg	0	0	0	141.820856360078	141.870841621829	0.0499852617504075
148334	50	599	0	0	monkey	1017	290	1	stimuli\monkey\monkey_06s.jpg	5	-1	1	0	monkey_06s.jpg	0	0	0	141.920861992083	141.970839208108	0.0499772160255816
148434	50	600	0	0	record_player	1296	291	1	stimuli\record_player\record_player_11s.jpg	10	-1	1	0	record_player_11s.jpg	0	0	0	142.020871768822	142.070845571521	0.0499738026992418
148534	50	601	0	0	van	1752	292	1	stimuli\van\van_11s.jpg	10	-1	1	0	van_11s.jpg	0	0	0	142.120865941775	142.170842913998	0.0499769722227938
148634	50	602	0	0	cardboard	272	293	1	stimuli\cardboard\cardboard_09s.jpg	8	-1	1	0	cardboard_09s.jpg	0	0	0	142.220870842342	142.270838549826	0.0499677074840292
148734	50	603	0	0	satellite_dish	1361	294	1	stimuli\satellite_dish\satellite_dish_01b.jpg	0	-1	1	0	satellite_dish_01b.jpg	0	0	0	142.320877205755	142.37085344657	0.0499762408144306
148834	50	604	0	0	crayon	435	295	1	stimuli\crayon\crayon_12s.jpg	11	-1	1	0	crayon_12s.jpg	0	0	0	142.420894784416	142.470878095657	0.0499833112407941
148934	50	605	0	0	handlebar	749	296	1	stimuli\handlebar\handlebar_03s.jpg	2	-1	1	0	handlebar_03s.jpg	0	0	0	142.520884568803	142.570861297223	0.0499767284200061
149034	50	606	0	0	cardigan	273	297	1	stimuli\cardigan\cardigan_07s.jpg	6	-1	1	0	cardigan_07s.jpg	0	0	0	142.620896539825	142.670879607293	0.0499830674671102
149134	50	607	0	0	patch	1125	298	1	stimuli\patch\patch_12s.jpg	11	-1	1	0	patch_12s.jpg	0	0	0	142.720887299452	142.770882069744	0.0499947702919599
149234	50	608	0	0	inhaler	828	299	1	stimuli\inhaler\inhaler_05s.jpg	4	-1	1	0	inhaler_05s.jpg	0	0	0	142.820902196196	142.870866002748	0.049963806552114
149334	50	609	0	0	latch	900	300	1	stimuli\latch\latch_01s.jpg	0	-1	1	0	latch_01s.jpg	0	0	0	142.920887835848	142.970886019466	0.0499981836182997
149434	50	610	0	0	earplug	539	301	1	stimuli\earplug\earplug_03s.jpg	2	-1	1	0	earplug_03s.jpg	0	0	0	143.020892980217	143.070855567697	0.0499625874799676
149534	50	611	0	0	sandbag	1353	302	1	stimuli\sandbag\sandbag_05s.jpg	4	-1	1	0	sandbag_05s.jpg	0	0	0	143.120888616046	143.170867782552	0.0499791665060911
149634	50	612	0	0	clothes	361	303	1	stimuli\clothes\clothes_11s.jpg	10	-1	1	0	clothes_11s.jpg	0	0	0	143.220896686107	143.270874145965	0.0499774598574731
149734	50	613	0	0	pear	1133	304	1	stimuli\pear\pear_11s.jpg	10	-1	1	0	pear_11s.jpg	0	0	0	143.320894516219	143.370870025596	0.0499755093769636
149834	50	614	0	0	paintbrush	1097	305	1	stimuli\paintbrush\paintbrush_08s.jpg	7	-1	1	0	paintbrush_08s.jpg	0	0	0	143.420897222502	143.470876876614	0.0499796541116666
149934	50	615	0	0	spool	1518	306	1	stimuli\spool\spool_09s.jpg	8	-1	1	0	spool_09s.jpg	0	0	0	143.520896759263	143.570879826701	0.0499830674380064
150034	50	616	0	0	microwave	1000	307	1	stimuli\microwave\microwave_11s.jpg	10	-1	1	0	microwave_11s.jpg	0	0	0	143.620898002671	143.670906913903	0.0500089112319984
150134	50	617	0	0	bagpipe	56	308	1	stimuli\bagpipe\bagpipe_01b.jpg	0	-1	1	0	bagpipe_01b.jpg	0	0	0	143.72090314707	143.770910107822	0.0500069607514888
157768	50	618	0	0	clasp	351	0	2	stimuli\clasp\clasp_09s.jpg	8	-1	2	0	clasp_09s.jpg	0	0	0	151.354442409705	151.404426452413	0.049984042707365
157868	50	619	0	0	tulip	1726	1	2	stimuli\tulip\tulip_10s.jpg	9	-1	2	0	tulip_10s.jpg	0	0	0	151.454441702663	151.50442379489	0.0499820922268555
157968	50	620	0	0	pizza	1192	2	2	stimuli\pizza\pizza_10s.jpg	9	-1	2	0	pizza_10s.jpg	0	0	0	151.554452210839	151.604426257371	0.0499740465311334
158068	50	621	0	0	shield	1420	3	2	stimuli\shield\shield_08n.jpg	7	-1	2	0	shield_08n.jpg	0	0	0	151.654444920947	151.704402876057	0.0499579551105853
158168	50	622	0	0	fudge	647	4	2	stimuli\fudge\fudge_08s.jpg	7	-1	2	0	fudge_08s.jpg	0	0	0	151.754428122513	151.804398999491	0.0499708769784775
158268	50	623	0	0	wick	1815	5	2	stimuli\wick\wick_03s.jpg	2	-1	2	0	wick_03s.jpg	0	0	0	151.854448383034	151.904410970514	0.0499625874799676
158368	50	624	0	0	ski	1452	6	2	stimuli\ski\ski_12s.jpg	11	-1	2	0	ski_12s.jpg	0	0	0	151.954430365557	152.004407093948	0.0499767283909023
158468	50	625	0	0	almond	13	7	2	stimuli\almond\almond_09s.jpg	8	-1	2	0	almond_09s.jpg	0	0	0	152.054429902317	152.104411019303	0.0499811169866007
158568	50	626	0	0	hatchet	759	8	2	stimuli\hatchet\hatchet_05s.jpg	4	-1	2	0	hatchet_05s.jpg	0	0	0	152.154437484773	152.204416651279	0.0499791665060911
158668	50	627	0	0	ladle	887	9	2	stimuli\ladle\ladle_09s.jpg	8	-1	2	0	ladle_09s.jpg	0	0	0	152.254437996773	152.304450077499	0.0500120807264466
158768	50	628	0	0	cantaloupe	263	10	2	stimuli\cantaloupe\cantaloupe_03s.jpg	2	-1	2	0	cantaloupe_03s.jpg	0	0	0	152.354472398234	152.404426452413	0.04995405417867
158868	50	629	0	0	taco	1613	11	2	stimuli\taco\taco_06n.jpg	5	-1	2	0	taco_06n.jpg	0	0	0	152.454443653143	152.504427208216	0.0499835550726857
158968	50	630	0	0	sweet_potato	1595	12	2	stimuli\sweet_potato\sweet_potato_08s.jpg	7	-1	2	0	sweet_potato_08s.jpg	0	0	0	152.554442702298	152.604460634437	0.0500179321388714
159068	50	631	0	0	stilt	1555	13	2	stimuli\stilt\stilt_10s.jpg	9	-1	2	0	stilt_10s.jpg	0	0	0	152.654479541845	152.704444079805	0.0499645379604772
159168	50	632	0	0	closet	360	14	2	stimuli\closet\closet_01b.jpg	0	-1	2	0	closet_01b.jpg	0	0	0	152.754469813866	152.804464340355	0.0499945264891721
159268	50	633	0	0	pepper2	1150	15	2	stimuli\pepper2\pepper2_05s.jpg	4	-1	2	1	pepper2_05s.jpg	0	0	0	152.854486173455	152.904463145678	0.0499769722227938
159368	50	634	0	0	cactus	235	16	2	stimuli\cactus\cactus_04s.jpg	3	-1	2	0	cactus_04s.jpg	0	0	0	152.954486929259	153.00446755864	0.0499806293810252
159468	50	635	0	0	puppet	1257	17	2	stimuli\puppet\puppet_11s.jpg	10	-1	2	0	puppet_11s.jpg	0	0	0	153.054470862233	153.104468802048	0.0499979398155119
159568	50	636	0	0	quill	1263	18	2	stimuli\quill\quill_09s.jpg	8	-1	2	0	quill_09s.jpg	0	0	0	153.154462840932	153.204437862674	0.0499750217422843
159668	50	637	0	0	extinguisher	563	19	2	stimuli\extinguisher\extinguisher_12s.jpg	11	-1	2	0	extinguisher_12s.jpg	1	0.450128962838789	1	153.254463840538	153.304441056564	0.0499772160255816
159768	50	638	0	0	gumball	725	20	2	stimuli\gumball\gumball_07s.jpg	6	-1	2	0	gumball_07s.jpg	0	0	0	153.354479956324	153.404479358986	0.0499994026613422
159868	50	639	0	0	drill	520	21	2	stimuli\drill\drill_10s.jpg	9	-1	2	0	drill_10s.jpg	0	0	0	153.454469009303	153.504448419611	0.0499794103088789
159968	50	640	0	0	place_mat	1193	22	2	stimuli\place_mat\place_mat_01b.jpg	0	-1	2	0	place_mat_01b.jpg	0	0	0	153.554472446995	153.604451857333	0.0499794103379827
160068	50	641	0	0	flashlight	611	23	2	stimuli\flashlight\flashlight_06s.jpg	5	-1	2	0	flashlight_06s.jpg	0	0	0	153.654472471389	153.704451394093	0.0499789227033034
160168	50	642	0	0	swordfish	1603	24	2	stimuli\swordfish\swordfish_09s.jpg	8	-1	2	0	swordfish_09s.jpg	0	0	0	153.754473227193	153.804490671726	0.0500174445332959
160268	50	643	0	0	dumpling	532	25	2	stimuli\dumpling\dumpling_11s.jpg	10	-1	2	0	dumpling_11s.jpg	0	0	0	153.854509822937	153.904475823743	0.0499660008063074
160368	50	644	0	0	suitcase	1581	26	2	stimuli\suitcase\suitcase_04s.jpg	3	-1	2	0	suitcase_04s.jpg	0	0	0	153.954510334937	154.004476335744	0.0499660008063074
160468	50	645	0	0	pearl	1134	27	2	stimuli\pearl\pearl_03s.jpg	2	-1	2	0	pearl_03s.jpg	0	0	0	154.054504020285	154.104492207727	0.049988187442068
160568	50	646	0	0	stove2	1564	28	2	stimuli\stove2\stove2_02s.jpg	1	-1	2	0	stove2_02s.jpg	0	0	0	154.154518917028	154.204498327337	0.0499794103088789
160668	50	647	0	0	handcuff	746	29	2	stimuli\handcuff\handcuff_02s.jpg	1	-1	2	0	handcuff_02s.jpg	0	0	0	154.254505044286	154.304526877386	0.0500218330998905
160768	50	648	0	0	seahorse	1396	30	2	stimuli\seahorse\seahorse_11s.jpg	10	-1	2	0	seahorse_11s.jpg	0	0	0	154.354504337243	154.404481065663	0.0499767284200061
160868	50	649	0	0	handprint	750	31	2	stimuli\handprint\handprint_07s.jpg	6	-1	2	0	handprint_07s.jpg	0	0	0	154.454491683544	154.504504739511	0.0500130559667014
160968	50	650	0	0	traffic_light	1696	32	2	stimuli\traffic_light\traffic_light_07s.jpg	6	-1	2	0	traffic_light_07s.jpg	0	0	0	154.554509993613	154.6044779449	0.049967951286817
161068	50	651	0	0	juicer2	856	33	2	stimuli\juicer2\juicer2_08s.jpg	7	-1	2	0	juicer2_08s.jpg	0	0	0	154.654507092288	154.704480407381	0.0499733150936663
161168	50	652	0	0	flipper	615	34	2	stimuli\flipper\flipper_01b.jpg	0	-1	2	0	flipper_01b.jpg	0	0	0	154.754533935658	154.804513102164	0.0499791665060911
161268	50	653	0	0	fire_alarm	591	35	2	stimuli\fire_alarm\fire_alarm_07s.jpg	6	-1	2	0	fire_alarm_07s.jpg	0	0	0	154.854535422899	154.90449996086	0.0499645379604772
161368	50	654	0	0	prune	1244	36	2	stimuli\prune\prune_04s.jpg	3	-1	2	0	prune_04s.jpg	0	0	0	154.954536666337	155.004502667143	0.0499660008063074
161468	50	655	0	0	coat_rack	370	37	2	stimuli\coat_rack\coat_rack_03s.jpg	2	-1	2	0	coat_rack_03s.jpg	0	0	0	155.054540347832	155.104504398187	0.0499640503549017
