onset	duration	eventnumber	blocksequencenumber	isteststim	object	objectnumber	presentationnumber	sequencenumber	stim	stimnumber	teststimnumber	withinsequencenumber	istarget	stimname	response	rt	correct	time_stimon	time_stimoff	stimdur
122182	50	0	0	0	pasta	1123	0	0	stimuli\pasta\pasta_01b.jpg	0	-1	0	0	pasta_01b.jpg	0	0	0	147.37203027925	147.422020721948	0.0499904426978901
122282	50	1	0	0	goggles	686	1	0	stimuli\goggles\goggles_08s.jpg	7	-1	0	0	goggles_08s.jpg	0	0	0	147.472035057843	147.522020624368	0.0499855665257201
122382	50	2	0	0	staple	1537	2	0	stimuli\staple\staple_04s.jpg	3	-1	0	0	staple_04s.jpg	0	0	0	147.572039105115	147.622034180211	0.0499950750963762
122482	50	3	0	0	car_seat	269	3	0	stimuli\car_seat\car_seat_10s.jpg	9	-1	0	0	car_seat_10s.jpg	0	0	0	147.672077529482	147.722048467374	0.0499709378927946
122582	50	4	0	0	squirt_gun	1530	4	0	stimuli\squirt_gun\squirt_gun_09s.jpg	8	-1	0	0	squirt_gun_09s.jpg	0	0	0	147.772039397736	147.822021794622	0.0499823968857527
122682	50	5	0	0	graffiti	697	5	0	stimuli\graffiti\graffiti_11s.jpg	10	-1	0	0	graffiti_11s.jpg	0	0	0	147.87204246968	147.922686321661	0.050643851980567
122782	50	6	0	0	waffle_iron	1771	6	0	stimuli\waffle_iron\waffle_iron_05s.jpg	4	-1	0	0	waffle_iron_05s.jpg	0	0	0	147.972052368335	148.022030620603	0.049978252267465
122882	50	7	0	0	cheetah	315	7	0	stimuli\cheetah\cheetah_09s.jpg	8	-1	0	0	cheetah_09s.jpg	0	0	0	148.072044956614	148.122062218259	0.0500172616448253
122982	50	8	0	0	filing_cabinet	585	8	0	stimuli\filing_cabinet\filing_cabinet_10s.jpg	9	-1	0	0	filing_cabinet_10s.jpg	0	0	0	148.172050466645	148.222060414031	0.0500099473865703
123082	50	9	0	0	koala	884	9	0	stimuli\koala\koala_02s.jpg	1	-1	0	0	koala_02s.jpg	0	0	0	148.272078894777	148.322042518412	0.0499636236345395
123182	50	10	0	0	drawer	516	10	0	stimuli\drawer\drawer_05s.jpg	4	-1	0	0	drawer_05s.jpg	0	0	0	148.372080991627	148.422061925754	0.0499809341272339
123282	50	11	0	0	pheasant	1160	11	0	stimuli\pheasant\pheasant_07s.jpg	6	-1	0	0	pheasant_07s.jpg	0	0	0	148.47206529032	148.522044761572	0.0499794712522998
123382	50	12	0	0	binder	126	12	0	stimuli\binder\binder_01b.jpg	0	-1	0	0	binder_01b.jpg	0	0	0	148.57206519274	148.62204539543	0.0499802026897669
123482	50	13	0	0	yoke	1849	13	0	stimuli\yoke\yoke_01s.jpg	0	-1	0	0	yoke_01s.jpg	0	0	0	148.672070458997	148.722052124562	0.049981665564701
123582	50	14	0	0	omelet	1076	14	0	stimuli\omelet\omelet_05s.jpg	4	-1	0	0	omelet_05s.jpg	0	0	0	148.772071092972	148.822053489857	0.0499823968857527
123682	50	15	0	0	steering_wheel	1546	15	0	stimuli\steering_wheel\steering_wheel_05s.jpg	4	-1	0	0	steering_wheel_05s.jpg	0	0	0	148.872084404924	148.922052904731	0.0499684998067096
123782	50	16	0	0	volleyball	1767	16	0	stimuli\volleyball\volleyball_07s.jpg	6	-1	0	0	volleyball_07s.jpg	0	0	0	148.972073336015	149.022056952002	0.0499836159870028
123882	50	17	0	0	telegraph	1638	17	0	stimuli\telegraph\telegraph_05s.jpg	4	-1	0	0	telegraph_05s.jpg	0	0	0	149.072075432749	149.122099521104	0.0500240883557126
123982	50	18	0	0	exerciser	561	18	0	stimuli\exerciser\exerciser_03s.jpg	2	-1	0	0	exerciser_03s.jpg	0	0	0	149.17207923613	149.222086989321	0.0500077531905845
124082	50	19	0	0	rubber_band	1337	19	0	stimuli\rubber_band\rubber_band_05s.jpg	4	-1	0	0	rubber_band_05s.jpg	0	0	0	149.272104007192	149.322065924178	0.0499619169859216
124182	50	20	0	0	handprint	750	20	0	stimuli\handprint\handprint_04s.jpg	3	-1	0	0	handprint_04s.jpg	0	0	0	149.372079528752	149.422091426677	0.0500118979252875
124282	50	21	0	0	thimble	1649	21	0	stimuli\thimble\thimble_06n.jpg	5	-1	0	0	thimble_06n.jpg	0	0	0	149.472107469337	149.522067192011	0.0499597226735204
124382	50	22	0	0	slot	1469	22	0	stimuli\slot\slot_05s.jpg	4	-1	0	0	slot_05s.jpg	0	0	0	149.572083966108	149.622070263955	0.0499862978467718
124482	50	23	0	0	platypus	1198	23	0	stimuli\platypus\platypus_12s.jpg	11	-1	0	0	platypus_12s.jpg	0	0	0	149.672086306615	149.722075286438	0.049988979822956
124582	50	24	0	0	stamp2	1536	24	0	stimuli\stamp2\stamp2_07s.jpg	6	-1	0	0	stamp2_07s.jpg	0	0	0	149.772089134785	149.822074213647	0.0499850788619369
124682	50	25	0	0	breathalyzer	198	25	0	stimuli\breathalyzer\breathalyzer_03s.jpg	2	-1	0	0	breathalyzer_03s.jpg	0	0	0	149.872092206846	149.92208484374	0.0499926368938759
124782	50	26	0	0	handcuff	746	26	0	stimuli\handcuff\handcuff_04s.jpg	3	-1	0	0	handcuff_04s.jpg	0	0	0	149.972096010228	150.022077919566	0.0499819093383849
124882	50	27	0	0	aluminum_foil	17	27	0	stimuli\aluminum_foil\aluminum_foil_10s.jpg	9	-1	0	0	aluminum_foil_10s.jpg	0	0	0	150.07209713175	150.122080747737	0.0499836159870028
124982	50	28	0	0	navel	1052	28	0	stimuli\navel\navel_09s.jpg	8	-1	0	0	navel_09s.jpg	0	0	0	150.172101666685	150.222091621719	0.049989955034107
125082	50	29	0	0	anklet	23	29	0	stimuli\anklet\anklet_02s.jpg	1	-1	0	0	anklet_02s.jpg	0	0	0	150.272107908153	150.322091036593	0.049983128439635
125182	50	30	0	0	breakfast	197	30	0	stimuli\breakfast\breakfast_03s.jpg	2	-1	0	0	breakfast_03s.jpg	0	0	0	150.372111955425	150.422118977061	0.0500070216367021
125282	50	31	0	0	snorkel	1478	31	0	stimuli\snorkel\snorkel_06s.jpg	5	-1	0	0	snorkel_06s.jpg	0	0	0	150.472109907423	150.522091816762	0.0499819093383849
125382	50	32	0	0	mole	1014	32	0	stimuli\mole\mole_01b.jpg	0	-1	0	0	mole_01b.jpg	0	0	0	150.572108834633	150.622101471643	0.0499926370102912
125482	50	33	0	0	headrest	767	33	0	stimuli\headrest\headrest_05s.jpg	4	-1	0	0	headrest_05s.jpg	0	0	0	150.672118245624	150.722097229329	0.049978983704932
125582	50	34	0	0	sorbet	1497	34	0	stimuli\sorbet\sorbet_02s.jpg	1	-1	0	0	sorbet_02s.jpg	0	0	0	150.772116197622	150.822102983249	0.0499867856269702
125682	50	35	0	0	bacon	51	35	0	stimuli\bacon\bacon_07s.jpg	6	-1	0	0	bacon_07s.jpg	0	0	0	150.872119269683	150.922107030405	0.0499877607217059
125782	50	36	0	0	grain	698	36	0	stimuli\grain\grain_03s.jpg	2	-1	0	0	grain_03s.jpg	0	0	0	150.972127705463	151.022104738629	0.0499770331662148
125882	50	37	0	0	scooter	1382	37	0	stimuli\scooter\scooter_09s.jpg	8	-1	0	0	scooter_09s.jpg	0	0	0	151.072128095548	151.122112930636	0.049984835088253
125982	50	38	0	0	mongoose	1016	38	0	stimuli\mongoose\mongoose_08s.jpg	7	-1	0	0	mongoose_08s.jpg	0	0	0	151.172126291436	151.222113076947	0.0499867855105549
126082	50	39	0	0	bear	105	39	0	stimuli\bear\bear_09s.jpg	8	-1	0	0	bear_09s.jpg	0	0	0	151.272128144396	151.322111760383	0.0499836159870028
126182	50	40	0	0	backdrop	47	40	0	stimuli\backdrop\backdrop_07s.jpg	6	-1	0	0	backdrop_07s.jpg	0	0	0	151.372140481137	151.422121415148	0.0499809340108186
126282	50	41	0	0	desk	480	41	0	stimuli\desk\desk_01b.jpg	0	-1	0	0	desk_01b.jpg	0	0	0	151.472141358769	151.52212278056	0.0499814217910171
126382	50	42	0	0	gavel	665	42	0	stimuli\gavel\gavel_11s.jpg	10	-1	0	0	gavel_11s.jpg	0	0	0	151.572140286095	151.622124877293	0.0499845911981538
126482	50	43	0	0	bone	161	43	0	stimuli\bone\bone_04s.jpg	3	-1	0	0	bone_04s.jpg	0	0	0	151.672143114265	151.722123073065	0.0499799587996677
126582	50	44	0	0	chick	321	44	0	stimuli\chick\chick_09s.jpg	8	-1	0	0	chick_09s.jpg	0	0	0	151.772142285248	151.822125901352	0.0499836161034182
126682	50	45	0	0	yogurt	1848	45	0	stimuli\yogurt\yogurt_08s.jpg	7	-1	0	0	yogurt_08s.jpg	0	0	0	151.872144625871	151.922134580906	0.049989955034107
126782	50	46	0	0	chisel	336	46	0	stimuli\chisel\chisel_06s.jpg	5	-1	0	0	chisel_06s.jpg	0	0	0	151.972152817878	152.02213204524	0.0499792273622006
126882	50	47	0	0	pet_food	1157	47	0	stimuli\pet_food\pet_food_02s.jpg	1	-1	0	0	pet_food_02s.jpg	0	0	0	152.0721480879	152.122136336286	0.049988248385489
126982	50	48	0	0	boa	150	48	0	stimuli\boa\boa_05s.jpg	4	-1	0	0	boa_05s.jpg	0	0	0	152.172156279907	152.222141114995	0.049984835088253
127082	50	49	0	0	mashed_potato	979	49	0	stimuli\mashed_potato\mashed_potato_10s.jpg	9	-1	0	0	mashed_potato_10s.jpg	0	0	0	152.272160327178	152.322143211728	0.0499828845495358
127182	50	50	0	0	turf	1732	50	0	stimuli\turf\turf_05s.jpg	4	-1	0	0	turf_05s.jpg	0	0	0	152.372190949623	152.42216798279	0.0499770331662148
127282	50	51	0	0	ham	739	51	0	stimuli\ham\ham_10s.jpg	9	-1	0	0	ham_10s.jpg	0	0	0	152.472159156925	152.522144723334	0.0499855664093047
127382	50	52	0	0	bottle	170	52	0	stimuli\bottle\bottle_07s.jpg	6	-1	0	0	bottle_07s.jpg	0	0	0	152.572167348932	152.622152427793	0.0499850788619369
127482	50	53	0	0	fishhook	602	53	0	stimuli\fishhook\fishhook_06s.jpg	5	-1	0	0	fishhook_06s.jpg	0	0	0	152.67216530093	152.722150379792	0.0499850788619369
127582	50	54	0	0	chimney	329	54	0	stimuli\chimney\chimney_08s.jpg	7	-1	0	0	chimney_08s.jpg	0	0	0	152.772166909999	152.822153207962	0.0499862979631871
127682	50	55	0	0	pine_needle	1180	55	0	stimuli\pine_needle\pine_needle_05s.jpg	4	-1	0	0	pine_needle_05s.jpg	0	0	0	152.872178027756	152.922158717993	0.0499806902371347
127782	50	56	0	0	bolo_tie	157	56	0	stimuli\bolo_tie\bolo_tie_09s.jpg	8	-1	0	0	bolo_tie_09s.jpg	0	0	0	152.972180124489	153.022156669991	0.0499765455024317
127882	50	57	0	0	scone	1380	57	0	stimuli\scone\scone_02s.jpg	1	-1	0	0	scone_02s.jpg	0	0	0	153.072177832713	153.122167543974	0.0499897112604231
127982	50	58	0	0	cape	266	58	0	stimuli\cape\cape_02s.jpg	1	-1	0	0	cape_02s.jpg	0	0	0	153.172184074181	153.222164033097	0.049979958916083
128082	50	59	0	0	paperweight	1117	59	0	stimuli\paperweight\paperweight_05s.jpg	4	-1	0	0	paperweight_05s.jpg	0	0	0	153.272186414804	153.322162960307	0.0499765455024317
128182	50	60	0	0	windowsill	1819	60	0	stimuli\windowsill\windowsill_02s.jpg	1	-1	0	1	windowsill_02s.jpg	0	0	0	153.37218217249	153.422169445665	0.049987273174338
128282	50	61	0	0	torpedo	1684	61	0	stimuli\torpedo\torpedo_02s.jpg	1	-1	0	0	torpedo_02s.jpg	0	0	0	153.47217549209	153.522168616764	0.0499931246740744
128382	50	62	0	0	laundry_basket	902	62	0	stimuli\laundry_basket\laundry_basket_11s.jpg	10	-1	0	0	laundry_basket_11s.jpg	0	0	0	153.57218685362	153.622174126795	0.049987273174338
128482	50	63	0	0	toga	1669	63	0	stimuli\toga\toga_09s.jpg	8	-1	0	0	toga_09s.jpg	1	0.341936636832543	1	153.672201384674	153.722178905504	0.049977520829998
128582	50	64	0	0	windshield_wiper	1821	64	0	stimuli\windshield_wiper\windshield_wiper_12s.jpg	11	-1	0	0	windshield_wiper_12s.jpg	0	0	0	153.772198117687	153.822180758463	0.0499826407758519
128682	50	65	0	0	gasket	661	65	0	stimuli\gasket\gasket_01b.jpg	0	-1	0	0	gasket_01b.jpg	0	0	0	153.872194606811	153.922183342744	0.0499887359328568
128782	50	66	0	0	hovercraft	808	66	0	stimuli\hovercraft\hovercraft_06s.jpg	5	-1	0	0	hovercraft_06s.jpg	0	0	0	153.972200116841	154.022184220492	0.049984103650786
128882	50	67	0	0	racehorse	1267	67	0	stimuli\racehorse\racehorse_04s.jpg	3	-1	0	0	racehorse_04s.jpg	0	0	0	154.072200019378	154.122186561115	0.049986541736871
128982	50	68	0	0	hopscotch	796	68	0	stimuli\hopscotch\hopscotch_09s.jpg	8	-1	0	0	hopscotch_09s.jpg	0	0	0	154.172205773299	154.222189145512	0.0499833722133189
129082	50	69	0	0	barbell	72	69	0	stimuli\barbell\barbell_03s.jpg	2	-1	0	0	barbell_03s.jpg	0	0	0	154.272204944282	154.322195143206	0.0499901989242062
129182	50	70	0	0	earwig	541	70	0	stimuli\earwig\earwig_06n.jpg	5	-1	0	0	earwig_06n.jpg	0	0	0	154.372215574374	154.422193338978	0.0499777646036819
129282	50	71	0	0	suspenders	1589	71	0	stimuli\suspenders\suspenders_06s.jpg	5	-1	0	0	suspenders_06s.jpg	0	0	0	154.472210844513	154.522195923375	0.0499850788619369
129382	50	72	0	0	pom-pom	1218	72	0	stimuli\pom-pom\pom-pom_11s.jpg	10	-1	0	0	pom-pom_11s.jpg	0	0	0	154.572215135559	154.622206309694	0.0499911741353571
129482	50	73	0	0	stump	1576	73	0	stimuli\stump\stump_09s.jpg	8	-1	0	0	stump_09s.jpg	0	0	0	154.672219670378	154.722200848279	0.0499811779009178
129582	50	74	0	0	lip_balm	934	74	0	stimuli\lip_balm\lip_balm_09s.jpg	8	-1	0	0	lip_balm_09s.jpg	0	0	0	154.772221523337	154.822209040285	0.0499875169480219
129682	50	75	0	0	mousse	1030	75	0	stimuli\mousse\mousse_08s.jpg	7	-1	0	0	mousse_08s.jpg	0	0	0	154.872224107734	154.922207479947	0.0499833722133189
129782	50	76	0	0	pedal	1136	76	0	stimuli\pedal\pedal_09s.jpg	8	-1	0	0	pedal_09s.jpg	0	0	0	154.972224010155	155.022211770993	0.0499877608381212
129882	50	77	0	0	stereo	1549	77	0	stimuli\stereo\stereo_01b.jpg	0	-1	0	0	stereo_01b.jpg	0	0	0	155.072225863114	155.122213867726	0.0499880046118051
129982	50	78	0	0	baton1	92	78	0	stimuli\baton1\baton1_12s.jpg	11	-1	0	0	baton1_12s.jpg	0	0	0	155.172231617034	155.222216208349	0.0499845913145691
130082	50	79	0	0	towel	1692	79	0	stimuli\towel\towel_01b.jpg	0	-1	0	0	towel_01b.jpg	0	0	0	155.272235176642	155.322219767957	0.0499845913145691
130182	50	80	0	0	train_set	1700	80	0	stimuli\train_set\train_set_01b.jpg	0	-1	0	0	train_set_01b.jpg	0	0	0	155.372235322953	155.422227959963	0.0499926370102912
130282	50	81	0	0	cable	234	81	0	stimuli\cable\cable_03s.jpg	2	-1	0	0	cable_03s.jpg	0	0	0	155.472243758733	155.522225911962	0.0499821532284841
130382	50	82	0	0	scallop	1373	82	0	stimuli\scallop\scallop_06s.jpg	5	-1	0	0	scallop_06s.jpg	0	0	0	155.572244636482	155.622225082945	0.0499804464634508
130482	50	83	0	0	golf_cart	689	83	0	stimuli\golf_cart\golf_cart_10s.jpg	9	-1	0	0	golf_cart_10s.jpg	0	0	0	155.672273552278	155.722249854007	0.0499763017287478
130582	50	84	0	0	parsley	1122	84	0	stimuli\parsley\parsley_08s.jpg	7	-1	0	0	parsley_08s.jpg	0	0	0	155.772271016613	155.822296080296	0.0500250636832789
130682	50	85	0	0	maple_syrup	971	85	0	stimuli\maple_syrup\maple_syrup_01b.jpg	0	-1	0	0	maple_syrup_01b.jpg	0	0	0	155.872277014423	155.922239175183	0.0499621607596055
130782	50	86	0	0	briefcase	200	86	0	stimuli\briefcase\briefcase_04s.jpg	3	-1	0	0	briefcase_04s.jpg	0	0	0	155.97225009778	156.022232738556	0.0499826407758519
130882	50	87	0	0	wheat	1805	87	0	stimuli\wheat\wheat_12s.jpg	11	-1	0	0	wheat_12s.jpg	0	0	0	156.072256583138	156.122237029602	0.0499804464634508
130982	50	88	0	0	heater	772	88	0	stimuli\heater\heater_01b.jpg	0	-1	0	0	heater_01b.jpg	0	0	0	156.172259411309	156.222262288327	0.0500028770184144
131082	50	89	0	0	insole	831	89	0	stimuli\insole\insole_06s.jpg	5	-1	0	0	insole_06s.jpg	0	0	0	156.272283938597	156.322247806005	0.0499638674082235
131182	50	90	0	0	uniform	1747	90	0	stimuli\uniform\uniform_07s.jpg	6	-1	0	0	uniform_07s.jpg	0	0	0	156.372289448627	156.422270626528	0.0499811779009178
131282	50	91	0	0	copier	405	91	0	stimuli\copier\copier_10n.jpg	9	-1	0	0	copier_10n.jpg	0	0	0	156.472289351164	156.522247854737	0.0499585035722703
131382	50	92	0	0	lawnmower	905	92	0	stimuli\lawnmower\lawnmower_03s.jpg	2	-1	0	0	lawnmower_03s.jpg	0	0	0	156.57226706692	156.622255802969	0.0499887360492721
131482	50	93	0	0	hoodie	792	93	0	stimuli\hoodie\hoodie_03s.jpg	2	-1	0	0	hoodie_03s.jpg	0	0	0	156.672271845629	156.722256193054	0.0499843474244699
131582	50	94	0	0	seafood	1394	94	0	stimuli\seafood\seafood_11s.jpg	10	-1	0	0	seafood_11s.jpg	0	0	0	156.772279062425	156.822255851701	0.0499767892761156
131682	50	95	0	0	alpaca	15	95	0	stimuli\alpaca\alpaca_05s.jpg	4	-1	0	0	alpaca_05s.jpg	0	0	0	156.872272625798	156.922266725567	0.04999409976881
131782	50	96	0	0	dumbwaiter	531	96	0	stimuli\dumbwaiter\dumbwaiter_08s.jpg	7	-1	0	0	dumbwaiter_08s.jpg	0	0	0	156.97227374732	157.022261751932	0.0499880046118051
131882	50	97	0	0	plant	1194	97	0	stimuli\plant\plant_04s.jpg	3	-1	0	1	plant_04s.jpg	0	0	0	157.072278038366	157.122261898243	0.0499838598771021
131982	50	98	0	0	snow	1479	98	0	stimuli\snow\snow_10s.jpg	9	-1	0	0	snow_10s.jpg	0	0	0	157.172282817075	157.222267408273	0.0499845911981538
132082	50	99	0	0	crown	448	99	0	stimuli\crown\crown_02s.jpg	1	-1	0	0	crown_02s.jpg	0	0	0	157.272295885254	157.322274625069	0.0499787398148328
132182	50	100	0	0	donkey	504	100	0	stimuli\donkey\donkey_10s.jpg	9	-1	0	0	donkey_10s.jpg	1	0.292203413206153	1	157.372290423955	157.422272577067	0.0499821531120688
132282	50	101	0	0	tablecloth	1609	101	0	stimuli\tablecloth\tablecloth_05s.jpg	4	-1	0	0	tablecloth_05s.jpg	0	0	0	157.472293739673	157.522276380449	0.0499826407758519
132382	50	102	0	0	pipe1	1186	102	0	stimuli\pipe1\pipe1_12s.jpg	11	-1	0	0	pipe1_12s.jpg	0	0	0	157.572292179335	157.622307490557	0.0500153112225235
132482	50	103	0	0	toast	1665	103	0	stimuli\toast\toast_04s.jpg	3	-1	0	0	toast_04s.jpg	0	0	0	157.672320607468	157.722299347282	0.0499787398148328
132582	50	104	0	0	cleaver	354	104	0	stimuli\cleaver\cleaver_03s.jpg	2	-1	0	0	cleaver_03s.jpg	0	0	0	157.772307588137	157.82230315078	0.0499955626437441
132682	50	105	0	0	arm	36	105	0	stimuli\arm\arm_12s.jpg	11	-1	0	0	arm_12s.jpg	0	0	0	157.872327970574	157.922291106544	0.0499631359707564
132782	50	106	0	0	sauce	1362	106	0	stimuli\sauce\sauce_07s.jpg	6	-1	0	0	sauce_07s.jpg	0	0	0	157.972327629221	158.022288570995	0.0499609417747706
132882	50	107	0	0	bongo	162	107	0	stimuli\bongo\bongo_05s.jpg	4	-1	0	0	bongo_05s.jpg	0	0	0	158.072305345093	158.122296763002	0.049991417909041
132982	50	108	0	0	brass_knuckles	193	108	0	stimuli\brass_knuckles\brass_knuckles_04s.jpg	3	-1	0	0	brass_knuckles_04s.jpg	0	0	0	158.172343038023	158.222306417767	0.0499633797444403
133082	50	109	0	0	cake_mix	238	109	0	stimuli\cake_mix\cake_mix_04s.jpg	3	-1	0	0	cake_mix_04s.jpg	0	0	0	158.272319290903	158.32231704786	0.0499977569561452
133182	50	110	0	0	shovel	1432	110	0	stimuli\shovel\shovel_11s.jpg	10	-1	0	0	shovel_11s.jpg	0	0	0	158.372326263925	158.422300371341	0.0499741074163467
133282	50	111	0	0	clock	359	111	0	stimuli\clock\clock_03n.jpg	2	-1	0	0	clock_03n.jpg	0	0	0	158.472343476838	158.522302955738	0.0499594788998365
133382	50	112	0	0	backpack	49	112	0	stimuli\backpack\backpack_05s.jpg	4	-1	0	0	backpack_05s.jpg	0	0	0	158.572318998398	158.622300907737	0.0499819093383849
133482	50	113	0	0	cantaloupe	263	113	0	stimuli\cantaloupe\cantaloupe_11s.jpg	10	-1	0	0	cantaloupe_11s.jpg	0	0	0	158.672320607468	158.722302760696	0.0499821532284841
133582	50	114	0	0	umbrella	1743	114	0	stimuli\umbrella\umbrella_01b.jpg	0	-1	0	0	umbrella_01b.jpg	0	0	0	158.772322216653	158.822306564078	0.0499843474244699
133682	50	115	0	0	melon	994	115	0	stimuli\melon\melon_04s.jpg	3	-1	0	0	melon_04s.jpg	0	0	0	158.872325044824	158.922308173263	0.049983128439635
133782	50	116	0	0	puppy	1258	116	0	stimuli\puppy\puppy_01b.jpg	0	-1	0	0	puppy_01b.jpg	0	0	0	158.972327872994	159.02231904713	0.0499911741353571
133882	50	117	0	0	quill	1263	117	0	stimuli\quill\quill_10s.jpg	9	-1	0	0	quill_10s.jpg	0	0	0	159.072329969844	159.122314561042	0.0499845911981538
133982	50	118	0	0	ankle	22	118	0	stimuli\ankle\ankle_11s.jpg	10	-1	0	0	ankle_11s.jpg	0	0	0	159.172334504663	159.222317876876	0.0499833722133189
134082	50	119	0	0	scanner	1375	119	0	stimuli\scanner\scanner_02s.jpg	1	-1	0	0	scanner_02s.jpg	0	0	0	159.272342452779	159.322319973609	0.049977520829998
134182	50	120	0	0	machine_gun	954	120	0	stimuli\machine_gun\machine_gun_02s.jpg	1	-1	0	0	machine_gun_02s.jpg	0	0	0	159.372331140097	159.422312317998	0.0499811779009178
134282	50	121	0	0	mouth	1031	121	0	stimuli\mouth\mouth_06s.jpg	5	-1	0	0	mouth_06s.jpg	0	0	0	159.472341526416	159.522325873841	0.0499843474244699
134382	50	122	0	0	trailer	1697	122	0	stimuli\trailer\trailer_05s.jpg	4	-1	0	0	trailer_05s.jpg	0	0	0	159.572345329798	159.622330164886	0.049984835088253
134482	50	123	0	0	wire_cutters	1829	123	0	stimuli\wire_cutters\wire_cutters_02s.jpg	1	-1	0	0	wire_cutters_02s.jpg	0	0	0	159.672352546593	159.722340551089	0.0499880044953898
134582	50	124	0	0	chocolate	338	124	0	stimuli\chocolate\chocolate_03s.jpg	2	-1	0	0	chocolate_03s.jpg	0	0	0	159.772355130874	159.822350693634	0.0499955627601594
134682	50	125	0	0	trap	1702	125	0	stimuli\trap\trap_03s.jpg	2	-1	0	0	trap_03s.jpg	0	0	0	159.872352839098	159.922363761812	0.0500109227141365
134783	50	126	0	0	starfish	1541	126	0	stimuli\starfish\starfish_04s.jpg	3	-1	0	0	starfish_04s.jpg	0	0	0	159.97238029202	160.022360007162	0.0499797151423991
134883	50	127	0	0	outlet	1088	127	0	stimuli\outlet\outlet_12s.jpg	11	-1	0	0	outlet_12s.jpg	0	0	0	160.07237653737	160.122326507699	0.0499499703291804
134982	50	128	0	0	fireworks	598	128	0	stimuli\fireworks\fireworks_10s.jpg	9	-1	0	0	fireworks_10s.jpg	0	0	0	160.172349864617	160.222359080683	0.0500092160655186
135083	50	129	0	0	parachute	1118	129	0	stimuli\parachute\parachute_01b.jpg	0	-1	0	0	parachute_01b.jpg	0	0	0	160.272387069999	160.322370442213	0.0499833722133189
135183	50	130	0	0	videocassette	1761	130	0	stimuli\videocassette\videocassette_05n.jpg	4	-1	0	0	videocassette_05n.jpg	0	0	0	160.372391604818	160.422357178875	0.0499655740568414
135283	50	131	0	0	spider_web	1514	131	0	stimuli\spider_web\spider_web_12s.jpg	11	-1	0	0	spider_web_12s.jpg	0	0	0	160.472371271113	160.522353911889	0.0499826407758519
135383	50	132	0	0	hula_hoop	810	132	0	stimuli\hula_hoop\hula_hoop_10s.jpg	9	-1	0	0	hula_hoop_10s.jpg	0	0	0	160.572370198322	160.62235771527	0.0499875169480219
135483	50	133	0	0	timer	1661	133	0	stimuli\timer\timer_06s.jpg	5	-1	0	0	timer_06s.jpg	0	0	0	160.672371807508	160.722358105355	0.0499862978467718
135583	50	134	0	0	bedpan	109	134	0	stimuli\bedpan\bedpan_08s.jpg	7	-1	0	0	bedpan_08s.jpg	0	0	0	160.772373904241	160.822360202204	0.0499862979631871
135683	50	135	0	0	shopping_basket	1427	135	0	stimuli\shopping_basket\shopping_basket_07s.jpg	6	-1	0	0	shopping_basket_07s.jpg	0	0	0	160.872379170498	160.922361079836	0.0499819093383849
135783	50	136	0	0	horse	798	136	0	stimuli\horse\horse_10s.jpg	9	-1	0	0	horse_10s.jpg	0	0	0	160.972380048246	161.022363908007	0.0499838597606868
135883	50	137	0	0	touchpad	1691	137	0	stimuli\touchpad\touchpad_05s.jpg	4	-1	0	0	touchpad_05s.jpg	0	0	0	161.072384095518	161.122359178145	0.0499750826274976
135983	50	138	0	0	oatmeal	1069	138	0	stimuli\oatmeal\oatmeal_05s.jpg	4	-1	0	0	oatmeal_05s.jpg	0	0	0	161.172383022727	161.222357373917	0.0499743511900306
136083	50	139	0	0	sparkler	1507	139	0	stimuli\sparkler\sparkler_02s.jpg	1	-1	0	0	sparkler_02s.jpg	0	0	0	161.272387069999	161.322360689752	0.0499736197525635
136183	50	140	0	0	watch	1786	140	0	stimuli\watch\watch_09s.jpg	8	-1	0	0	watch_09s.jpg	0	0	0	161.372389166732	161.422363274149	0.0499741074163467
136283	50	141	0	0	eye	564	141	0	stimuli\eye\eye_12s.jpg	11	-1	0	0	eye_12s.jpg	0	0	0	161.472392970114	161.522378780413	0.049985810299404
136383	50	142	0	0	panda	1105	142	0	stimuli\panda\panda_07s.jpg	6	-1	0	0	panda_07s.jpg	0	0	0	161.572384095518	161.62239282392	0.0500087284017354
136483	50	143	0	0	muff	1034	143	0	stimuli\muff\muff_03s.jpg	2	-1	0	0	muff_03s.jpg	0	0	0	161.672405209392	161.72238980059	0.0499845911981538
136583	50	144	0	0	cilantro	347	144	0	stimuli\cilantro\cilantro_11s.jpg	10	-1	0	0	cilantro_11s.jpg	0	0	0	161.772401210852	161.82238897169	0.0499877608381212
136683	50	145	0	0	grape	702	145	0	stimuli\grape\grape_01b.jpg	0	-1	0	0	grape_01b.jpg	0	0	0	161.872403307701	161.922388386563	0.0499850788619369
136783	50	146	0	0	printer	1240	146	0	stimuli\printer\printer_02s.jpg	1	-1	0	0	printer_02s.jpg	0	0	0	161.972411499708	162.022391214734	0.0499797150259838
136883	50	147	0	0	meatloaf	990	147	0	stimuli\meatloaf\meatloaf_06s.jpg	5	-1	0	0	meatloaf_06s.jpg	0	0	0	162.072407988831	162.122395505779	0.0499875169480219
136983	50	148	0	0	fire_pit	593	148	0	stimuli\fire_pit\fire_pit_09s.jpg	8	-1	0	0	fire_pit_09s.jpg	0	0	0	162.172413255088	162.222394676763	0.0499814216746017
137083	50	149	0	0	wick	1815	149	0	stimuli\wick\wick_07s.jpg	6	-1	0	0	wick_07s.jpg	0	0	0	162.272403405164	162.322403844097	0.0500004389323294
137183	50	150	0	0	seal	1397	150	0	stimuli\seal\seal_04s.jpg	3	-1	0	0	seal_04s.jpg	0	0	0	162.372425250476	162.422403746517	0.0499784960411489
137283	50	151	0	0	broccoli	201	151	0	stimuli\broccoli\broccoli_01b.jpg	0	-1	0	0	broccoli_01b.jpg	0	0	0	162.472425153013	162.522406330914	0.0499811779009178
137383	50	152	0	0	grapevine	704	152	0	stimuli\grapevine\grapevine_09s.jpg	8	-1	0	0	grapevine_09s.jpg	0	0	0	162.572425299324	162.622411597171	0.0499862978467718
137483	50	153	0	0	swab	1590	153	0	stimuli\swab\swab_12s.jpg	11	-1	0	0	swab_12s.jpg	0	0	0	162.672429102706	162.722409305396	0.0499802026897669
137583	50	154	0	0	tube_top	1724	154	0	stimuli\tube_top\tube_top_02s.jpg	1	-1	0	0	tube_top_02s.jpg	0	0	0	162.772448753705	162.822429444059	0.04998069035355
137683	50	155	0	0	bow1	174	155	0	stimuli\bow1\bow1_07s.jpg	6	-1	0	0	bow1_07s.jpg	0	0	0	162.872428907664	162.9224154494	0.049986541736871
137783	50	156	0	0	porthole	1227	156	0	stimuli\porthole\porthole_01b.jpg	0	-1	0	0	porthole_01b.jpg	0	0	0	162.972422227263	163.022418033797	0.0499958065338433
137883	50	157	0	0	pepperoni	1153	157	0	stimuli\pepperoni\pepperoni_07s.jpg	6	-1	0	0	pepperoni_07s.jpg	0	0	0	163.072432125919	163.122426225804	0.0499940998852253
137983	50	158	0	0	guacamole	719	158	0	stimuli\guacamole\guacamole_08s.jpg	7	-1	0	0	guacamole_08s.jpg	0	0	0	163.172440074151	163.222409792943	0.0499697187915444
138083	50	159	0	0	souffle	1498	159	0	stimuli\souffle\souffle_11s.jpg	10	-1	0	0	souffle_11s.jpg	0	0	0	163.272443389986	163.322413596441	0.0499702064553276
138183	50	160	0	0	locker	941	160	0	stimuli\locker\locker_06s.jpg	5	-1	0	0	locker_06s.jpg	0	0	0	163.372434759047	163.422415936948	0.0499811779009178
138283	50	161	0	0	sewing_machine	1407	161	0	stimuli\sewing_machine\sewing_machine_05s.jpg	4	-1	0	0	sewing_machine_05s.jpg	0	0	0	163.472436855896	163.522423153743	0.0499862978467718
138383	50	162	0	0	teapot	1634	162	0	stimuli\teapot\teapot_03s.jpg	2	-1	0	0	teapot_03s.jpg	0	0	0	163.572436758317	163.622424275265	0.0499875169480219
138483	50	163	0	0	highlighter	778	163	0	stimuli\highlighter\highlighter_01b.jpg	0	-1	0	0	highlighter_01b.jpg	0	0	0	163.672437392175	163.722427834873	0.0499904426978901
138583	50	164	0	0	airbag	7	164	0	stimuli\airbag\airbag_08s.jpg	7	-1	0	0	airbag_08s.jpg	0	0	0	163.772447047057	163.822424080223	0.0499770331662148
138683	50	165	0	0	life_jacket	924	165	0	stimuli\life_jacket\life_jacket_07s.jpg	6	-1	0	0	life_jacket_07s.jpg	1	0	0	163.872444755281	163.922429834143	0.0499850788619369
138783	50	166	0	0	punch1	1254	166	0	stimuli\punch1\punch1_07s.jpg	6	-1	0	0	punch1_07s.jpg	0	0	0	163.972447583452	164.022433393751	0.049985810299404
138883	50	167	0	0	rose	1334	167	0	stimuli\rose\rose_12s.jpg	11	-1	0	0	rose_12s.jpg	0	0	0	164.07245406881	164.122438660008	0.0499845911981538
138983	50	168	0	0	lock	940	168	0	stimuli\lock\lock_10s.jpg	9	-1	0	0	lock_10s.jpg	0	0	0	164.172454215121	164.222439293982	0.0499850788619369
139083	50	169	0	0	buffet	211	169	0	stimuli\buffet\buffet_03s.jpg	2	-1	0	0	buffet_03s.jpg	0	0	0	164.272453873768	164.322439440177	0.0499855664093047
139183	50	170	0	0	deodorant	479	170	0	stimuli\deodorant\deodorant_01b.jpg	0	-1	0	0	deodorant_01b.jpg	0	0	0	164.37246450386	164.422455921769	0.049991417909041
139283	50	171	0	0	shoelace	1426	171	0	stimuli\shoelace\shoelace_09s.jpg	8	-1	0	0	shoelace_09s.jpg	0	0	0	164.472470501554	164.522443633759	0.0499731322051957
139383	50	172	0	0	tie	1658	172	0	stimuli\tie\tie_03s.jpg	2	-1	0	0	tie_03s.jpg	0	0	0	164.57247771835	164.622451094328	0.0499733759788796
139483	50	173	0	0	headband	762	173	0	stimuli\headband\headband_01b.jpg	0	-1	0	0	headband_01b.jpg	0	0	0	164.672470306512	164.722449046327	0.0499787398148328
139583	50	174	0	0	scarf	1377	174	0	stimuli\scarf\scarf_11s.jpg	10	-1	0	0	scarf_11s.jpg	0	0	0	164.772464845213	164.822453825036	0.049988979822956
139683	50	175	0	0	palette	1100	175	0	stimuli\palette\palette_08s.jpg	7	-1	0	0	palette_08s.jpg	0	0	0	164.872471330455	164.922458847403	0.0499875169480219
139783	50	176	0	0	chinaware	331	176	0	stimuli\chinaware\chinaware_01b.jpg	0	-1	0	0	chinaware_01b.jpg	0	0	0	164.972477815812	165.022461188026	0.0499833722133189
139883	50	177	0	0	lion	933	177	0	stimuli\lion\lion_05s.jpg	4	-1	0	0	lion_05s.jpg	0	0	0	165.072490152554	165.122467673384	0.049977520829998
139983	50	178	0	0	bullet	216	178	0	stimuli\bullet\bullet_06s.jpg	5	-1	0	0	bullet_06s.jpg	0	0	0	165.172497857013	165.222464406281	0.0499665492679924
140083	50	179	0	0	doily	498	179	0	stimuli\doily\doily_10s.jpg	9	-1	0	0	doily_10s.jpg	0	0	0	165.272495809011	165.322473085951	0.0499772769398987
140183	50	180	0	0	wolf	1831	180	0	stimuli\wolf\wolf_02s.jpg	1	-1	0	0	wolf_02s.jpg	0	0	0	165.372498880955	165.422470550286	0.0499716693302616
140283	50	181	0	0	foam	624	181	0	stimuli\foam\foam_07s.jpg	6	-1	0	0	foam_07s.jpg	0	0	0	165.472500246251	165.52247386612	0.0499736198689789
140383	50	182	0	0	camera1	246	182	0	stimuli\camera1\camera1_08n.jpg	7	-1	0	0	camera1_08n.jpg	0	0	0	165.572487714468	165.622478888603	0.0499911741353571
140483	50	183	0	0	doorknocker	510	183	0	stimuli\doorknocker\doorknocker_07s.jpg	6	-1	0	0	doorknocker_07s.jpg	0	0	0	165.672507365583	165.72247001389	0.0499626483069733
140583	50	184	0	0	kettle	868	184	0	stimuli\kettle\kettle_06s.jpg	5	-1	0	0	kettle_06s.jpg	0	0	0	165.772524334723	165.8225286745	0.0500043397769332
140683	50	185	0	0	bib	122	185	0	stimuli\bib\bib_10n.jpg	9	-1	0	0	bib_10n.jpg	0	0	0	165.872503513354	165.922484935028	0.0499814216746017
140783	50	186	0	0	jelly_bean	844	186	0	stimuli\jelly_bean\jelly_bean_10s.jpg	9	-1	0	0	jelly_bean_10s.jpg	0	0	0	165.972501709126	166.022488738527	0.0499870294006541
140883	50	187	0	0	groundhog	718	187	0	stimuli\groundhog\groundhog_03n.jpg	2	-1	0	0	groundhog_03n.jpg	0	0	0	166.072507219273	166.122491810471	0.0499845911981538
140983	50	188	0	0	lunchbox	950	188	0	stimuli\lunchbox\lunchbox_01b.jpg	0	-1	0	0	lunchbox_01b.jpg	0	0	0	166.172510047443	166.222488299594	0.0499782521510497
141083	50	189	0	0	pepper2	1150	189	0	stimuli\pepper2\pepper2_11s.jpg	10	-1	0	0	pepper2_11s.jpg	0	0	0	166.272503854707	166.322500636452	0.0499967817449942
141183	50	190	0	0	showerhead	1436	190	0	stimuli\showerhead\showerhead_04s.jpg	3	-1	0	0	showerhead_04s.jpg	0	0	0	166.372515703784	166.422499075998	0.0499833722133189
141283	50	191	0	0	bag	54	191	0	stimuli\bag\bag_03s.jpg	2	-1	0	0	bag_03s.jpg	0	0	0	166.472509998712	166.52249727177	0.0499872730579227
141383	50	192	0	0	coal	367	192	0	stimuli\coal\coal_11s.jpg	10	-1	0	0	coal_11s.jpg	0	0	0	166.572514533531	166.622508145752	0.0499936122214422
141483	50	193	0	0	prune	1244	193	0	stimuli\prune\prune_06s.jpg	5	-1	0	0	prune_06s.jpg	0	0	0	166.672522969311	166.722542181495	0.0500192121835425
141583	50	194	0	0	toothpick	1681	194	0	stimuli\toothpick\toothpick_01b.jpg	0	-1	0	0	toothpick_01b.jpg	0	0	0	166.772524334723	166.822533794446	0.0500094597227871
141683	50	195	0	0	shears	1412	195	0	stimuli\shears\shears_11s.jpg	10	-1	0	0	shears_11s.jpg	0	0	0	166.872525700019	166.922509072232	0.0499833722133189
141783	50	196	0	0	watering_can	1792	196	0	stimuli\watering_can\watering_can_04s.jpg	3	-1	0	0	watering_can_04s.jpg	0	0	0	166.972525114892	167.022508730879	0.0499836159870028
141883	50	197	0	0	moccasin	1010	197	0	stimuli\moccasin\moccasin_01b.jpg	0	-1	0	0	moccasin_01b.jpg	0	0	0	167.072535744985	167.122515216237	0.0499794712522998
141983	50	198	0	0	garlic	658	198	0	stimuli\garlic\garlic_09s.jpg	8	-1	0	0	garlic_09s.jpg	0	0	0	167.172529552248	167.222515118658	0.0499855664093047
142083	50	199	0	0	teddy_bear	1635	199	0	stimuli\teddy_bear\teddy_bear_03s.jpg	2	-1	0	0	teddy_bear_03s.jpg	0	0	0	167.272531405091	167.322513802093	0.049982397002168
142183	50	200	0	0	sunroof	1586	200	0	stimuli\sunroof\sunroof_03s.jpg	2	-1	0	0	sunroof_03s.jpg	0	0	0	167.372536183801	167.422520043678	0.0499838598771021
142283	50	201	0	0	wine_cooler	1825	201	0	stimuli\wine_cooler\wine_cooler_06s.jpg	5	-1	0	0	wine_cooler_06s.jpg	0	0	0	167.472536817659	167.522520189872	0.0499833722133189
142383	50	202	0	0	tuning_fork	1728	202	0	stimuli\tuning_fork\tuning_fork_01b.jpg	0	-1	0	0	tuning_fork_01b.jpg	0	0	0	167.572540133493	167.622554713278	0.0500145797850564
142483	50	203	0	0	skin	1456	203	0	stimuli\skin\skin_01b.jpg	0	-1	0	0	skin_01b.jpg	0	0	0	167.672573925462	167.722541450057	0.0499675245955586
142583	50	204	0	0	oar	1068	204	0	stimuli\oar\oar_04s.jpg	3	-1	0	0	oar_04s.jpg	0	0	0	167.772578216507	167.822534525883	0.0499563093762845
142683	50	205	0	0	vase	1753	205	0	stimuli\vase\vase_01b.jpg	0	-1	0	0	vase_01b.jpg	0	0	0	167.872550568543	167.922531015007	0.0499804464634508
142783	50	206	0	0	switch	1600	206	0	stimuli\switch\switch_07s.jpg	6	-1	0	0	switch_07s.jpg	0	0	0	167.97255607869	168.022537988028	0.0499819093383849
142883	50	207	0	0	sonogram	1496	207	0	stimuli\sonogram\sonogram_02s.jpg	1	-1	0	0	sonogram_02s.jpg	0	0	0	168.072558419197	168.122542522848	0.049984103650786
142983	50	208	0	0	scrabble	1385	208	0	stimuli\scrabble\scrabble_06s.jpg	5	-1	0	0	scrabble_06s.jpg	0	0	0	168.172559296945	168.222540231072	0.0499809341272339
143083	50	209	0	0	paper_bag	1113	209	0	stimuli\paper_bag\paper_bag_04s.jpg	3	-1	0	0	paper_bag_04s.jpg	0	0	0	168.272558468045	168.322545984993	0.0499875169480219
143183	50	210	0	0	leg	911	210	0	stimuli\leg\leg_10s.jpg	9	-1	0	0	leg_10s.jpg	0	0	0	168.372559345677	168.422551007476	0.0499916617991403
143283	50	211	0	0	strainer	1566	211	0	stimuli\strainer\strainer_02s.jpg	1	-1	0	0	strainer_02s.jpg	0	0	0	168.472569000558	168.522552860319	0.0499838597606868
143383	50	212	0	0	tongs	1674	212	0	stimuli\tongs\tongs_07s.jpg	6	-1	0	0	tongs_07s.jpg	0	0	0	168.572573535377	168.622559345677	0.049985810299404
143483	50	213	0	0	centrifuge	296	213	0	stimuli\centrifuge\centrifuge_01b.jpg	0	-1	0	0	centrifuge_01b.jpg	0	0	0	168.672573194141	168.722555347253	0.0499821531120688
143583	50	214	0	0	crab	428	214	0	stimuli\crab\crab_03s.jpg	2	-1	0	0	crab_03s.jpg	0	0	0	168.772579679382	168.822577924002	0.0499982446199283
143683	50	215	0	0	ice-cream_cone	817	215	0	stimuli\ice-cream_cone\ice-cream_cone_03s.jpg	2	-1	0	0	ice-cream_cone_03s.jpg	0	0	0	168.872585433302	168.922570999828	0.0499855665257201
143783	50	216	0	0	cow	426	216	0	stimuli\cow\cow_03s.jpg	2	-1	0	0	cow_03s.jpg	0	0	0	168.972576071043	169.022565050866	0.049988979822956
143883	50	217	0	0	duct_tape	528	217	0	stimuli\duct_tape\duct_tape_12s.jpg	11	-1	0	0	duct_tape_12s.jpg	0	0	0	169.072579142987	169.12256544095	0.0499862979631871
143983	50	218	0	0	soccer_ball	1488	218	0	stimuli\soccer_ball\soccer_ball_12s.jpg	11	-1	0	1	soccer_ball_12s.jpg	0	0	0	169.17258148361	169.22257680248	0.0499953188700601
144083	50	219	0	0	dagger	469	219	0	stimuli\dagger\dagger_05s.jpg	4	-1	0	0	dagger_05s.jpg	0	0	0	169.272591382265	169.322599866893	0.0500084846280515
144183	50	220	0	0	splinter	1516	220	0	stimuli\splinter\splinter_12s.jpg	11	-1	0	0	splinter_12s.jpg	0	0	0	169.372623955249	169.42259391793	0.0499699626816437
144283	50	221	0	0	terrarium	1644	221	0	stimuli\terrarium\terrarium_02s.jpg	1	-1	0	0	terrarium_02s.jpg	1	0.303843606961891	1	169.472632391029	169.522606498445	0.0499741074163467
144383	50	222	0	0	surfboard	1587	222	0	stimuli\surfboard\surfboard_09s.jpg	8	-1	0	0	surfboard_09s.jpg	0	0	0	169.57260328019	169.622583726654	0.0499804464634508
144483	50	223	0	0	mousepad	1028	223	0	stimuli\mousepad\mousepad_08s.jpg	7	-1	0	0	mousepad_08s.jpg	0	0	0	169.672600013088	169.722589968122	0.049989955034107
144583	50	224	0	0	hydrant	814	224	0	stimuli\hydrant\hydrant_09s.jpg	8	-1	0	0	hydrant_09s.jpg	0	0	0	169.772608936531	169.822592064971	0.049983128439635
144683	50	225	0	0	lightbulb	927	225	0	stimuli\lightbulb\lightbulb_03s.jpg	2	-1	0	0	lightbulb_03s.jpg	0	0	0	169.872612983803	169.922592211165	0.0499792273622006
144783	50	226	0	0	stiletto	1554	226	0	stimuli\stiletto\stiletto_10s.jpg	9	-1	0	0	stiletto_10s.jpg	0	0	0	169.972609229153	170.022593088914	0.0499838597606868
144883	50	227	0	0	coin	385	227	0	stimuli\coin\coin_02s.jpg	1	-1	0	0	coin_02s.jpg	0	0	0	170.072615714394	170.122600549483	0.049984835088253
144983	50	228	0	0	chalk	302	228	0	stimuli\chalk\chalk_05s.jpg	4	-1	0	0	chalk_05s.jpg	0	0	0	170.172611228307	170.222604596755	0.0499933684477583
145083	50	229	0	0	lava	903	229	0	stimuli\lava\lava_02s.jpg	1	-1	0	0	lava_02s.jpg	0	0	0	170.272620395641	170.322600110667	0.0499797150259838
145183	50	230	0	0	thread	1651	230	0	stimuli\thread\thread_02s.jpg	1	-1	0	0	thread_02s.jpg	0	0	0	170.37262493046	170.422601963626	0.0499770331662148
145283	50	231	0	0	leaf	906	231	0	stimuli\leaf\leaf_09s.jpg	8	-1	0	0	leaf_09s.jpg	0	0	0	170.472621419583	170.522608205094	0.0499867855105549
145383	50	232	0	0	pulley	1250	232	0	stimuli\pulley\pulley_08s.jpg	7	-1	0	0	pulley_08s.jpg	0	0	0	170.572627661168	170.622611520928	0.0499838597606868
145483	50	233	0	0	paddle	1094	233	0	stimuli\paddle\paddle_12s.jpg	11	-1	0	0	paddle_12s.jpg	0	0	0	170.672631464549	170.722613130114	0.049981665564701
145583	50	234	0	0	telephone_pole	1639	234	0	stimuli\telephone_pole\telephone_pole_05s.jpg	4	-1	0	0	telephone_pole_05s.jpg	0	0	0	170.772629416548	170.822611082112	0.049981665564701
145683	50	235	0	0	pogo_stick	1208	235	0	stimuli\pogo_stick\pogo_stick_05s.jpg	4	-1	0	0	pogo_stick_05s.jpg	0	0	0	170.872631513281	170.92261732358	0.049985810299404
145783	50	236	0	0	shorts	1430	236	0	stimuli\shorts\shorts_01b.jpg	0	-1	0	0	shorts_01b.jpg	0	0	0	170.972633122467	171.022618932766	0.049985810299404
145883	50	237	0	0	accordion	2	237	0	stimuli\accordion\accordion_10s.jpg	9	-1	0	0	accordion_10s.jpg	0	0	0	171.072637657286	171.122620298062	0.0499826407758519
145983	50	238	0	0	polygraph	1217	238	0	stimuli\polygraph\polygraph_05s.jpg	4	-1	0	0	polygraph_05s.jpg	0	0	0	171.172640241683	171.222624589107	0.0499843474244699
146083	50	239	0	0	hair	733	239	0	stimuli\hair\hair_02s.jpg	1	-1	0	0	hair_02s.jpg	0	0	0	171.27264672704	171.322628148715	0.0499814216746017
146183	50	240	0	0	tripod	1714	240	0	stimuli\tripod\tripod_06s.jpg	5	-1	0	0	tripod_06s.jpg	0	0	0	171.372649798985	171.422634146409	0.0499843474244699
146283	50	241	0	0	jumpsuit	859	241	0	stimuli\jumpsuit\jumpsuit_04s.jpg	3	-1	0	0	jumpsuit_04s.jpg	0	0	0	171.472647263436	171.52263429272	0.0499870292842388
146383	50	242	0	0	pig	1170	242	0	stimuli\pig\pig_12s.jpg	11	-1	0	0	pig_12s.jpg	0	0	0	171.57265594299	171.622639071429	0.049983128439635
146483	50	243	0	0	washcloth	1783	243	0	stimuli\washcloth\washcloth_03s.jpg	2	-1	0	0	washcloth_03s.jpg	0	0	0	171.672656820738	171.722635072889	0.0499782521510497
146583	50	244	0	0	crumb	451	244	0	stimuli\crumb\crumb_01b.jpg	0	-1	0	0	crumb_01b.jpg	0	0	0	171.772655260283	171.822645215434	0.0499899551505223
146683	50	245	0	0	speaker	1509	245	0	stimuli\speaker\speaker_07s.jpg	6	-1	0	0	speaker_07s.jpg	0	0	0	171.872661258094	171.922649018816	0.0499877607217059
146783	50	246	0	0	corkscrew	411	246	0	stimuli\corkscrew\corkscrew_11s.jpg	10	-1	0	0	corkscrew_11s.jpg	0	0	0	171.972667255788	172.022645995603	0.0499787398148328
146883	50	247	0	0	hat	757	247	0	stimuli\hat\hat_08s.jpg	7	-1	0	0	hat_08s.jpg	0	0	0	172.07266837731	172.122655894258	0.0499875169480219
146983	50	248	0	0	handle	748	248	0	stimuli\handle\handle_10s.jpg	9	-1	0	0	handle_10s.jpg	0	0	0	172.172679251176	172.222658966202	0.0499797150259838
147083	50	249	0	0	baton4	95	249	0	stimuli\baton4\baton4_11s.jpg	10	-1	0	0	baton4_11s.jpg	0	0	0	172.272668182268	172.322658868739	0.049990686471574
147183	50	250	0	0	waterwheel	1794	250	0	stimuli\waterwheel\waterwheel_06s.jpg	5	-1	0	0	waterwheel_06s.jpg	0	0	0	172.37266930379	172.42265316355	0.0499838597606868
147283	50	251	0	0	tree_trunk	1709	251	0	stimuli\tree_trunk\tree_trunk_06s.jpg	5	-1	0	0	tree_trunk_06s.jpg	0	0	0	172.472680177656	172.522662086994	0.0499819093383849
147383	50	252	0	0	whoopee_cushion	1814	252	0	stimuli\whoopee_cushion\whoopee_cushion_07s.jpg	6	-1	0	0	whoopee_cushion_07s.jpg	0	0	0	172.57268641924	172.62266930379	0.0499828845495358
147483	50	253	0	0	lip_gloss	935	253	0	stimuli\lip_gloss\lip_gloss_12s.jpg	11	-1	0	0	lip_gloss_12s.jpg	0	0	0	172.672690954059	172.722666768124	0.0499758140649647
147583	50	254	0	0	gate	662	254	0	stimuli\gate\gate_05s.jpg	4	-1	0	0	gate_05s.jpg	0	0	0	172.772683785995	172.822676179232	0.0499923932366073
147683	50	255	0	0	fire	590	255	0	stimuli\fire\fire_04s.jpg	3	-1	0	0	fire_04s.jpg	0	0	0	172.872692465666	172.922675837879	0.0499833722133189
147783	50	256	0	0	camera2	247	256	0	stimuli\camera2\camera2_11s.jpg	10	-1	0	0	camera2_11s.jpg	0	0	0	172.972689442453	173.022679153713	0.0499897112604231
147883	50	257	0	0	bookshelf	167	257	0	stimuli\bookshelf\bookshelf_06s.jpg	5	-1	0	0	bookshelf_06s.jpg	0	0	0	173.072693489608	173.122683688533	0.0499901989242062
147983	50	258	0	0	trophy	1717	258	0	stimuli\trophy\trophy_08s.jpg	7	-1	0	0	trophy_08s.jpg	0	0	0	173.172698755981	173.222686272929	0.0499875169480219
148083	50	259	0	0	peppermint	1152	259	0	stimuli\peppermint\peppermint_05s.jpg	4	-1	0	0	peppermint_05s.jpg	0	0	0	173.272719382192	173.322686906788	0.0499675245955586
148183	50	260	0	0	wand	1780	260	0	stimuli\wand\wand_04s.jpg	3	-1	0	0	wand_04s.jpg	0	0	0	173.372721478925	173.422689491184	0.0499680122593418
148283	50	261	0	0	spaghetti	1503	261	0	stimuli\spaghetti\spaghetti_10s.jpg	9	-1	0	0	spaghetti_10s.jpg	0	0	0	173.472712360555	173.522689393605	0.0499770330497995
148383	50	262	0	0	vulture	1768	262	0	stimuli\vulture\vulture_06s.jpg	5	-1	0	0	vulture_06s.jpg	0	0	0	173.572731523891	173.622704656096	0.0499731322051957
148483	50	263	0	0	rabbit	1265	263	0	stimuli\rabbit\rabbit_05s.jpg	4	-1	0	0	rabbit_05s.jpg	0	0	0	173.672709483537	173.722681152867	0.0499716693302616
148583	50	264	0	0	beaver	107	264	0	stimuli\beaver\beaver_11n.jpg	10	-1	0	0	beaver_11n.jpg	0	0	0	173.772713043145	173.822695683921	0.0499826407758519
148683	50	265	0	0	beehive	112	265	0	stimuli\beehive\beehive_04s.jpg	3	-1	0	0	beehive_04s.jpg	0	0	0	173.872719772276	173.922700706404	0.0499809341272339
148783	50	266	0	0	hedge	773	266	0	stimuli\hedge\hedge_07s.jpg	6	-1	0	0	hedge_07s.jpg	0	0	0	173.972705533844	174.022699633613	0.04999409976881
148883	50	267	0	0	kiwi	876	267	0	stimuli\kiwi\kiwi_03s.jpg	2	-1	0	0	kiwi_03s.jpg	0	0	0	174.072714457288	174.122696122853	0.049981665564701
148983	50	268	0	0	whiteboard	1813	268	0	stimuli\whiteboard\whiteboard_03s.jpg	2	-1	0	0	whiteboard_03s.jpg	0	0	0	174.172731913975	174.222698707134	0.0499667931580916
149083	50	269	0	0	green_beans	712	269	0	stimuli\green_beans\green_beans_12s.jpg	11	-1	0	0	green_beans_12s.jpg	0	0	0	174.272718894645	174.322697146796	0.0499782521510497
149183	50	270	0	0	dynamite	536	270	0	stimuli\dynamite\dynamite_07s.jpg	6	-1	0	0	dynamite_07s.jpg	0	0	0	174.372730256175	174.422715091147	0.0499848349718377
149283	50	271	0	0	wine_bottle	1824	271	0	stimuli\wine_bottle\wine_bottle_09s.jpg	8	-1	0	0	wine_bottle_09s.jpg	0	0	0	174.472736741416	174.522716456559	0.0499797151423991
149383	50	272	0	0	cardinal	274	272	0	stimuli\cardinal\cardinal_01b.jpg	0	-1	0	0	cardinal_01b.jpg	0	0	0	174.572733961977	174.62272025994	0.0499862979631871
149483	50	273	0	0	springboard	1522	273	0	stimuli\springboard\springboard_11s.jpg	10	-1	0	0	springboard_11s.jpg	0	0	0	174.672734352062	174.722723088111	0.0499887360492721
149583	50	274	0	0	cassette	283	274	0	stimuli\cassette\cassette_05s.jpg	4	-1	0	0	cassette_05s.jpg	0	0	0	174.772739618435	174.822723234422	0.0499836159870028
149683	50	275	0	0	taillight	1617	275	0	stimuli\taillight\taillight_11s.jpg	10	-1	0	0	taillight_11s.jpg	0	0	0	174.872741471394	174.922723624506	0.0499821531120688
149783	50	276	0	0	machete	953	276	0	stimuli\machete\machete_05s.jpg	4	-1	0	0	machete_05s.jpg	0	0	0	174.972742105252	175.022727915552	0.049985810299404
149883	50	277	0	0	milkshake	1002	277	0	stimuli\milkshake\milkshake_06s.jpg	5	-1	0	0	milkshake_06s.jpg	0	0	0	175.072742007789	175.122736838995	0.049994831206277
149983	50	278	0	0	can_opener	251	278	0	stimuli\can_opener\can_opener_09s.jpg	8	-1	0	0	can_opener_09s.jpg	0	0	0	175.172754588304	175.22274015483	0.0499855665257201
150083	50	279	0	0	foot	628	279	0	stimuli\foot\foot_05s.jpg	4	-1	0	0	foot_05s.jpg	0	0	0	175.272750102216	175.322732986766	0.0499828845495358
150183	50	280	0	0	wreck	1840	280	0	stimuli\wreck\wreck_07s.jpg	6	-1	0	0	wreck_07s.jpg	0	0	0	175.372754880926	175.422738009249	0.0499831283232197
150283	50	281	0	0	gingerbread_man	674	281	0	stimuli\gingerbread_man\gingerbread_man_05s.jpg	4	-1	0	0	gingerbread_man_05s.jpg	0	0	0	175.472754051909	175.522762780311	0.0500087284017354
150383	50	282	0	0	lobster	939	282	0	stimuli\lobster\lobster_12s.jpg	11	-1	0	0	lobster_12s.jpg	0	0	0	175.572759562056	175.622750736075	0.0499911740189418
150483	50	283	0	0	ice	816	283	0	stimuli\ice\ice_01b.jpg	0	-1	0	0	ice_01b.jpg	0	0	0	175.672766047297	175.7227496634	0.0499836161034182
150583	50	284	0	0	button2	231	284	0	stimuli\button2\button2_02s.jpg	1	-1	0	0	button2_02s.jpg	0	0	0	175.772763024084	175.82274859061	0.0499855665257201
150683	50	285	0	0	ball	59	285	0	stimuli\ball\ball_06s.jpg	5	-1	0	0	ball_06s.jpg	0	0	0	175.872768778005	175.922748980694	0.0499802026897669
150783	50	286	0	0	playing_card	1199	286	0	stimuli\playing_card\playing_card_04s.jpg	3	-1	0	0	playing_card_04s.jpg	0	0	0	175.972768192878	176.022736692685	0.0499684998067096
150883	50	287	0	0	toad	1664	287	0	stimuli\toad\toad_01b.jpg	0	-1	0	0	toad_01b.jpg	0	0	0	176.072777116322	176.122758294223	0.0499811779009178
150983	50	288	0	0	boxing_gloves	183	288	0	stimuli\boxing_gloves\boxing_gloves_10s.jpg	9	-1	0	0	boxing_gloves_10s.jpg	0	0	0	176.172777993954	176.222761122393	0.049983128439635
151083	50	289	0	0	chariot	309	289	0	stimuli\chariot\chariot_03s.jpg	2	-1	0	0	chariot_03s.jpg	0	0	0	176.272780578351	176.322789306752	0.0500087284017354
151183	50	290	0	0	grille	715	290	0	stimuli\grille\grille_05s.jpg	4	-1	0	0	grille_05s.jpg	0	0	0	176.3728090066	176.422786039766	0.0499770331662148
151283	50	291	0	0	throne	1652	291	0	stimuli\throne\throne_10s.jpg	9	-1	0	0	throne_10s.jpg	0	0	0	176.472807446145	176.522772776429	0.0499653302831575
151383	50	292	0	0	finger	588	292	0	stimuli\finger\finger_01b.jpg	0	-1	0	0	finger_01b.jpg	0	0	0	176.572797596338	176.622779505677	0.0499819093383849
151483	50	293	0	0	pendulum	1144	293	0	stimuli\pendulum\pendulum_07s.jpg	6	-1	0	0	pendulum_07s.jpg	0	0	0	176.672792378813	176.7227759948	0.0499836159870028
151583	50	294	0	0	stingray	1556	294	0	stimuli\stingray\stingray_11s.jpg	10	-1	0	0	stingray_11s.jpg	0	0	0	176.772775458405	176.822785649681	0.0500101912766695
151683	50	295	0	0	pot	1230	295	0	stimuli\pot\pot_08s.jpg	7	-1	0	0	pot_08s.jpg	0	0	0	176.872801936115	176.922773849219	0.0499719131039456
151783	50	296	0	0	baseball_glove	80	296	0	stimuli\baseball_glove\baseball_glove_08s.jpg	7	-1	0	0	baseball_glove_08s.jpg	0	0	0	176.972799156676	177.022777165053	0.0499780083773658
151883	50	297	0	0	credit_card	438	297	0	stimuli\credit_card\credit_card_02s.jpg	1	-1	0	0	credit_card_02s.jpg	0	0	0	177.072799059097	177.122785844724	0.0499867856269702
151983	50	298	0	0	goblet	685	298	0	stimuli\goblet\goblet_03s.jpg	2	-1	0	0	goblet_03s.jpg	0	0	0	177.17279871786	177.222782821395	0.0499841035343707
152083	50	299	0	0	leotard	918	299	0	stimuli\leotard\leotard_06s.jpg	5	-1	0	0	leotard_06s.jpg	0	0	0	177.272818612633	177.322795889573	0.0499772769398987
152183	50	300	0	0	ski_boots	1453	300	0	stimuli\ski_boots\ski_boots_08s.jpg	7	-1	0	0	ski_boots_08s.jpg	0	0	0	177.372830949374	177.422808957752	0.0499780083773658
152283	50	301	0	0	record	1295	301	0	stimuli\record\record_02s.jpg	1	-1	0	0	record_02s.jpg	0	0	0	177.472863278585	177.522801789804	0.049938511219807
152383	50	302	0	0	stove1	1563	302	0	stimuli\stove1\stove1_08s.jpg	7	-1	0	0	stove1_08s.jpg	0	0	0	177.572818320128	177.622798035154	0.0499797150259838
152483	50	303	0	0	hook2	794	303	0	stimuli\hook2\hook2_01b.jpg	0	-1	0	0	hook2_01b.jpg	0	0	0	177.672818222549	177.722800863325	0.0499826407758519
152583	50	304	0	0	steamroller	1545	304	0	stimuli\steamroller\steamroller_12s.jpg	11	-1	0	0	steamroller_12s.jpg	0	0	0	177.772820319282	177.822805398144	0.0499850788619369
152683	50	305	0	0	water_fountain	1790	305	0	stimuli\water_fountain\water_fountain_10s.jpg	9	-1	0	0	water_fountain_10s.jpg	0	0	0	177.872824366554	177.922803594032	0.0499792274786159
152783	50	306	0	0	blowfish	146	306	0	stimuli\blowfish\blowfish_01b.jpg	0	-1	0	0	blowfish_01b.jpg	0	0	0	177.972821099567	178.022790818359	0.0499697187915444
152883	50	307	0	0	bin	125	307	0	stimuli\bin\bin_01b.jpg	0	-1	0	0	bin_01b.jpg	0	0	0	178.072822464863	178.122817052295	0.0499945874325931
152983	50	308	0	0	camcorder	244	308	0	stimuli\camcorder\camcorder_07s.jpg	6	-1	0	0	camcorder_07s.jpg	0	0	0	178.172831144417	178.222813785193	0.0499826407758519
163300	50	309	0	0	nut	1066	0	1	stimuli\nut\nut_04s.jpg	3	-1	1	0	nut_04s.jpg	0	0	0	188.489765855251	188.539750446449	0.0499845911981538
163400	50	310	0	0	photograph	1164	1	1	stimuli\photograph\photograph_06s.jpg	5	-1	1	0	photograph_06s.jpg	0	0	0	188.58976770821	188.639748886111	0.0499811779009178
163500	50	311	0	0	hammer	741	2	1	stimuli\hammer\hammer_12s.jpg	11	-1	1	0	hammer_12s.jpg	0	0	0	188.689774681116	188.739752933267	0.0499782521510497
163600	50	312	0	0	blanket	136	3	1	stimuli\blanket\blanket_06s.jpg	5	-1	1	0	blanket_06s.jpg	0	0	0	188.789776046411	188.8397825805	0.0500065340893343
163700	50	313	0	0	wall	1775	4	1	stimuli\wall\wall_07s.jpg	6	-1	1	0	wall_07s.jpg	0	0	0	188.889794478426	188.939759564935	0.0499650865094736
163800	50	314	0	0	siren	1448	5	1	stimuli\siren\siren_12s.jpg	11	-1	1	0	siren_12s.jpg	0	0	0	188.989792918088	189.039756541722	0.0499636236345395
163900	50	315	0	0	corkboard	410	6	1	stimuli\corkboard\corkboard_07s.jpg	6	-1	1	0	corkboard_07s.jpg	0	0	0	189.089780873852	189.13976010133	0.0499792274786159
164000	50	316	0	0	keg	866	7	1	stimuli\keg\keg_05s.jpg	4	-1	1	0	keg_05s.jpg	0	0	0	189.189786140225	189.239768780884	0.0499826406594366
164100	50	317	0	0	dart	473	8	1	stimuli\dart\dart_10s.jpg	9	-1	1	0	dart_10s.jpg	0	0	0	189.289786774083	189.339768439648	0.049981665564701
164200	50	318	0	0	bowtie	180	9	1	stimuli\bowtie\bowtie_09s.jpg	8	-1	1	0	bowtie_09s.jpg	0	0	0	189.389790333691	189.439781020163	0.049990686471574
164300	50	319	0	0	headscarf	768	10	1	stimuli\headscarf\headscarf_06s.jpg	5	-1	1	0	headscarf_06s.jpg	0	0	0	189.489789260901	189.539769219817	0.049979958916083
164400	50	320	0	0	flip_flop	614	11	1	stimuli\flip_flop\flip_flop_01b.jpg	0	-1	1	0	flip_flop_01b.jpg	0	0	0	189.589793064399	189.639778143261	0.0499850788619369
164500	50	321	0	0	saltshaker	1350	12	1	stimuli\saltshaker\saltshaker_03s.jpg	2	-1	1	0	saltshaker_03s.jpg	0	0	0	189.689798574429	189.739778777119	0.0499802026897669
164600	50	322	0	0	board_game	153	13	1	stimuli\board_game\board_game_10s.jpg	9	-1	1	0	board_game_10s.jpg	0	0	0	189.789803109248	189.839779654867	0.049976545618847
164700	50	323	0	0	gun	727	14	1	stimuli\gun\gun_09s.jpg	8	-1	1	0	gun_09s.jpg	0	0	0	189.889825929888	189.939803938265	0.0499780083773658
164800	50	324	0	0	pickle	1167	15	1	stimuli\pickle\pickle_10n.jpg	9	-1	1	0	pickle_10n.jpg	0	0	0	189.989825832308	190.039804328349	0.0499784960411489
164900	50	325	0	0	gallows	653	16	1	stimuli\gallows\gallows_07s.jpg	6	-1	1	0	gallows_07s.jpg	0	0	0	190.089811593876	190.139795453637	0.0499838597606868
165000	50	326	0	0	soy_sauce	1500	17	1	stimuli\soy_sauce\soy_sauce_02s.jpg	1	-1	1	0	soy_sauce_02s.jpg	0	0	0	190.189808083	190.239793405635	0.0499853226356208
165100	50	327	0	0	checkers	311	18	1	stimuli\checkers\checkers_12s.jpg	11	-1	1	0	checkers_12s.jpg	0	0	0	190.289811886498	190.339789163438	0.0499772769398987
165200	50	328	0	0	easter_egg	543	19	1	stimuli\easter_egg\easter_egg_05s.jpg	4	-1	1	0	easter_egg_05s.jpg	0	0	0	190.389812520356	190.439795404905	0.0499828845495358
165300	50	329	0	0	mint	1004	20	1	stimuli\mint\mint_10s.jpg	9	-1	1	0	mint_10s.jpg	0	0	0	190.489815348526	190.539796526427	0.0499811779009178
165400	50	330	0	0	eyedropper	566	21	1	stimuli\eyedropper\eyedropper_03s.jpg	2	-1	1	0	eyedropper_03s.jpg	0	0	0	190.589820371009	190.639809594606	0.0499892235966399
165500	50	331	0	0	chip	333	22	1	stimuli\chip\chip_02s.jpg	1	-1	1	0	chip_02s.jpg	0	0	0	190.689824418281	190.739809984691	0.0499855664093047
165600	50	332	0	0	cooker	399	23	1	stimuli\cooker\cooker_07s.jpg	6	-1	1	0	cooker_07s.jpg	0	0	0	190.789827977889	190.839810618665	0.0499826407758519
165700	50	333	0	0	lego	913	24	1	stimuli\lego\lego_05s.jpg	4	-1	1	1	lego_05s.jpg	0	0	0	190.889825442224	190.939809302101	0.0499838598771021
165800	50	334	0	0	water_heater	1791	25	1	stimuli\water_heater\water_heater_02s.jpg	1	-1	1	0	water_heater_02s.jpg	0	0	0	190.989828270394	191.039810423623	0.0499821532284841
165900	50	335	0	0	hatchet	759	26	1	stimuli\hatchet\hatchet_09s.jpg	8	-1	1	0	hatchet_09s.jpg	0	0	0	191.089831830002	191.139814958442	0.049983128439635
166000	50	336	0	0	blower	145	27	1	stimuli\blower\blower_11s.jpg	10	-1	1	0	blower_11s.jpg	1	0.292171961744316	1	191.189833195414	191.239813885652	0.0499806902371347
166100	50	337	0	0	sickle	1441	28	1	stimuli\sickle\sickle_09s.jpg	8	-1	1	0	sickle_09s.jpg	0	0	0	191.289838217897	191.339816226275	0.0499780083773658
166200	50	338	0	0	mannequin	968	29	1	stimuli\mannequin\mannequin_08s.jpg	7	-1	1	0	mannequin_08s.jpg	0	0	0	191.389839583193	191.439817835344	0.0499782521510497
166300	50	339	0	0	clothespin	363	30	1	stimuli\clothespin\clothespin_03s.jpg	2	-1	1	0	clothespin_03s.jpg	0	0	0	191.489852895145	191.539826758788	0.0499738636426628
166400	50	340	0	0	sea_urchin	1393	31	1	stimuli\sea_urchin\sea_urchin_01b.jpg	0	-1	1	0	sea_urchin_01b.jpg	0	0	0	191.589845727198	191.639830318396	0.0499845911981538
166500	50	341	0	0	modem	1011	32	1	stimuli\modem\modem_07s.jpg	6	-1	1	0	modem_07s.jpg	0	0	0	191.689849286806	191.739827295183	0.0499780083773658
166600	50	342	0	0	telescope	1640	33	1	stimuli\telescope\telescope_07s.jpg	6	-1	1	0	telescope_07s.jpg	0	0	0	191.789847238804	191.839829391916	0.0499821531120688
166700	50	343	0	0	wing	1827	34	1	stimuli\wing\wing_02s.jpg	1	-1	1	0	wing_02s.jpg	0	0	0	191.889853724162	191.939832463977	0.0499787398148328
166800	50	344	0	0	jump_rope	858	35	1	stimuli\jump_rope\jump_rope_09s.jpg	8	-1	1	0	jump_rope_09s.jpg	0	0	0	191.989856796106	192.039838949335	0.0499821532284841
166900	50	345	0	0	wetsuit	1803	36	1	stimuli\wetsuit\wetsuit_12s.jpg	11	-1	1	0	wetsuit_12s.jpg	0	0	0	192.089859868167	192.139837388881	0.0499775207135826
167000	50	346	0	0	chessboard	318	37	1	stimuli\chessboard\chessboard_11s.jpg	10	-1	1	0	chessboard_11s.jpg	0	0	0	192.189859770588	192.239838998066	0.0499792274786159
167100	50	347	0	0	roll	1323	38	1	stimuli\roll\roll_12s.jpg	11	-1	1	0	roll_12s.jpg	0	0	0	192.289861136	192.339841094799	0.0499799587996677
167200	50	348	0	0	kimono	873	39	1	stimuli\kimono\kimono_08s.jpg	7	-1	1	0	kimono_08s.jpg	0	0	0	192.389864451718	192.439855625853	0.0499911741353571
167300	50	349	0	0	crystal_ball	455	40	1	stimuli\crystal_ball\crystal_ball_04s.jpg	3	-1	1	0	crystal_ball_04s.jpg	0	0	0	192.489868498989	192.539850164554	0.049981665564701
167400	50	350	0	0	bat2	88	41	1	stimuli\bat2\bat2_10s.jpg	9	-1	1	0	bat2_10s.jpg	0	0	0	192.589875471895	192.63984884799	0.049973376095295
167500	50	351	0	0	tambourine	1619	42	1	stimuli\tambourine\tambourine_10s.jpg	9	-1	1	0	tambourine_10s.jpg	0	0	0	192.689878056291	192.739855820895	0.0499777646036819
167600	50	352	0	0	dog	495	43	1	stimuli\dog\dog_01b.jpg	0	-1	1	0	dog_01b.jpg	0	0	0	192.789874789305	192.839857430081	0.0499826407758519
167700	50	353	0	0	egg_roll	547	44	1	stimuli\egg_roll\egg_roll_12n.jpg	11	-1	1	0	egg_roll_12n.jpg	0	0	0	192.889885175508	192.939858551603	0.049973376095295
167800	50	354	0	0	mousetrap	1029	45	1	stimuli\mousetrap\mousetrap_01b.jpg	0	-1	1	0	mousetrap_01b.jpg	0	0	0	192.989879957982	193.039864305523	0.0499843475408852
167900	50	355	0	0	dashboard	475	46	1	stimuli\dashboard\dashboard_11s.jpg	10	-1	1	0	dashboard_11s.jpg	0	0	0	193.089885955793	193.139861769858	0.0499758140649647
168000	50	356	0	0	abacus	1	47	1	stimuli\abacus\abacus_05s.jpg	4	-1	1	0	abacus_05s.jpg	0	0	0	193.189908532542	193.23987239995	0.0499638674082235
168100	50	357	0	0	teabag	1632	48	1	stimuli\teabag\teabag_04s.jpg	3	-1	1	0	teabag_04s.jpg	0	0	0	193.289893075009	193.339871814824	0.0499787398148328
168200	50	358	0	0	coffee_bean	378	49	1	stimuli\coffee_bean\coffee_bean_04s.jpg	3	-1	1	0	coffee_bean_04s.jpg	0	0	0	193.389918577508	193.439893416362	0.0499748388538137
168300	50	359	0	0	basketball_hoop	84	50	1	stimuli\basketball_hoop\basketball_hoop_11s.jpg	10	-1	1	0	basketball_hoop_11s.jpg	0	0	0	193.489915554179	193.539883566438	0.0499680122593418
168400	50	360	0	0	fishing_pole	603	51	1	stimuli\fishing_pole\fishing_pole_12s.jpg	11	-1	1	0	fishing_pole_12s.jpg	0	0	0	193.589911555755	193.639886150835	0.0499745950801298
168500	50	361	0	0	submarine	1577	52	1	stimuli\submarine\submarine_04s.jpg	3	-1	1	0	submarine_04s.jpg	0	0	0	193.689898536308	193.73987800756	0.0499794712522998
168600	50	362	0	0	sombrero	1495	53	1	stimuli\sombrero\sombrero_08s.jpg	7	-1	1	0	sombrero_08s.jpg	0	0	0	193.789900145493	193.839902534848	0.0500023893546313
168700	50	363	0	0	shoe_polish	1424	54	1	stimuli\shoe_polish\shoe_polish_03s.jpg	2	-1	1	0	shoe_polish_03s.jpg	0	0	0	193.889909556485	193.939889027737	0.0499794712522998
168800	50	364	0	0	file1	583	55	1	stimuli\file1\file1_05s.jpg	4	-1	1	0	file1_05s.jpg	0	0	0	193.989908483694	194.039889905485	0.0499814217910171
168900	50	365	0	0	pecan	1135	56	1	stimuli\pecan\pecan_02s.jpg	1	-1	1	0	pecan_02s.jpg	0	0	0	194.089911311981	194.139893952757	0.0499826407758519
169000	50	366	0	0	game	654	57	1	stimuli\game\game_05s.jpg	4	-1	1	0	game_05s.jpg	0	0	0	194.189914627699	194.239894830389	0.0499802026897669
169100	50	367	0	0	oil	1072	58	1	stimuli\oil\oil_07s.jpg	6	-1	1	0	oil_07s.jpg	0	0	0	194.289916724549	194.339894001489	0.0499772769398987
169200	50	368	0	0	water_filter	1789	59	1	stimuli\water_filter\water_filter_04s.jpg	3	-1	1	0	water_filter_04s.jpg	0	0	0	194.389915164094	194.439899755409	0.0499845913145691
169300	50	369	0	0	baton2	93	60	1	stimuli\baton2\baton2_04s.jpg	3	-1	1	0	baton2_04s.jpg	0	0	0	194.489920430351	194.539900145493	0.0499797151423991
169400	50	370	0	0	jar	840	61	1	stimuli\jar\jar_01s.jpg	0	-1	1	0	jar_01s.jpg	0	0	0	194.589920576662	194.639901023125	0.0499804464634508
169500	50	371	0	0	seismograph	1403	62	1	stimuli\seismograph\seismograph_06s.jpg	5	-1	1	0	seismograph_06s.jpg	0	0	0	194.689922185848	194.739906289498	0.049984103650786
169600	50	372	0	0	frame	639	63	1	stimuli\frame\frame_10s.jpg	9	-1	1	0	frame_10s.jpg	0	0	0	194.789930377854	194.839905704372	0.0499753265175968
169700	50	373	0	0	ginger	673	64	1	stimuli\ginger\ginger_03s.jpg	2	-1	1	0	ginger_03s.jpg	0	0	0	194.889929305064	194.939913896262	0.0499845911981538
169800	50	374	0	0	drum	522	65	1	stimuli\drum\drum_01b.jpg	0	-1	1	0	drum_01b.jpg	0	0	0	194.98993188946	195.039912823588	0.0499809341272339
169900	50	375	0	0	moth	1023	66	1	stimuli\moth\moth_01b.jpg	0	-1	1	0	moth_01b.jpg	0	0	0	195.08993642428	195.139916870743	0.0499804464634508
170000	50	376	0	0	warthog	1781	67	1	stimuli\warthog\warthog_09s.jpg	8	-1	1	0	warthog_09s.jpg	0	0	0	195.189938277239	195.239918479929	0.0499802026897669
170100	50	377	0	0	spool	1518	68	1	stimuli\spool\spool_05s.jpg	4	-1	1	0	spool_05s.jpg	0	0	0	195.289939886425	195.33991862624	0.0499787398148328
170200	50	378	0	0	eel	545	69	1	stimuli\eel\eel_05s.jpg	4	-1	1	0	eel_05s.jpg	0	0	0	195.389947834541	195.439928524895	0.04998069035355
170300	50	379	0	0	perfume	1154	70	1	stimuli\perfume\perfume_03s.jpg	2	-1	1	0	perfume_03s.jpg	0	0	0	195.489947980852	195.539917943534	0.0499699626816437
170400	50	380	0	0	cockatoo	372	71	1	stimuli\cockatoo\cockatoo_02s.jpg	1	-1	1	0	cockatoo_02s.jpg	0	0	0	195.589938374818	195.639919552719	0.0499811779009178
170500	50	381	0	0	closet	360	72	1	stimuli\closet\closet_03s.jpg	2	-1	1	0	closet_03s.jpg	0	0	0	195.689942665864	195.739922137116	0.0499794712522998
170600	50	382	0	0	tugboat	1725	73	1	stimuli\tugboat\tugboat_01b.jpg	0	-1	1	0	tugboat_01b.jpg	0	0	0	195.789940617862	195.83992228331	0.0499816654482856
170700	50	383	0	0	catfish	287	74	1	stimuli\catfish\catfish_04s.jpg	3	-1	1	0	catfish_04s.jpg	0	0	0	195.88994393358	195.939926574356	0.0499826407758519
170800	50	384	0	0	horn	797	75	1	stimuli\horn\horn_12s.jpg	11	-1	1	0	horn_12s.jpg	0	0	0	195.989947249414	196.039931840729	0.0499845913145691
170900	50	385	0	0	creme_brulee	439	76	1	stimuli\creme_brulee\creme_brulee_01b.jpg	0	-1	1	0	creme_brulee_01b.jpg	0	0	0	196.089950077585	196.13992906129	0.049978983704932
171000	50	386	0	0	crank	432	77	1	stimuli\crank\crank_11s.jpg	10	-1	1	0	crank_11s.jpg	0	0	0	196.189952905872	196.239960171399	0.0500072655268013
171100	50	387	0	0	walker1	1773	78	1	stimuli\walker1\walker1_01b.jpg	0	-1	1	0	walker1_01b.jpg	0	0	0	196.289966461598	196.339963243343	0.0499967817449942
171200	50	388	0	0	butter	228	79	1	stimuli\butter\butter_02s.jpg	1	-1	1	0	butter_02s.jpg	0	0	0	196.389984893613	196.439949736348	0.0499648427357897
171300	50	389	0	0	boot	169	80	1	stimuli\boot\boot_06s.jpg	5	-1	1	0	boot_06s.jpg	0	0	0	196.489965047571	196.539943055948	0.0499780083773658
171400	50	390	0	0	hairnet	736	81	1	stimuli\hairnet\hairnet_09s.jpg	8	-1	1	0	hairnet_09s.jpg	0	0	0	196.589963487117	196.639948078431	0.0499845913145691
171500	50	391	0	0	tarantula	1626	82	1	stimuli\tarantula\tarantula_06s.jpg	5	-1	1	0	tarantula_06s.jpg	0	0	0	196.689973629662	196.739948956063	0.0499753264011815
171600	50	392	0	0	trunk	1722	83	1	stimuli\trunk\trunk_11s.jpg	10	-1	1	0	trunk_11s.jpg	0	0	0	196.789971093996	196.839946664288	0.0499755702912807
171700	50	393	0	0	clam	349	84	1	stimuli\clam\clam_02s.jpg	1	-1	1	0	clam_02s.jpg	0	0	0	196.89000366698	196.939978749608	0.0499750826274976
171800	50	394	0	0	caviar	289	85	1	stimuli\caviar\caviar_02s.jpg	1	-1	1	0	caviar_02s.jpg	0	0	0	196.990000399877	197.039965242613	0.0499648427357897
171900	50	395	0	0	feather	574	86	1	stimuli\feather\feather_01b.jpg	0	-1	1	0	feather_01b.jpg	0	0	0	197.089988599531	197.139964169823	0.0499755702912807
172000	50	396	0	0	tick	1656	87	1	stimuli\tick\tick_03s.jpg	2	-1	1	0	tick_03s.jpg	0	0	0	197.189978749608	197.239957001875	0.049978252267465
172100	50	397	0	0	light_switch	926	88	1	stimuli\light_switch\light_switch_06s.jpg	5	-1	1	0	light_switch_06s.jpg	0	0	0	197.289982309216	197.339960073819	0.0499777646036819
172200	50	398	0	0	casserole	282	89	1	stimuli\casserole\casserole_07s.jpg	6	-1	1	0	casserole_07s.jpg	0	0	0	197.389985381276	197.439963389654	0.0499780083773658
172300	50	399	0	0	grapefruit	703	90	1	stimuli\grapefruit\grapefruit_06s.jpg	5	-1	1	0	grapefruit_06s.jpg	0	0	0	197.489983577048	197.539967193035	0.0499836159870028
172400	50	400	0	0	cornhusk	414	91	1	stimuli\cornhusk\cornhusk_09s.jpg	8	-1	1	0	cornhusk_09s.jpg	0	0	0	197.590002009063	197.639967339346	0.0499653302831575
172500	50	401	0	0	plug	1202	92	1	stimuli\plug\plug_05s.jpg	4	-1	1	0	plug_05s.jpg	0	0	0	197.689996547764	197.739975043689	0.0499784959247336
172600	50	402	0	0	sundae	1582	93	1	stimuli\sundae\sundae_05s.jpg	4	-1	1	0	sundae_05s.jpg	0	0	0	197.789996450185	197.840000058524	0.0500036083394662
172700	50	403	0	0	margarita	973	94	1	stimuli\margarita\margarita_02s.jpg	1	-1	1	0	margarita_02s.jpg	0	0	0	197.890025122208	197.940005081007	0.0499799587996677
172800	50	404	0	0	vacuum	1750	95	1	stimuli\vacuum\vacuum_01s.jpg	0	-1	1	0	vacuum_01s.jpg	0	0	0	197.990015516058	198.040008396842	0.0499928807839751
172900	50	405	0	0	shawl	1411	96	1	stimuli\shawl\shawl_03s.jpg	2	-1	1	0	shawl_03s.jpg	0	0	0	198.090026633814	198.139995133621	0.0499684998067096
173000	50	406	0	0	wedding_cake	1800	97	1	stimuli\wedding_cake\wedding_cake_03s.jpg	2	-1	1	0	wedding_cake_03s.jpg	0	0	0	198.190032143844	198.239990159869	0.0499580160249025
173100	50	407	0	0	jetski	848	98	1	stimuli\jetski\jetski_11s.jpg	10	-1	1	0	jetski_11s.jpg	0	0	0	198.290008396842	198.339985917672	0.049977520829998
173200	50	408	0	0	tortilla	1687	99	1	stimuli\tortilla\tortilla_05s.jpg	4	-1	1	0	tortilla_05s.jpg	0	0	0	198.390013419325	198.439992890577	0.0499794712522998
173300	50	409	0	0	bulletproof_vest	218	100	1	stimuli\bulletproof_vest\bulletproof_vest_12s.jpg	11	-1	1	0	bulletproof_vest_12s.jpg	0	0	0	198.490014053183	198.539996206411	0.0499821532284841
173400	50	410	0	0	treadmill	1706	101	1	stimuli\treadmill\treadmill_06s.jpg	5	-1	1	0	treadmill_06s.jpg	0	0	0	198.590004690923	198.640014150762	0.0500094598392025
173500	50	411	0	0	jeans	842	102	1	stimuli\jeans\jeans_12s.jpg	11	-1	1	0	jeans_12s.jpg	0	0	0	198.690031900071	198.740006982698	0.0499750826274976
173600	50	412	0	0	carousel	275	103	1	stimuli\carousel\carousel_09s.jpg	8	-1	1	0	carousel_09s.jpg	0	0	0	198.790019124513	198.840003471938	0.0499843474244699
173700	50	413	0	0	lipstick	936	104	1	stimuli\lipstick\lipstick_05s.jpg	4	-1	1	0	lipstick_05s.jpg	0	0	0	198.890027560294	198.94000727532	0.0499797150259838
173800	50	414	0	0	rocking_horse	1322	105	1	stimuli\rocking_horse\rocking_horse_05s.jpg	4	-1	1	0	rocking_horse_05s.jpg	0	0	0	198.990028438042	199.040004008333	0.0499755702912807
173900	50	415	0	0	gourd	696	106	1	stimuli\gourd\gourd_12s.jpg	11	-1	1	0	gourd_12s.jpg	0	0	0	199.090033948072	199.140014150762	0.0499802026897669
174000	50	416	0	0	fire_alarm	591	107	1	stimuli\fire_alarm\fire_alarm_12s.jpg	11	-1	1	0	fire_alarm_12s.jpg	0	0	0	199.190031168633	199.240010152222	0.0499789835885167
174100	50	417	0	0	beet	114	108	1	stimuli\beet\beet_09s.jpg	8	-1	1	0	beet_09s.jpg	0	0	0	199.290048137773	199.340027609025	0.0499794712522998
174200	50	418	0	0	cardboard	272	109	1	stimuli\cardboard\cardboard_06s.jpg	5	-1	1	0	cardboard_06s.jpg	0	0	0	199.390049746959	199.440018490539	0.0499687435803935
174300	50	419	0	0	mirror	1005	110	1	stimuli\mirror\mirror_11s.jpg	10	-1	1	0	mirror_11s.jpg	0	0	0	199.490052331355	199.540022050147	0.0499697187915444
174400	50	420	0	0	pincushion	1179	111	1	stimuli\pincushion\pincushion_11s.jpg	10	-1	1	0	pincushion_11s.jpg	0	0	0	199.590042481432	199.640018051723	0.0499755702912807
174500	50	421	0	0	detonator	482	112	1	stimuli\detonator\detonator_02s.jpg	1	-1	1	0	detonator_02s.jpg	0	0	0	199.690043602954	199.740021855105	0.0499782521510497
174600	50	422	0	0	turtle	1736	113	1	stimuli\turtle\turtle_05n.jpg	4	-1	1	0	turtle_05n.jpg	0	0	0	199.790043749264	199.840040043346	0.0499962940812111
174700	50	423	0	0	snowboard	1481	114	1	stimuli\snowboard\snowboard_03s.jpg	2	-1	1	0	snowboard_03s.jpg	0	0	0	199.890048527857	199.940031412407	0.0499828845495358
174800	50	424	0	0	periscope	1155	115	1	stimuli\periscope\periscope_05s.jpg	4	-1	1	0	periscope_05s.jpg	0	0	0	199.99005355034	200.040028876858	0.0499753265175968
174900	50	425	0	0	ram	1282	116	1	stimuli\ram\ram_06s.jpg	5	-1	1	0	ram_06s.jpg	0	0	0	200.090064668097	200.140041945037	0.0499772769398987
175000	50	426	0	0	boar	151	117	1	stimuli\boar\boar_02s.jpg	1	-1	1	0	boar_02s.jpg	0	0	0	200.190059694345	200.240040384699	0.04998069035355
175100	50	427	0	0	birdcage	130	118	1	stimuli\birdcage\birdcage_09s.jpg	8	-1	1	0	birdcage_09s.jpg	0	0	0	200.290063253953	200.340045407065	0.0499821531120688
175200	50	428	0	0	soda_fountain	1491	119	1	stimuli\soda_fountain\soda_fountain_08s.jpg	7	-1	1	0	soda_fountain_08s.jpg	0	0	0	200.39006583835	200.440047260025	0.0499814216746017
175300	50	429	0	0	mouse1	1026	120	1	stimuli\mouse1\mouse1_05s.jpg	4	-1	1	1	mouse1_05s.jpg	0	0	0	200.490062815137	200.540042042499	0.0499792273622006
175400	50	430	0	0	cauliflower	288	121	1	stimuli\cauliflower\cauliflower_02s.jpg	1	-1	1	0	cauliflower_02s.jpg	0	0	0	200.590066618519	200.64004511456	0.0499784960411489
175500	50	431	0	0	handlebar	749	122	1	stimuli\handlebar\handlebar_02s.jpg	1	-1	1	0	handlebar_02s.jpg	0	0	0	200.690119915293	200.740108651342	0.0499887360492721
175600	50	432	0	0	footrest	633	123	1	stimuli\footrest\footrest_05s.jpg	4	-1	1	0	footrest_05s.jpg	1	0.342077314853668	1	200.790115672979	200.840112942387	0.0499972694087774
175700	50	433	0	0	pie	1168	124	1	stimuli\pie\pie_03s.jpg	2	-1	1	0	pie_03s.jpg	0	0	0	200.89014336979	200.940094802878	0.0499514330876991
175800	50	434	0	0	ashtray	41	125	1	stimuli\ashtray\ashtray_08s.jpg	7	-1	1	0	ashtray_08s.jpg	0	0	0	200.990094510373	201.040072031086	0.0499775207135826
175900	50	435	0	0	corn	412	126	1	stimuli\corn\corn_07s.jpg	6	-1	1	0	corn_07s.jpg	0	0	0	201.09009709477	201.140077541233	0.0499804464634508
176000	50	436	0	0	board	152	127	1	stimuli\board\board_10s.jpg	9	-1	1	0	board_10s.jpg	0	0	0	201.190100654378	201.240081832279	0.0499811779009178
176100	50	437	0	0	cookie	400	128	1	stimuli\cookie\cookie_06s.jpg	5	-1	1	0	cookie_06s.jpg	0	0	0	201.290097631048	201.340082466137	0.049984835088253
176200	50	438	0	0	toilet	1670	129	1	stimuli\toilet\toilet_03s.jpg	2	-1	1	0	toilet_03s.jpg	0	0	0	201.390102409758	201.440077492385	0.0499750826274976
176300	50	439	0	0	card	271	130	1	stimuli\card\card_04s.jpg	3	-1	1	0	card_04s.jpg	0	0	0	201.490100117982	201.540078614024	0.0499784960411489
176400	50	440	0	0	hairdryer	735	131	1	stimuli\hairdryer\hairdryer_08s.jpg	7	-1	1	0	hairdryer_08s.jpg	0	0	0	201.590102946153	201.640081929741	0.0499789835885167
176500	50	441	0	0	dreidel	517	132	1	stimuli\dreidel\dreidel_04s.jpg	3	-1	1	0	dreidel_04s.jpg	0	0	0	201.690104799112	201.74008573324	0.0499809341272339
176600	50	442	0	0	pudding	1246	133	1	stimuli\pudding\pudding_09s.jpg	8	-1	1	0	pudding_09s.jpg	0	0	0	201.790112747345	201.840090268059	0.0499775207135826
176700	50	443	0	0	pocket	1205	134	1	stimuli\pocket\pocket_07s.jpg	6	-1	1	0	pocket_07s.jpg	0	0	0	201.890114600188	201.940091633354	0.0499770331662148
176800	50	444	0	0	car_door	268	135	1	stimuli\car_door\car_door_06s.jpg	5	-1	1	0	car_door_06s.jpg	0	0	0	201.990112064639	202.040095192962	0.0499831283232197
176900	50	445	0	0	charcoal	307	136	1	stimuli\charcoal\charcoal_06s.jpg	5	-1	1	0	charcoal_06s.jpg	0	0	0	202.090118793771	202.140102165984	0.0499833722133189
177000	50	446	0	0	aircraft_carrier	9	137	1	stimuli\aircraft_carrier\aircraft_carrier_09s.jpg	8	-1	1	0	aircraft_carrier_09s.jpg	0	0	0	202.190116014332	202.240098167444	0.0499821531120688
177100	50	447	0	0	gazelle	666	138	1	stimuli\gazelle\gazelle_08s.jpg	7	-1	1	0	gazelle_08s.jpg	0	0	0	202.290120549151	202.340100264293	0.0499797151423991
177200	50	448	0	0	loom	946	139	1	stimuli\loom\loom_04s.jpg	3	-1	1	0	loom_04s.jpg	0	0	0	202.390123621211	202.440106505761	0.0499828845495358
177300	50	449	0	0	drumstick	523	140	1	stimuli\drumstick\drumstick_11s.jpg	10	-1	1	0	drumstick_11s.jpg	0	0	0	202.490125961718	202.540104945423	0.049978983704932
177400	50	450	0	0	chin	330	141	1	stimuli\chin\chin_09s.jpg	8	-1	1	0	chin_09s.jpg	0	0	0	202.590128058568	202.640110699343	0.0499826407758519
177500	50	451	0	0	recliner	1294	142	1	stimuli\recliner\recliner_03s.jpg	2	-1	1	0	recliner_03s.jpg	0	0	0	202.690135031473	202.740111820865	0.0499767893925309
177600	50	452	0	0	beer	113	143	1	stimuli\beer\beer_02s.jpg	1	-1	1	0	beer_02s.jpg	0	0	0	202.790132983471	202.840115136583	0.0499821531120688
177700	50	453	0	0	skateboard	1449	144	1	stimuli\skateboard\skateboard_01b.jpg	0	-1	1	0	skateboard_01b.jpg	0	0	0	202.890134348767	202.94011479523	0.0499804464634508
177800	50	454	0	0	sail	1346	145	1	stimuli\sail\sail_02s.jpg	1	-1	1	0	sail_02s.jpg	0	0	0	202.990142540773	203.040122012026	0.0499794712522998
177900	50	455	0	0	tank1	1620	146	1	stimuli\tank1\tank1_07s.jpg	6	-1	1	0	tank1_07s.jpg	0	0	0	203.090140736662	203.140121183125	0.0499804464634508
178000	50	456	0	0	pallet	1101	147	1	stimuli\pallet\pallet_11s.jpg	10	-1	1	1	pallet_11s.jpg	0	0	0	203.190143077169	203.240122792195	0.0499797150259838
178100	50	457	0	0	microphone	998	148	1	stimuli\microphone\microphone_05s.jpg	4	-1	1	0	microphone_05s.jpg	0	0	0	203.290146636777	203.340133666177	0.0499870294006541
178200	50	458	0	0	ice_cream	818	149	1	stimuli\ice_cream\ice_cream_07s.jpg	6	-1	1	0	ice_cream_07s.jpg	0	0	0	203.390154828783	203.440131130512	0.0499763017287478
178300	50	459	0	0	stretcher	1572	150	1	stimuli\stretcher\stretcher_12s.jpg	11	-1	1	0	stretcher_12s.jpg	1	0.34193371119909	1	203.490158388391	203.540137128206	0.0499787398148328
178400	50	460	0	0	home_plate	787	151	1	stimuli\home_plate\home_plate_01b.jpg	0	-1	1	0	home_plate_01b.jpg	0	0	0	203.590181940352	203.640159704955	0.0499777646036819
178500	50	461	0	0	harness	754	152	1	stimuli\harness\harness_05s.jpg	4	-1	1	0	harness_05s.jpg	0	0	0	203.6901828181	203.740144003648	0.0499611855484545
178600	50	462	0	0	dumbbell	530	153	1	stimuli\dumbbell\dumbbell_12s.jpg	11	-1	1	0	dumbbell_12s.jpg	0	0	0	203.790167116793	203.840150001342	0.0499828845495358
178700	50	463	0	0	brake	191	154	1	stimuli\brake\brake_11s.jpg	10	-1	1	0	brake_11s.jpg	0	0	0	203.890171407838	203.940152098075	0.0499806902371347
178800	50	464	0	0	baklava	57	155	1	stimuli\baklava\baklava_11s.jpg	10	-1	1	0	baklava_11s.jpg	0	0	0	203.990168384626	204.04014688055	0.0499784959247336
178900	50	465	0	0	potholder	1232	156	1	stimuli\potholder\potholder_12s.jpg	11	-1	1	0	potholder_12s.jpg	0	0	0	204.090169506148	204.140154828783	0.0499853226356208
179000	50	466	0	0	microwave	1000	157	1	stimuli\microwave\microwave_04s.jpg	3	-1	1	0	microwave_04s.jpg	0	0	0	204.190173065756	204.240152780782	0.0499797150259838
179100	50	467	0	0	jet	847	158	1	stimuli\jet\jet_06s.jpg	5	-1	1	0	jet_06s.jpg	0	0	0	204.290172968176	204.340154389967	0.0499814217910171
179200	50	468	0	0	exhaust_pipe	562	159	1	stimuli\exhaust_pipe\exhaust_pipe_02s.jpg	1	-1	1	0	exhaust_pipe_02s.jpg	0	0	0	204.390177746885	204.440177698154	0.0499999512685463
179300	50	469	0	0	duck	525	160	1	stimuli\duck\duck_05s.jpg	4	-1	1	0	duck_05s.jpg	0	0	0	204.490183500806	204.540185158723	0.0500016579171643
179400	50	470	0	0	mustache	1043	161	1	stimuli\mustache\mustache_03s.jpg	2	-1	1	0	mustache_03s.jpg	0	0	0	204.590202908032	204.640183354495	0.0499804464634508
179500	50	471	0	0	hash	756	162	1	stimuli\hash\hash_06s.jpg	5	-1	1	0	hash_06s.jpg	0	0	0	204.690206223866	204.740186426556	0.0499802026897669
179600	50	472	0	0	mug	1036	163	1	stimuli\mug\mug_07s.jpg	6	-1	1	0	mug_07s.jpg	0	0	0	204.790185158723	204.840169506148	0.0499843474244699
179700	50	473	0	0	pencil_sharpener	1143	164	1	stimuli\pencil_sharpener\pencil_sharpener_10s.jpg	9	-1	1	0	pencil_sharpener_10s.jpg	0	0	0	204.890193106839	204.940169408568	0.0499763017287478
179800	50	474	0	0	hourglass	807	165	1	stimuli\hourglass\hourglass_09s.jpg	8	-1	1	0	hourglass_09s.jpg	0	0	0	204.990190083627	205.04017345584	0.0499833722133189
179900	50	475	0	0	boxer_shorts	182	166	1	stimuli\boxer_shorts\boxer_shorts_07s.jpg	6	-1	1	0	boxer_shorts_07s.jpg	0	0	0	205.090199250844	205.140175552573	0.0499763017287478
180000	50	476	0	0	cruise_ship	450	167	1	stimuli\cruise_ship\cruise_ship_12s.jpg	11	-1	1	0	cruise_ship_12s.jpg	0	0	0	205.190194277209	205.24017813697	0.0499838597606868
180100	50	477	0	0	poster	1229	168	1	stimuli\poster\poster_09s.jpg	8	-1	1	1	poster_09s.jpg	0	0	0	205.290195886279	205.340186328976	0.0499904426978901
180200	50	478	0	0	peg	1139	169	1	stimuli\peg\peg_02s.jpg	1	-1	1	0	peg_02s.jpg	0	0	0	205.390203346848	205.440188181936	0.049984835088253
180300	50	479	0	0	firetruck	596	170	1	stimuli\firetruck\firetruck_08s.jpg	7	-1	1	0	firetruck_08s.jpg	0	0	0	205.490210319869	205.54021197767	0.0500016578007489
180400	50	480	0	0	grater	708	171	1	stimuli\grater\grater_03s.jpg	2	-1	1	0	grater_03s.jpg	1	0.352231977856718	1	205.590209247079	205.640211880207	0.0500026331283152
180500	50	481	0	0	pill	1174	172	1	stimuli\pill\pill_03s.jpg	2	-1	1	0	pill_03s.jpg	0	0	0	205.690229385742	205.740187157877	0.0499577721348032
180600	50	482	0	0	laser_pointer	899	173	1	stimuli\laser_pointer\laser_pointer_09s.jpg	8	-1	1	0	laser_pointer_09s.jpg	0	0	0	205.790211246349	205.840191936586	0.0499806902371347
180700	50	483	0	0	outfit	1087	174	1	stimuli\outfit\outfit_11s.jpg	10	-1	1	0	outfit_11s.jpg	0	0	0	205.890215781168	205.940200128593	0.0499843474244699
180800	50	484	0	0	potato	1231	175	1	stimuli\potato\potato_04s.jpg	3	-1	1	0	potato_04s.jpg	0	0	0	205.990222022636	206.040195886279	0.0499738636426628
180900	50	485	0	0	bowl	177	176	1	stimuli\bowl\bowl_03s.jpg	2	-1	1	0	bowl_03s.jpg	0	0	0	206.090224850923	206.140203590738	0.0499787398148328
181000	50	486	0	0	fungus	648	177	1	stimuli\fungus\fungus_02s.jpg	1	-1	1	0	fungus_02s.jpg	0	0	0	206.19024523336	206.240213733166	0.0499684998067096
181100	50	487	0	0	coil	384	178	1	stimuli\coil\coil_08s.jpg	7	-1	1	0	coil_08s.jpg	0	0	0	206.290248549194	206.340229970869	0.0499814216746017
181200	50	488	0	0	screen1	1388	179	1	stimuli\screen1\screen1_01b.jpg	0	-1	1	0	screen1_01b.jpg	0	0	0	206.39024698874	206.440211831476	0.0499648427357897
181300	50	489	0	0	pear	1133	180	1	stimuli\pear\pear_12s.jpg	11	-1	1	0	pear_12s.jpg	0	0	0	206.490234213183	206.540216122521	0.0499819093383849
181400	50	490	0	0	comic_book	391	181	1	stimuli\comic_book\comic_book_10s.jpg	9	-1	1	0	comic_book_10s.jpg	0	0	0	206.590274831746	206.640235529747	0.0499606980010867
181500	50	491	0	0	scoop	1381	182	1	stimuli\scoop\scoop_08s.jpg	7	-1	1	0	scoop_08s.jpg	0	0	0	206.690240844735	206.74023762648	0.0499967817449942
181600	50	492	0	0	trumpet	1721	183	1	stimuli\trumpet\trumpet_11s.jpg	10	-1	1	0	trumpet_11s.jpg	0	0	0	206.790240503382	206.840217292774	0.0499767893925309
181700	50	493	0	0	bologna	158	184	1	stimuli\bologna\bologna_09s.jpg	8	-1	1	0	bologna_09s.jpg	0	0	0	206.890242356341	206.94022426568	0.0499819093383849
181800	50	494	0	0	axe	45	185	1	stimuli\axe\axe_12n.jpg	11	-1	1	0	axe_12n.jpg	0	0	0	206.990248841699	207.040222705342	0.0499738636426628
181900	50	495	0	0	rollerskate	1327	186	1	stimuli\rollerskate\rollerskate_08s.jpg	7	-1	1	0	rollerskate_08s.jpg	0	0	0	207.090245087049	207.140233335434	0.049988248385489
182000	50	496	0	0	money	1015	187	1	stimuli\money\money_09s.jpg	8	-1	1	0	money_09s.jpg	0	0	0	207.190268151462	207.240256643621	0.0499884921591729
182100	50	497	0	0	ski	1452	188	1	stimuli\ski\ski_06s.jpg	5	-1	1	0	ski_06s.jpg	0	0	0	207.290255619562	207.340255814721	0.0500001951586455
182200	50	498	0	0	wax	1795	189	1	stimuli\wax\wax_08s.jpg	7	-1	1	0	wax_08s.jpg	0	0	0	207.390275758225	207.440253279055	0.049977520829998
182300	50	499	0	0	cornbread	413	190	1	stimuli\cornbread\cornbread_10s.jpg	9	-1	1	0	cornbread_10s.jpg	0	0	0	207.490276879747	207.540259520523	0.0499826407758519
182400	50	500	0	0	car	267	191	1	stimuli\car\car_07s.jpg	6	-1	1	0	car_07s.jpg	0	0	0	207.590279708034	207.640263811569	0.0499841035343707
182500	50	501	0	0	shoe	1423	192	1	stimuli\shoe\shoe_06s.jpg	5	-1	1	0	shoe_06s.jpg	0	0	0	207.690265713376	207.740253717871	0.0499880044953898
182600	50	502	0	0	pastry	1124	193	1	stimuli\pastry\pastry_07s.jpg	6	-1	1	0	pastry_07s.jpg	0	0	0	207.790266347234	207.840244111838	0.0499777646036819
182700	50	503	0	0	spoon	1519	194	1	stimuli\spoon\spoon_10s.jpg	9	-1	1	0	spoon_10s.jpg	0	0	0	207.890271369717	207.940255473368	0.049984103650786
182800	50	504	0	0	chipmunk	334	195	1	stimuli\chipmunk\chipmunk_02n.jpg	1	-1	1	0	chipmunk_02n.jpg	0	0	0	207.990274685551	208.04026610346	0.049991417909041
182900	50	505	0	0	ravioli	1289	196	1	stimuli\ravioli\ravioli_11s.jpg	10	-1	1	0	ravioli_11s.jpg	0	0	0	208.090290191816	208.140269906842	0.0499797150259838
183000	50	506	0	0	sprinkler	1523	197	1	stimuli\sprinkler\sprinkler_11s.jpg	10	-1	1	0	sprinkler_11s.jpg	0	0	0	208.190281317104	208.240256399848	0.0499750827439129
183100	50	507	0	0	crow	446	198	1	stimuli\crow\crow_05s.jpg	4	-1	1	0	crow_05s.jpg	0	0	0	208.29027707479	208.340256789932	0.0499797151423991
183200	50	508	0	0	tongue	1675	199	1	stimuli\tongue\tongue_04s.jpg	3	-1	1	0	tongue_04s.jpg	0	0	0	208.390278927749	208.440261080978	0.0499821532284841
183300	50	509	0	0	flypaper	622	200	1	stimuli\flypaper\flypaper_06s.jpg	5	-1	1	0	flypaper_06s.jpg	0	0	0	208.490281024599	208.540249524405	0.0499684998067096
183400	50	510	0	0	doorbell	507	201	1	stimuli\doorbell\doorbell_09s.jpg	8	-1	1	0	doorbell_09s.jpg	0	0	0	208.590290923254	208.640269175405	0.0499782521510497
183500	50	511	0	0	punching_bag	1256	202	1	stimuli\punching_bag\punching_bag_07s.jpg	6	-1	1	0	punching_bag_07s.jpg	0	0	0	208.690290094237	208.740272003575	0.0499819093383849
183600	50	512	0	0	orchid	1081	203	1	stimuli\orchid\orchid_10s.jpg	9	-1	1	0	orchid_10s.jpg	0	0	0	208.790294141509	208.840275563183	0.0499814216746017
183700	50	513	0	0	peanut_butter	1132	204	1	stimuli\peanut_butter\peanut_butter_02s.jpg	1	-1	1	0	peanut_butter_02s.jpg	0	0	0	208.890295994468	208.940280341893	0.0499843474244699
183800	50	514	0	0	doorknob	509	205	1	stimuli\doorknob\doorknob_11s.jpg	10	-1	1	0	doorknob_11s.jpg	0	0	0	208.990294921678	209.040279025328	0.049984103650786
183900	50	515	0	0	dough	513	206	1	stimuli\dough\dough_10s.jpg	9	-1	1	0	dough_10s.jpg	0	0	0	209.090300919372	209.140280878288	0.049979958916083
184000	50	516	0	0	owl	1091	207	1	stimuli\owl\owl_02s.jpg	1	-1	1	0	owl_02s.jpg	0	0	0	209.190300090471	209.240279805497	0.0499797150259838
184100	50	517	0	0	wheel	1806	208	1	stimuli\wheel\wheel_08s.jpg	7	-1	1	0	wheel_08s.jpg	0	0	0	209.290299261454	209.340283365105	0.049984103650786
184200	50	518	0	0	helmet	776	209	1	stimuli\helmet\helmet_07s.jpg	6	-1	1	0	helmet_07s.jpg	0	0	0	209.390309647773	209.440289362799	0.0499797150259838
184300	50	519	0	0	magnifying_glass	958	210	1	stimuli\magnifying_glass\magnifying_glass_09s.jpg	8	-1	1	0	magnifying_glass_09s.jpg	0	0	0	209.490311500733	209.540287071024	0.0499755702912807
184400	50	520	0	0	ladybug	888	211	1	stimuli\ladybug\ladybug_02s.jpg	1	-1	1	0	ladybug_02s.jpg	0	0	0	209.590309452731	209.640294531593	0.0499850788619369
184500	50	521	0	0	fern	577	212	1	stimuli\fern\fern_10n.jpg	9	-1	1	0	fern_10n.jpg	0	0	0	209.690312768565	209.740291995928	0.0499792273622006
184600	50	522	0	0	cream	436	213	1	stimuli\cream\cream_02s.jpg	1	-1	1	0	cream_02s.jpg	0	0	0	209.790326568182	209.840301163262	0.0499745950801298
184700	50	523	0	0	broom	203	214	1	stimuli\broom\broom_04s.jpg	3	-1	1	0	broom_04s.jpg	0	0	0	209.890320375445	209.940298139933	0.0499777644872665
184800	50	524	0	0	bomb	160	215	1	stimuli\bomb\bomb_01b.jpg	0	-1	1	0	bomb_01b.jpg	0	0	0	209.990320277866	210.040300236782	0.049979958916083
184900	50	525	0	0	gift	672	216	1	stimuli\gift\gift_05s.jpg	4	-1	1	0	gift_05s.jpg	0	0	0	210.0903235937	210.140304283937	0.0499806902371347
185000	50	526	0	0	arch	35	217	1	stimuli\arch\arch_05s.jpg	4	-1	1	0	arch_05s.jpg	0	0	0	210.190323008574	210.240305893123	0.0499828845495358
185100	50	527	0	0	gargoyle	657	218	1	stimuli\gargoyle\gargoyle_02s.jpg	1	-1	1	1	gargoyle_02s.jpg	0	0	0	210.290326568182	210.340336759342	0.0500101911602542
185200	50	528	0	0	hook1	793	219	1	stimuli\hook1\hook1_09s.jpg	8	-1	1	0	hook1_09s.jpg	0	0	0	210.390354752541	210.440333248582	0.0499784960411489
185300	50	529	0	0	napkin	1050	220	1	stimuli\napkin\napkin_08s.jpg	7	-1	1	0	napkin_08s.jpg	0	0	0	210.490357336937	210.540340952924	0.0499836159870028
185400	50	530	0	0	slot_machine	1470	221	1	stimuli\slot_machine\slot_machine_08s.jpg	7	-1	1	0	slot_machine_08s.jpg	1	0.292259489302523	1	210.590344073717	210.640316230594	0.0499721568776295
185500	50	531	0	0	bathtub	91	222	1	stimuli\bathtub\bathtub_04s.jpg	3	-1	1	0	bathtub_04s.jpg	0	0	0	210.690340319066	210.740318814991	0.0499784959247336
185600	50	532	0	0	coconut	375	223	1	stimuli\coconut\coconut_10s.jpg	9	-1	1	0	coconut_10s.jpg	0	0	0	210.790355337667	210.840328957536	0.0499736198689789
185700	50	533	0	0	gear	667	224	1	stimuli\gear\gear_08s.jpg	7	-1	1	0	gear_08s.jpg	0	0	0	210.890349876368	210.940328128519	0.0499782521510497
185800	50	534	0	0	tuxedo	1738	225	1	stimuli\tuxedo\tuxedo_10s.jpg	9	-1	1	0	tuxedo_10s.jpg	0	0	0	210.990354167414	211.040321448119	0.0499672807054594
185900	50	535	0	0	chickpea	325	226	1	stimuli\chickpea\chickpea_06s.jpg	5	-1	1	0	chickpea_06s.jpg	0	0	0	211.090349437436	211.140329396352	0.049979958916083
186000	50	536	0	0	odometer	1071	227	1	stimuli\odometer\odometer_10s.jpg	9	-1	1	0	odometer_10s.jpg	0	0	0	211.190351046622	211.240331249312	0.0499802026897669
186100	50	537	0	0	spareribs	1505	228	1	stimuli\spareribs\spareribs_01b.jpg	0	-1	1	0	spareribs_01b.jpg	0	0	0	211.290350461495	211.340335296583	0.049984835088253
186200	50	538	0	0	truck	1720	229	1	stimuli\truck\truck_12s.jpg	11	-1	1	0	truck_12s.jpg	0	0	0	211.390364261111	211.440337149543	0.0499728884315118
186300	50	539	0	0	armor	37	230	1	stimuli\armor\armor_11s.jpg	10	-1	1	0	armor_11s.jpg	0	0	0	211.49035953125	211.540349486284	0.049989955034107
186400	50	540	0	0	wax_paper	1796	231	1	stimuli\wax_paper\wax_paper_08s.jpg	7	-1	1	0	wax_paper_08s.jpg	0	0	0	211.590366747929	211.640341099235	0.0499743513064459
186500	50	541	0	0	raft	1275	232	1	stimuli\raft\raft_03s.jpg	2	-1	1	0	raft_03s.jpg	0	0	0	211.69036396849	211.740343927406	0.049979958916083
186600	50	542	0	0	chain	298	233	1	stimuli\chain\chain_07s.jpg	6	-1	1	0	chain_07s.jpg	0	0	0	211.790379718645	211.840351875639	0.0499721569940448
186700	50	543	0	0	grill	714	234	1	stimuli\grill\grill_01b.jpg	0	-1	1	0	grill_01b.jpg	0	0	0	211.890374744893	211.940356410458	0.049981665564701
186800	50	544	0	0	taxi	1630	235	1	stimuli\taxi\taxi_07s.jpg	6	-1	1	0	taxi_07s.jpg	0	0	0	211.990381474025	212.040380937629	0.0499994636047632
186900	50	545	0	0	projector	1242	236	1	stimuli\projector\projector_04s.jpg	3	-1	1	0	projector_04s.jpg	0	0	0	212.090404782211	212.140367186861	0.0499624046497047
187000	50	546	0	0	sweet_potato	1595	237	1	stimuli\sweet_potato\sweet_potato_12s.jpg	11	-1	1	0	sweet_potato_12s.jpg	0	0	0	212.190385423717	212.240375866415	0.0499904426978901
187100	50	547	0	0	icemaker	821	238	1	stimuli\icemaker\icemaker_06s.jpg	5	-1	1	0	icemaker_06s.jpg	0	0	0	212.290378011996	212.3403499251	0.0499719131039456
187200	50	548	0	0	slipper	1468	239	1	stimuli\slipper\slipper_11s.jpg	10	-1	1	0	slipper_11s.jpg	0	0	0	212.390369624947	212.440354216145	0.0499845911981538
187300	50	549	0	0	eclair	544	240	1	stimuli\eclair\eclair_11s.jpg	10	-1	1	1	eclair_11s.jpg	0	0	0	212.490373915993	212.540356800542	0.0499828845495358
187400	50	550	0	0	candelabra	252	241	1	stimuli\candelabra\candelabra_09s.jpg	8	-1	1	0	candelabra_09s.jpg	0	0	0	212.590376256499	212.640359872486	0.0499836159870028
187500	50	551	0	0	spark_plug	1506	242	1	stimuli\spark_plug\spark_plug_05s.jpg	4	-1	1	0	spark_plug_05s.jpg	0	0	0	212.690378840896	212.740360262571	0.0499814216746017
187600	50	552	0	0	recorder	1297	243	1	stimuli\recorder\recorder_10s.jpg	9	-1	1	0	recorder_10s.jpg	1	0.341935905395076	1	212.790395566262	212.840374306077	0.0499787398148328
187700	50	553	0	0	hinge	779	244	1	stimuli\hinge\hinge_02s.jpg	1	-1	1	0	hinge_02s.jpg	0	0	0	212.890396443894	212.940365187591	0.0499687436968088
187800	50	554	0	0	gramophone	699	245	1	stimuli\gramophone\gramophone_02s.jpg	1	-1	1	0	gramophone_02s.jpg	0	0	0	212.99039805308	213.040368015761	0.0499699626816437
187900	50	555	0	0	pipe2	1187	246	1	stimuli\pipe2\pipe2_05s.jpg	4	-1	1	0	pipe2_05s.jpg	0	0	0	213.090393810766	213.140369381057	0.0499755702912807
188000	50	556	0	0	mud	1033	247	1	stimuli\mud\mud_11s.jpg	10	-1	1	0	mud_11s.jpg	0	0	0	213.190406391397	213.240372453118	0.0499660617206246
188100	50	557	0	0	silverware	1445	248	1	stimuli\silverware\silverware_09s.jpg	8	-1	1	0	silverware_09s.jpg	0	0	0	213.290400929982	213.340375525062	0.0499745950801298
188200	50	558	0	0	folder	625	249	1	stimuli\folder\folder_05s.jpg	4	-1	1	0	folder_05s.jpg	0	0	0	213.390409365878	213.440377134248	0.0499677683692425
188300	50	559	0	0	bathmat	89	250	1	stimuli\bathmat\bathmat_09s.jpg	8	-1	1	0	bathmat_09s.jpg	0	0	0	213.490403416916	213.540380693856	0.0499772769398987
188400	50	560	0	0	suit	1580	251	1	stimuli\suit\suit_01b.jpg	0	-1	1	0	suit_01b.jpg	0	0	0	213.59040648886	213.64039620012	0.0499897112604231
188500	50	561	0	0	birthday_cake	132	252	1	stimuli\birthday_cake\birthday_cake_07s.jpg	6	-1	1	0	birthday_cake_07s.jpg	0	0	0	213.690418825601	213.740380742587	0.0499619169859216
188600	50	562	0	0	ambulance	19	253	1	stimuli\ambulance\ambulance_10s.jpg	9	-1	1	0	ambulance_10s.jpg	0	0	0	213.790446766187	213.840422336478	0.0499755702912807
188700	50	563	0	0	compass	392	254	1	stimuli\compass\compass_12n.jpg	11	-1	1	0	compass_12n.jpg	0	0	0	213.890444230638	213.940424920875	0.0499806902371347
188800	50	564	0	0	soda	1490	255	1	stimuli\soda\soda_03s.jpg	2	-1	1	0	soda_03s.jpg	0	0	0	213.990416338784	214.040408731904	0.049992393120192
188900	50	565	0	0	tape_measure	1623	256	1	stimuli\tape_measure\tape_measure_11s.jpg	10	-1	1	0	tape_measure_11s.jpg	0	0	0	214.0904301384	214.140394493472	0.0499643550720066
189000	50	566	0	0	salami	1349	257	1	stimuli\salami\salami_03s.jpg	2	-1	1	0	salami_03s.jpg	0	0	0	214.19041785039	214.24041024351	0.049992393120192
189100	50	567	0	0	easel	542	258	1	stimuli\easel\easel_12s.jpg	11	-1	1	0	easel_12s.jpg	0	0	0	214.290419215802	214.340409658384	0.0499904425814748
189200	50	568	0	0	jack	835	259	1	stimuli\jack\jack_01b.jpg	0	-1	1	0	jack_01b.jpg	0	0	0	214.39045568963	214.440436379984	0.04998069035355
189300	50	569	0	0	macaroni	952	260	1	stimuli\macaroni\macaroni_08s.jpg	7	-1	1	0	macaroni_08s.jpg	0	0	0	214.490459249238	214.540424091974	0.0499648427357897
189400	50	570	0	0	mango	966	261	1	stimuli\mango\mango_10s.jpg	9	-1	1	0	mango_10s.jpg	0	0	0	214.590461102198	214.64041692391	0.0499558217125013
189500	50	571	0	0	wooden_leg	1834	262	1	stimuli\wooden_leg\wooden_leg_07s.jpg	6	-1	1	0	wooden_leg_07s.jpg	0	0	0	214.690435160883	214.740416826447	0.049981665564701
189600	50	572	0	0	lime	930	263	1	stimuli\lime\lime_08s.jpg	7	-1	1	0	lime_08s.jpg	0	0	0	214.79043774528	214.840452325065	0.0500145797850564
189700	50	573	0	0	oilcan	1073	264	1	stimuli\oilcan\oilcan_10s.jpg	9	-1	1	0	oilcan_10s.jpg	0	0	0	214.890492748702	214.940449789399	0.0499570406973362
189800	50	574	0	0	drink	521	265	1	stimuli\drink\drink_06s.jpg	5	-1	1	0	drink_06s.jpg	0	0	0	214.99045461684	215.040454080445	0.0499994636047632
189900	50	575	0	0	asparagus	42	266	1	stimuli\asparagus\asparagus_08s.jpg	7	-1	1	0	asparagus_08s.jpg	0	0	0	215.090474024066	215.14044057345	0.0499665493844077
190000	50	576	0	0	crane	431	267	1	stimuli\crane\crane_01b.jpg	0	-1	1	0	crane_01b.jpg	0	0	0	215.19045393425	215.240436087362	0.0499821531120688
190100	50	577	0	0	batter	96	268	1	stimuli\batter\batter_02s.jpg	1	-1	1	0	batter_02s.jpg	0	0	0	215.290447741398	215.340426725103	0.049978983704932
190200	50	578	0	0	dishwashing_liquid	492	269	1	stimuli\dishwashing_liquid\dishwashing_liquid_12s.jpg	11	-1	1	0	dishwashing_liquid_12s.jpg	1	0	0	215.390449350583	215.440433941782	0.0499845911981538
190300	50	579	0	0	stuffing	1575	270	1	stimuli\stuffing\stuffing_06s.jpg	5	-1	1	0	stuffing_06s.jpg	0	0	0	215.49045193498	215.540433600545	0.049981665564701
190400	50	580	0	0	coffee_table	381	271	1	stimuli\coffee_table\coffee_table_04s.jpg	3	-1	1	0	coffee_table_04s.jpg	0	0	0	215.590488652699	215.640468367725	0.0499797150259838
190500	50	581	0	0	music_box	1041	272	1	stimuli\music_box\music_box_03s.jpg	2	-1	1	0	music_box_03s.jpg	0	0	0	215.690490505658	215.740454373066	0.0499638674082235
190600	50	582	0	0	llama	938	273	1	stimuli\llama\llama_12s.jpg	11	-1	1	0	llama_12s.jpg	0	0	0	215.790494552813	215.840460126987	0.0499655741732568
190700	50	583	0	0	crossbow	444	274	1	stimuli\crossbow\crossbow_09s.jpg	8	-1	1	0	crossbow_09s.jpg	0	0	0	215.890472024912	215.940442962805	0.0499709378927946
190800	50	584	0	0	cactus	235	275	1	stimuli\cactus\cactus_10s.jpg	9	-1	1	0	cactus_10s.jpg	0	0	0	215.990477047395	216.040457006195	0.0499799587996677
190900	50	585	0	0	sardine	1359	276	1	stimuli\sardine\sardine_12s.jpg	11	-1	1	0	sardine_12s.jpg	0	0	0	216.090465246933	216.14044910681	0.0499838598771021
191000	50	586	0	0	powder	1236	277	1	stimuli\powder\powder_09s.jpg	8	-1	1	0	powder_09s.jpg	0	0	0	216.190469050431	216.24045193498	0.0499828845495358
191101	50	587	0	0	zebra	1851	278	1	stimuli\zebra\zebra_09s.jpg	8	-1	1	0	zebra_09s.jpg	0	0	0	216.290498210001	216.340477437479	0.0499792274786159
191201	50	588	0	0	hammock	742	279	1	stimuli\hammock\hammock_11s.jpg	10	-1	1	0	hammock_11s.jpg	0	0	0	216.390498600085	216.440481484635	0.0499828845495358
191301	50	589	0	0	veil	1755	280	1	stimuli\veil\veil_05s.jpg	4	-1	1	0	veil_05s.jpg	0	0	0	216.490501672146	216.540483093821	0.0499814216746017
191401	50	590	0	0	patty	1126	281	1	stimuli\patty\patty_10s.jpg	9	-1	1	0	patty_10s.jpg	0	0	0	216.590514984098	216.640466661076	0.0499516769777983
191500	50	591	0	0	bamboo	62	282	1	stimuli\bamboo\bamboo_08s.jpg	7	-1	1	0	bamboo_08s.jpg	0	0	0	216.690493918955	216.740468270262	0.0499743513064459
191601	50	592	0	0	headset	769	283	1	stimuli\headset\headset_03s.jpg	2	-1	1	0	headset_03s.jpg	0	0	0	216.790492602391	216.840468660346	0.0499760579550639
191701	50	593	0	0	wallpaper	1777	284	1	stimuli\wallpaper\wallpaper_03s.jpg	2	-1	1	0	wallpaper_03s.jpg	0	0	0	216.890500794398	216.940470025642	0.0499692312441766
191801	50	594	0	0	bracket	189	285	1	stimuli\bracket\bracket_11s.jpg	10	-1	1	0	bracket_11s.jpg	0	0	0	216.990499965381	217.040472610039	0.0499726446578279
191901	50	595	0	0	badger	53	286	1	stimuli\badger\badger_10s.jpg	9	-1	1	0	badger_10s.jpg	0	0	0	217.090505231754	217.140475194436	0.0499699626816437
192001	50	596	0	0	urn	1749	287	1	stimuli\urn\urn_12s.jpg	11	-1	1	0	urn_12s.jpg	0	0	0	217.190511716995	217.240491188248	0.0499794712522998
192101	50	597	0	0	backgammon	48	288	1	stimuli\backgammon\backgammon_07s.jpg	6	-1	1	0	backgammon_07s.jpg	0	0	0	217.290499672876	217.340483532636	0.0499838597606868
192201	50	598	0	0	enchilada	556	289	1	stimuli\enchilada\enchilada_01b.jpg	0	-1	1	0	enchilada_01b.jpg	0	0	0	217.390502257273	217.4404831914	0.0499809341272339
192301	50	599	0	0	seaweed	1400	290	1	stimuli\seaweed\seaweed_10s.jpg	9	-1	1	0	seaweed_10s.jpg	0	0	0	217.490503866342	217.540484069032	0.0499802026897669
192401	50	600	0	0	go-kart	682	291	1	stimuli\go-kart\go-kart_10s.jpg	9	-1	1	0	go-kart_10s.jpg	0	0	0	217.590513521223	217.640490798163	0.0499772769398987
192501	50	601	0	0	apron	33	292	1	stimuli\apron\apron_11s.jpg	10	-1	1	0	apron_11s.jpg	0	0	0	217.690511716995	217.740491188248	0.0499794712522998
192601	50	602	0	0	football	629	293	1	stimuli\football\football_08s.jpg	7	-1	1	0	football_08s.jpg	0	0	0	217.790509912884	217.840491578332	0.0499816654482856
192701	50	603	0	0	door	506	294	1	stimuli\door\door_03s.jpg	2	-1	1	0	door_03s.jpg	0	0	0	217.890515422914	217.940494162729	0.0499787398148328
192801	50	604	0	0	roof_rack	1329	295	1	stimuli\roof_rack\roof_rack_02s.jpg	1	-1	1	0	roof_rack_02s.jpg	0	0	0	217.990515812999	218.040509668994	0.0499938559951261
192901	50	605	0	0	hatbox	758	296	1	stimuli\hatbox\hatbox_08s.jpg	7	-1	1	0	hatbox_08s.jpg	0	0	0	218.090518641286	218.140499575296	0.0499809340108186
193001	50	606	0	0	sarcophagus	1358	297	1	stimuli\sarcophagus\sarcophagus_07s.jpg	6	-1	1	0	sarcophagus_07s.jpg	0	0	0	218.190525857965	218.240535561577	0.0500097036128864
193101	50	607	0	0	sauerkraut	1364	298	1	stimuli\sauerkraut\sauerkraut_10s.jpg	9	-1	1	0	sauerkraut_10s.jpg	0	0	0	218.290557943285	218.340542778373	0.049984835088253
193201	50	608	0	0	aquarium	34	299	1	stimuli\aquarium\aquarium_03s.jpg	2	-1	1	0	aquarium_03s.jpg	0	0	0	218.390560771455	218.440511229448	0.0499504579929635
193301	50	609	0	0	iron	832	300	1	stimuli\iron\iron_05s.jpg	4	-1	1	0	iron_05s.jpg	0	0	0	218.490531660616	218.540543558542	0.0500118979252875
193401	50	610	0	0	altar	16	301	1	stimuli\altar\altar_10s.jpg	9	-1	1	0	altar_10s.jpg	0	0	0	218.590571060311	218.640546142939	0.0499750826274976
193501	50	611	0	0	shortbread	1429	302	1	stimuli\shortbread\shortbread_11s.jpg	10	-1	1	0	shortbread_11s.jpg	0	0	0	218.690567793208	218.740532392054	0.0499645988456905
193601	50	612	0	0	sunglasses	1585	303	1	stimuli\sunglasses\sunglasses_02s.jpg	1	-1	1	0	sunglasses_02s.jpg	0	0	0	218.790561844246	218.840531806927	0.0499699626816437
193701	50	613	0	0	cigar	343	304	1	stimuli\cigar\cigar_02s.jpg	1	-1	1	0	cigar_02s.jpg	0	0	0	218.890553944861	218.940519762808	0.0499658179469407
193801	50	614	0	0	shield	1420	305	1	stimuli\shield\shield_08n.jpg	7	-1	1	0	shield_08n.jpg	0	0	0	218.990543363499	219.040527710924	0.0499843474244699
193901	50	615	0	0	hamster	743	306	1	stimuli\hamster\hamster_04s.jpg	3	-1	1	0	hamster_04s.jpg	0	0	0	219.090553018381	219.140528101008	0.0499750826274976
194001	50	616	0	0	blouse	144	307	1	stimuli\blouse\blouse_12s.jpg	11	-1	1	0	blouse_12s.jpg	0	0	0	219.190552433254	219.240533123491	0.0499806902371347
194101	50	617	0	0	ice_pack	820	308	1	stimuli\ice_pack\ice_pack_05s.jpg	4	-1	1	0	ice_pack_05s.jpg	0	0	0	219.290557211847	219.340532538365	0.0499753265175968
207718	50	618	0	0	dress	518	0	2	stimuli\dress\dress_10s.jpg	9	-1	2	0	dress_10s.jpg	0	0	0	232.907591104275	232.957563505042	0.0499724007677287
207818	50	619	0	0	cart	278	1	2	stimuli\cart\cart_06s.jpg	5	-1	2	0	cart_06s.jpg	0	0	0	233.007592225797	233.057568527525	0.0499763017287478
207918	50	620	0	0	tostada	1688	2	2	stimuli\tostada\tostada_11s.jpg	10	-1	2	0	tostada_11s.jpg	0	0	0	233.10758603306	233.157572818571	0.0499867855105549
208018	50	621	0	0	pothole	1233	3	2	stimuli\pothole\pothole_01b.jpg	0	-1	2	0	pothole_01b.jpg	0	0	0	233.207596175605	233.257570283022	0.0499741074163467
208118	50	622	0	0	paper_towel	1115	4	2	stimuli\paper_towel\paper_towel_10s.jpg	9	-1	2	0	paper_towel_10s.jpg	0	0	0	233.307618508465	233.357590421685	0.0499719132203609
208218	50	623	0	0	thermometer	1646	5	2	stimuli\thermometer\thermometer_01b.jpg	0	-1	2	0	thermometer_01b.jpg	0	0	0	233.407596711884	233.457596907043	0.0500001951586455
208318	50	624	0	0	taco	1613	6	2	stimuli\taco\taco_08s.jpg	7	-1	2	0	taco_08s.jpg	0	0	0	233.507613924914	233.557576329447	0.0499624045332894
208418	50	625	0	0	marijuana	974	7	2	stimuli\marijuana\marijuana_09s.jpg	8	-1	2	0	marijuana_09s.jpg	0	0	0	233.607601149241	233.657600369072	0.0499992198310792
208518	50	626	0	0	chicken2	323	8	2	stimuli\chicken2\chicken2_07s.jpg	6	-1	2	0	chicken2_07s.jpg	0	0	0	233.707622750779	233.757584423991	0.0499616732122377
208618	50	627	0	0	satellite	1360	9	2	stimuli\satellite\satellite_01b.jpg	0	-1	2	0	satellite_01b.jpg	0	0	0	233.807621677988	233.857602368342	0.04998069035355
208718	50	628	0	0	station_wagon	1542	10	2	stimuli\station_wagon\station_wagon_12s.jpg	11	-1	2	0	station_wagon_12s.jpg	0	0	0	233.907610852853	233.95760032034	0.0499894674867392
208818	50	629	0	0	snake	1477	11	2	stimuli\snake\snake_09s.jpg	8	-1	2	0	snake_09s.jpg	0	0	0	234.007604416343	234.057589251315	0.0499848349718377
208918	50	630	0	0	burner	224	12	2	stimuli\burner\burner_06s.jpg	5	-1	2	0	burner_06s.jpg	0	0	0	234.10761236446	234.157592323376	0.049979958916083
209018	50	631	0	0	tack	1611	13	2	stimuli\tack\tack_01b.jpg	0	-1	2	0	tack_01b.jpg	0	0	0	234.207622507005	234.257602465805	0.0499799587996677
209118	50	632	0	0	piecrust	1169	14	2	stimuli\piecrust\piecrust_07s.jpg	6	-1	2	0	piecrust_07s.jpg	0	0	0	234.307620946551	234.357601393131	0.0499804465798661
209218	50	633	0	0	pelican	1140	15	2	stimuli\pelican\pelican_01b.jpg	0	-1	2	0	pelican_01b.jpg	0	0	0	234.407619873877	234.457610072684	0.0499901988077909
209318	50	634	0	0	snowsuit	1486	16	2	stimuli\snowsuit\snowsuit_07s.jpg	6	-1	2	0	snowsuit_07s.jpg	0	0	0	234.507650496322	234.557624603738	0.0499741074163467
209418	50	635	0	0	cat	284	17	2	stimuli\cat\cat_12s.jpg	11	-1	2	0	cat_12s.jpg	0	0	0	234.60762748064	234.65760768333	0.0499802026897669
209518	50	636	0	0	gas_mask	660	18	2	stimuli\gas_mask\gas_mask_06s.jpg	5	-1	2	0	gas_mask_06s.jpg	0	0	0	234.707649813616	234.757615387789	0.0499655741732568
209618	50	637	0	0	grenade	713	19	2	stimuli\grenade\grenade_05s.jpg	4	-1	2	0	grenade_05s.jpg	0	0	0	234.807634112309	234.857614802546	0.0499806902371347
209718	50	638	0	0	hummingbird	811	20	2	stimuli\hummingbird\hummingbird_11s.jpg	10	-1	2	0	hummingbird_11s.jpg	0	0	0	234.90763791569	234.957625920302	0.0499880046118051
209818	50	639	0	0	nose	1063	21	2	stimuli\nose\nose_05s.jpg	4	-1	2	0	nose_05s.jpg	0	0	0	235.007638793439	235.057618264691	0.0499794712522998
209918	50	640	0	0	squeegee	1527	22	2	stimuli\squeegee\squeegee_02s.jpg	1	-1	2	0	squeegee_02s.jpg	0	0	0	235.107642109273	235.157618898549	0.0499767892761156
210018	50	641	0	0	licorice	922	23	2	stimuli\licorice\licorice_09s.jpg	8	-1	2	0	licorice_09s.jpg	0	0	0	235.20763908606	235.257625383907	0.0499862978467718
210118	50	642	0	0	bow2	175	24	2	stimuli\bow2\bow2_12s.jpg	11	-1	2	0	bow2_12s.jpg	0	0	0	235.307636794169	235.357622848358	0.0499860541895032
210218	50	643	0	0	sleeping_bag	1462	25	2	stimuli\sleeping_bag\sleeping_bag_02s.jpg	1	-1	2	0	sleeping_bag_02s.jpg	0	0	0	235.407645230065	235.457627139403	0.0499819093383849
210318	50	644	0	0	forklift	635	26	2	stimuli\forklift\forklift_08n.jpg	7	-1	2	0	forklift_08n.jpg	0	0	0	235.507647326798	235.557621190441	0.0499738636426628
210418	50	645	0	0	tape	1622	27	2	stimuli\tape\tape_08s.jpg	7	-1	2	0	tape_08s.jpg	0	0	0	235.607675267383	235.657653763308	0.0499784959247336
210518	50	646	0	0	statue	1543	28	2	stimuli\statue\statue_03s.jpg	2	-1	2	0	statue_03s.jpg	0	0	0	235.707664442249	235.757638062001	0.0499736197525635
210618	50	647	0	0	coffee	377	29	2	stimuli\coffee\coffee_08s.jpg	7	-1	2	0	coffee_08s.jpg	0	0	0	235.807657030411	235.857636014	0.0499789835885167
210718	50	648	0	0	measuring_cup	986	30	2	stimuli\measuring_cup\measuring_cup_05s.jpg	4	-1	2	0	measuring_cup_05s.jpg	0	0	0	235.907663759543	235.957644937444	0.0499811779009178
210818	50	649	0	0	hotdog	805	31	2	stimuli\hotdog\hotdog_03s.jpg	2	-1	2	0	hotdog_03s.jpg	0	0	0	236.007667319151	236.057645083754	0.0499777646036819
210918	50	650	0	0	radiator	1272	32	2	stimuli\radiator\radiator_11s.jpg	10	-1	2	0	radiator_11s.jpg	0	0	0	236.107662589289	236.15764376719	0.0499811779009178
211018	50	651	0	0	slime	1465	33	2	stimuli\slime\slime_12s.jpg	11	-1	2	0	slime_12s.jpg	0	0	0	236.207667611772	236.257654641056	0.0499870292842388
211118	50	652	0	0	reindeer	1301	34	2	stimuli\reindeer\reindeer_08s.jpg	7	-1	2	0	reindeer_08s.jpg	0	0	0	236.307672390365	236.35765113018	0.0499787398148328
