onset	duration	eventnumber	blocksequencenumber	isteststim	object	objectnumber	presentationnumber	sequencenumber	stim	stimnumber	teststimnumber	withinsequencenumber	istarget	stimname	response	rt	correct	time_stimon	time_stimoff	stimdur
117400	50	0	0	0	rolling_pin	1328	0	0	stimuli\rolling_pin\rolling_pin_01b.jpg	0	-1	0	0	rolling_pin_01b.jpg	0	0	0	104.611766742411	104.661748456685	0.0499817142735992
117500	50	1	0	0	mat	982	1	0	stimuli\mat\mat_05s.jpg	4	-1	0	0	mat_05s.jpg	0	0	0	104.711772106224	104.761753332878	0.0499812266534718
117600	50	2	0	0	showerhead	1436	2	0	stimuli\showerhead\showerhead_09s.jpg	8	-1	0	0	showerhead_09s.jpg	0	0	0	104.811769424316	104.86175284526	0.0499834209440451
117700	50	3	0	0	eyeliner	567	3	0	stimuli\eyeliner\eyeliner_09s.jpg	8	-1	0	0	eyeliner_09s.jpg	0	0	0	104.911793561474	104.961759184309	0.0499656228348613
117800	50	4	0	0	filing_cabinet	585	4	0	stimuli\filing_cabinet\filing_cabinet_06s.jpg	5	-1	0	0	filing_cabinet_06s.jpg	0	0	0	105.011782346228	105.061761866218	0.0499795199903019
117900	50	5	0	0	cookie_sheet	402	5	0	stimuli\cookie_sheet\cookie_sheet_01b.jpg	0	-1	0	0	cookie_sheet_01b.jpg	0	0	0	105.111784296707	105.162227786499	0.0504434897920873
118000	50	6	0	0	boar	151	6	0	stimuli\boar\boar_09s.jpg	8	-1	0	0	boar_09s.jpg	0	0	0	105.211768205267	105.261775763367	0.050007558100333
118100	50	7	0	0	biscuit	133	7	0	stimuli\biscuit\biscuit_04s.jpg	3	-1	0	0	biscuit_04s.jpg	0	0	0	105.311792098615	105.361767473838	0.0499753752228571
118200	50	8	0	0	drink	521	8	0	stimuli\drink\drink_01b.jpg	0	-1	0	0	drink_01b.jpg	0	0	0	105.411785271946	105.461779664322	0.0499943923750834
118300	50	9	0	0	tostada	1688	9	0	stimuli\tostada\tostada_03s.jpg	2	-1	0	0	tostada_03s.jpg	0	0	0	105.511800875764	105.561776007176	0.0499751314127934
118400	50	10	0	0	panda	1105	10	0	stimuli\panda\panda_04s.jpg	3	-1	0	0	panda_04s.jpg	0	0	0	105.611794049095	105.661776982415	0.0499829333202797
118500	50	11	0	0	go-kart	682	11	0	stimuli\go-kart\go-kart_02s.jpg	1	-1	0	0	go-kart_02s.jpg	0	0	0	105.711799900524	105.761779664324	0.0499797638003656
118600	50	12	0	0	dreidel	517	12	0	stimuli\dreidel\dreidel_01b.jpg	0	-1	0	0	dreidel_01b.jpg	0	0	0	105.811797462429	105.86178088337	0.0499834209404071
118700	50	13	0	0	headband	762	13	0	stimuli\headband\headband_05s.jpg	4	-1	0	0	headband_05s.jpg	0	0	0	105.911808190056	105.961791854807	0.0499836647504708
118800	50	14	0	0	tree	1708	14	0	stimuli\tree\tree_12s.jpg	11	-1	0	0	tree_12s.jpg	0	0	0	106.011801363384	106.061785759564	0.0499843961806619
118900	50	15	0	0	toe	1668	15	0	stimuli\toe\toe_11s.jpg	10	-1	0	0	toe_11s.jpg	0	0	0	106.111809165293	106.161790148137	0.0499809828434081
119000	50	16	0	0	iguana	825	16	0	stimuli\iguana\iguana_07s.jpg	6	-1	0	0	iguana_07s.jpg	0	0	0	106.211807458625	106.261795024333	0.0499875657078519
119100	50	17	0	0	coconut	375	17	0	stimuli\coconut\coconut_11s.jpg	10	-1	0	0	coconut_11s.jpg	0	0	0	106.311814285295	106.361794049095	0.0499797638003656
119200	50	18	0	0	doorbell	507	18	0	stimuli\doorbell\doorbell_11s.jpg	10	-1	0	0	doorbell_11s.jpg	0	0	0	106.4118118472	106.461800631954	0.0499887847545324
119300	50	19	0	0	dishwasher	491	19	0	stimuli\dishwasher\dishwasher_08s.jpg	7	-1	0	0	dishwasher_08s.jpg	0	0	0	106.511822574827	106.56180453291	0.0499819580836629
119400	50	20	0	0	mirror	1005	20	0	stimuli\mirror\mirror_03s.jpg	2	-1	0	0	mirror_03s.jpg	0	0	0	106.611822087205	106.661806483386	0.0499843961806619
119500	50	21	0	0	top_hat	1682	21	0	stimuli\top_hat\top_hat_01b.jpg	0	-1	0	0	top_hat_01b.jpg	0	0	0	106.711826475781	106.761810384342	0.0499839085605345
119600	50	22	0	0	blowfish	146	22	0	stimuli\blowfish\blowfish_12s.jpg	11	-1	0	0	blowfish_12s.jpg	0	0	0	106.811823062446	106.861807702437	0.0499846399907256
119700	50	23	0	0	soldering_iron	1494	23	0	stimuli\soldering_iron\soldering_iron_11s.jpg	10	-1	0	0	soldering_iron_11s.jpg	0	0	0	106.911831108162	106.961810140532	0.0499790323701745
119800	50	24	0	0	revolving_door	1305	24	0	stimuli\revolving_door\revolving_door_07s.jpg	6	-1	0	0	revolving_door_07s.jpg	0	0	0	107.011830376734	107.061815260535	0.0499848838007892
119900	50	25	0	0	piglet	1173	25	0	stimuli\piglet\piglet_06s.jpg	5	-1	0	0	piglet_06s.jpg	0	0	0	107.11183330245	107.161818430061	0.0499851276108529
120000	50	26	0	0	rudder	1339	26	0	stimuli\rudder\rudder_02s.jpg	1	-1	0	0	rudder_02s.jpg	0	0	0	107.211841348169	107.261822818633	0.0499814704635355
120100	50	27	0	0	bone	161	27	0	stimuli\bone\bone_11s.jpg	10	-1	0	0	bone_11s.jpg	0	0	0	107.311843054838	107.361826231969	0.0499831771303434
120200	50	28	0	0	pulley	1250	28	0	stimuli\pulley\pulley_08s.jpg	7	-1	0	0	pulley_08s.jpg	0	0	0	107.411838910073	107.461831351975	0.0499924419018498
120300	50	29	0	0	trophy	1717	29	0	stimuli\trophy\trophy_12s.jpg	11	-1	0	0	trophy_12s.jpg	0	0	0	107.51184890627	107.561831108163	0.0499822018937266
120400	50	30	0	0	keyboard	870	30	0	stimuli\keyboard\keyboard_04s.jpg	3	-1	0	0	keyboard_04s.jpg	0	0	0	107.611849637698	107.661831351972	0.0499817142735992
120500	50	31	0	0	sunroof	1586	31	0	stimuli\sunroof\sunroof_03s.jpg	2	-1	0	0	sunroof_03s.jpg	0	0	0	107.711858414848	107.761834521498	0.0499761066494102
120600	50	32	0	0	juicer1	855	32	0	stimuli\juicer1\juicer1_04s.jpg	3	-1	0	0	juicer1_04s.jpg	0	0	0	107.811854513893	107.861838910074	0.0499843961806619
120700	50	33	0	0	spinach	1515	33	0	stimuli\spinach\spinach_01b.jpg	0	-1	0	0	spinach_01b.jpg	0	0	0	107.911854270082	107.961837203406	0.0499829333239177
120800	50	34	0	0	beaver	107	34	0	stimuli\beaver\beaver_12s.jpg	11	-1	0	0	beaver_12s.jpg	0	0	0	108.011855489131	108.061843786265	0.049988297134405
120900	50	35	0	0	sail	1346	35	0	stimuli\sail\sail_05s.jpg	4	-1	0	0	sail_05s.jpg	0	0	0	108.111861828183	108.161858658656	0.0499968304720824
121000	50	36	0	0	latch	900	36	0	stimuli\latch\latch_08s.jpg	7	-1	0	0	latch_08s.jpg	0	0	0	108.211867923423	108.261845005316	0.049977081893303
121100	50	37	0	0	grinder	716	37	0	stimuli\grinder\grinder_05s.jpg	4	-1	0	0	grinder_05s.jpg	0	0	0	108.311865729138	108.361845736745	0.0499800076067913
121200	50	38	0	0	ant	24	38	0	stimuli\ant\ant_03s.jpg	2	-1	0	0	ant_03s.jpg	0	0	0	108.411867679613	108.461855732941	0.0499880533279793
121300	50	39	0	0	turban	1730	39	0	stimuli\turban\turban_06s.jpg	5	-1	0	0	turban_06s.jpg	0	0	0	108.511875969143	108.56185646437	0.0499804952269187
121400	50	40	0	0	toilet_paper	1671	40	0	stimuli\toilet_paper\toilet_paper_06s.jpg	5	-1	0	0	toilet_paper_06s.jpg	0	0	0	108.611869873901	108.661825500541	0.0499556266404397
121500	50	41	0	0	roadsweeper	1316	41	0	stimuli\roadsweeper\roadsweeper_02s.jpg	1	-1	0	0	roadsweeper_02s.jpg	0	0	0	108.711882795815	108.761862315801	0.0499795199866639
121600	50	42	0	0	mashed_potato	979	42	0	stimuli\mashed_potato\mashed_potato_02s.jpg	1	-1	0	0	mashed_potato_02s.jpg	0	0	0	108.811878163429	108.861859877707	0.0499817142772372
121700	50	43	0	0	dress	518	43	0	stimuli\dress\dress_07s.jpg	6	-1	0	0	dress_07s.jpg	0	0	0	108.911887184389	108.961868411043	0.0499812266534718
121800	50	44	0	0	cashew	281	44	0	stimuli\cashew\cashew_07s.jpg	6	-1	0	0	cashew_07s.jpg	0	0	0	109.011885477721	109.061863047231	0.0499775695097924
121900	50	45	0	0	punch1	1254	45	0	stimuli\punch1\punch1_11s.jpg	10	-1	0	1	punch1_11s.jpg	0	0	0	109.111887184386	109.161875969145	0.0499887847581704
122000	50	46	0	0	gondola	691	46	0	stimuli\gondola\gondola_11s.jpg	10	-1	0	0	gondola_11s.jpg	0	0	0	109.211888891055	109.261875237713	0.0499863466575334
122100	50	47	0	0	pug	1249	47	0	stimuli\pug\pug_11s.jpg	10	-1	0	0	pug_11s.jpg	0	0	0	109.311894254868	109.361878163429	0.0499839085605345
122200	50	48	0	0	root	1331	48	0	stimuli\root\root_12s.jpg	11	-1	0	0	root_12s.jpg	0	0	0	109.411901812968	109.461886452958	0.0499846399907256
122300	50	49	0	0	curtain	465	49	0	stimuli\curtain\curtain_07s.jpg	6	-1	0	0	curtain_07s.jpg	0	0	0	109.511905713924	109.561881089146	0.0499753752228571
122400	50	50	0	0	sidecar	1442	50	0	stimuli\sidecar\sidecar_03s.jpg	2	-1	0	0	sidecar_03s.jpg	0	0	0	109.611897912015	109.661885721529	0.0499878095142776
122500	50	51	0	0	wrapping_paper	1838	51	0	stimuli\wrapping_paper\wrapping_paper_11s.jpg	10	-1	0	0	wrapping_paper_11s.jpg	0	0	0	109.711910346308	109.761892060582	0.0499817142735992
122600	50	52	0	0	oilcan	1073	52	0	stimuli\oilcan\oilcan_07s.jpg	6	-1	0	0	oilcan_07s.jpg	0	0	0	109.81190717678	109.861891085344	0.0499839085641725
122700	50	53	0	0	cauliflower	288	53	0	stimuli\cauliflower\cauliflower_03s.jpg	2	-1	0	0	cauliflower_03s.jpg	0	0	0	109.91191644155	109.961895230106	0.0499787885564729
122800	50	54	0	0	brooch	202	54	0	stimuli\brooch\brooch_03s.jpg	2	-1	0	0	brooch_03s.jpg	0	0	0	110.011896205346	110.061890597724	0.0499943923787214
122900	50	55	0	0	hot-water_bottle	802	55	0	stimuli\hot-water_bottle\hot-water_bottle_09s.jpg	8	-1	0	0	hot-water_bottle_09s.jpg	0	0	0	110.111916929167	110.161895961537	0.0499790323701745
123000	50	56	0	0	stapler	1539	56	0	stimuli\stapler\stapler_01b.jpg	0	-1	0	0	stapler_01b.jpg	0	0	0	110.211913272022	110.261898887253	0.0499856152309803
123100	50	57	0	0	flour	618	57	0	stimuli\flour\flour_10s.jpg	9	-1	0	0	flour_10s.jpg	0	0	0	110.311922049172	110.361902544399	0.0499804952269187
123200	50	58	0	0	stalagmite	1534	58	0	stimuli\stalagmite\stalagmite_08s.jpg	7	-1	0	0	stalagmite_08s.jpg	0	0	0	110.411928388221	110.461910346308	0.0499819580873009
123300	50	59	0	0	tattoo	1629	59	0	stimuli\tattoo\tattoo_10s.jpg	9	-1	0	0	tattoo_10s.jpg	0	0	0	110.51193009489	110.561904982493	0.0499748876027297
123400	50	60	0	0	barrel	76	60	0	stimuli\barrel\barrel_12s.jpg	11	-1	0	0	barrel_12s.jpg	0	0	0	110.611925462508	110.661909858689	0.0499843961806619
123500	50	61	0	0	sushi	1588	61	0	stimuli\sushi\sushi_06s.jpg	5	-1	0	0	sushi_06s.jpg	0	0	0	110.711931557747	110.761904494873	0.0499729371258582
123600	50	62	0	0	scuba	1392	62	0	stimuli\scuba\scuba_04s.jpg	3	-1	0	0	scuba_04s.jpg	0	0	0	110.811929363463	110.86191497869	0.0499856152273424
123700	50	63	0	0	ottoman	1086	63	0	stimuli\ottoman\ottoman_12s.jpg	11	-1	0	0	ottoman_12s.jpg	0	0	0	110.911939359659	110.961921805363	0.0499824457037903
123800	50	64	0	0	bouquet	173	64	0	stimuli\bouquet\bouquet_03s.jpg	2	-1	0	0	bouquet_03s.jpg	0	0	0	111.011936190131	111.061920342505	0.0499841523742361
123900	50	65	0	0	cinnamon	348	65	0	stimuli\cinnamon\cinnamon_10s.jpg	9	-1	0	0	cinnamon_10s.jpg	0	0	0	111.111945942521	111.161925462507	0.0499795199866639
124000	50	66	0	0	locker	941	66	0	stimuli\locker\locker_06s.jpg	5	-1	0	0	locker_06s.jpg	0	0	0	111.211938140608	111.261916441548	0.0499783009399835
124100	50	67	0	0	skateboard	1449	67	0	stimuli\skateboard\skateboard_05s.jpg	4	-1	0	0	skateboard_05s.jpg	0	0	0	111.311938872037	111.36191595393	0.049977081893303
124200	50	68	0	0	checkbook	310	68	0	stimuli\checkbook\checkbook_05s.jpg	4	-1	0	0	checkbook_05s.jpg	0	0	0	111.411941066326	111.461929363461	0.049988297134405
124300	50	69	0	0	easel	542	69	0	stimuli\easel\easel_12s.jpg	11	-1	0	0	easel_12s.jpg	0	0	0	111.511940822515	111.561922049172	0.0499812266571098
124400	50	70	0	0	panther	1106	70	0	stimuli\panther\panther_06s.jpg	5	-1	0	0	panther_06s.jpg	0	0	0	111.611941310137	111.661923999647	0.049982689510216
124500	50	71	0	0	beanie	104	71	0	stimuli\beanie\beanie_11s.jpg	10	-1	0	0	beanie_11s.jpg	0	0	0	111.711946186329	111.761928144413	0.0499819580836629
124600	50	72	0	0	cleaver	354	72	0	stimuli\cleaver\cleaver_02s.jpg	1	-1	0	0	cleaver_02s.jpg	0	0	0	111.811944479661	111.861929851082	0.0499853714209166
124700	50	73	0	0	wheat	1805	73	0	stimuli\wheat\wheat_05n.jpg	4	-1	0	0	wheat_05n.jpg	0	0	0	111.911952037761	111.961938628228	0.0499865904675971
124800	50	74	0	0	apple	30	74	0	stimuli\apple\apple_09s.jpg	8	-1	0	0	apple_09s.jpg	0	0	0	112.011954475856	112.06193814061	0.0499836647541088
124900	50	75	0	0	lifesaver	925	75	0	stimuli\lifesaver\lifesaver_06s.jpg	5	-1	0	0	lifesaver_06s.jpg	0	0	0	112.111957157766	112.161941310136	0.0499841523705982
125000	50	76	0	0	swimming_pool	1596	76	0	stimuli\swimming_pool\swimming_pool_01b.jpg	0	-1	0	0	swimming_pool_01b.jpg	0	0	0	112.211954232047	112.261941066325	0.0499868342776608
125100	50	77	0	0	chariot	309	77	0	stimuli\chariot\chariot_05s.jpg	4	-1	0	0	chariot_05s.jpg	0	0	0	112.311963009197	112.361943748234	0.0499807390369824
125200	50	78	0	0	gravel	709	78	0	stimuli\gravel\gravel_10s.jpg	9	-1	0	0	gravel_10s.jpg	0	0	0	112.411961302529	112.461951062523	0.0499897599947872
125300	50	79	0	0	pillbox	1175	79	0	stimuli\pillbox\pillbox_02s.jpg	1	-1	0	0	pillbox_02s.jpg	0	0	0	112.511971542535	112.561952281572	0.0499807390369824
125400	50	80	0	0	pillow	1176	80	0	stimuli\pillow\pillow_07s.jpg	6	-1	0	0	pillow_07s.jpg	0	0	0	112.61196837301	112.661958620622	0.0499902476112766
125500	50	81	0	0	jigsaw_puzzle	851	81	0	stimuli\jigsaw_puzzle\jigsaw_puzzle_05s.jpg	4	-1	0	0	jigsaw_puzzle_05s.jpg	0	0	0	112.71197446825	112.76195398824	0.0499795199903019
125600	50	82	0	0	yarn	1846	82	0	stimuli\yarn\yarn_06s.jpg	5	-1	0	0	yarn_06s.jpg	0	0	0	112.811973249201	112.861958133002	0.0499848838007892
125700	50	83	0	0	football_helmet	630	83	0	stimuli\football_helmet\football_helmet_12s.jpg	11	-1	0	0	football_helmet_12s.jpg	0	0	0	112.911983976828	112.961961058718	0.049977081889665
125800	50	84	0	0	lanyard	896	84	0	stimuli\lanyard\lanyard_05s.jpg	4	-1	0	0	lanyard_05s.jpg	0	0	0	113.011981294923	113.061962765387	0.0499814704635355
125900	50	85	0	0	toilet	1670	85	0	stimuli\toilet\toilet_10s.jpg	9	-1	0	0	toilet_10s.jpg	0	0	0	113.111983245399	113.161983489208	0.0500002438093361
126000	50	86	0	0	magnifier	957	86	0	stimuli\magnifier\magnifier_06s.jpg	5	-1	0	0	magnifier_06s.jpg	0	0	0	113.21198105111	113.261966666341	0.0499856152309803
126100	50	87	0	0	guinea_pig	722	87	0	stimuli\guinea_pig\guinea_pig_01b.jpg	0	-1	0	0	guinea_pig_01b.jpg	0	0	0	113.311988365404	113.361971054914	0.049982689510216
126200	50	88	0	0	anteater	25	88	0	stimuli\anteater\anteater_05s.jpg	4	-1	0	0	anteater_05s.jpg	0	0	0	113.411989828259	113.461979832064	0.0499900038048509
126300	50	89	0	0	ham	739	89	0	stimuli\ham\ham_12s.jpg	11	-1	0	0	ham_12s.jpg	0	0	0	113.511994948265	113.561974712062	0.0499797637967276
126400	50	90	0	0	chick	321	90	0	stimuli\chick\chick_10s.jpg	9	-1	0	0	chick_10s.jpg	0	0	0	113.611992266357	113.661983489208	0.0499912228515313
126500	50	91	0	0	switch	1600	91	0	stimuli\switch\switch_03s.jpg	2	-1	0	0	switch_03s.jpg	0	0	0	113.712003481603	113.761986658734	0.0499831771303434
126600	50	92	0	0	easter_egg	543	92	0	stimuli\easter_egg\easter_egg_06s.jpg	5	-1	0	0	easter_egg_06s.jpg	0	0	0	113.811999093028	113.861987146352	0.0499880533243413
126700	50	93	0	0	clothespin	363	93	0	stimuli\clothespin\clothespin_05s.jpg	4	-1	0	0	clothespin_05s.jpg	0	0	0	113.912009576845	113.961989828262	0.049980251416855
126800	50	94	0	0	meatball	989	94	0	stimuli\meatball\meatball_04s.jpg	3	-1	0	0	meatball_04s.jpg	0	0	0	114.012008845413	114.061988609214	0.0499797638003656
126900	50	95	0	0	gyroscope	731	95	0	stimuli\gyroscope\gyroscope_08s.jpg	7	-1	0	0	gyroscope_08s.jpg	0	0	0	114.112012502559	114.161991534929	0.0499790323701745
127000	50	96	0	0	net	1057	96	0	stimuli\net\net_11s.jpg	10	-1	0	0	net_11s.jpg	0	0	0	114.212017622562	114.261998361599	0.0499807390369824
127100	50	97	0	0	bin	125	97	0	stimuli\bin\bin_03s.jpg	2	-1	0	0	bin_03s.jpg	0	0	0	114.312022011138	114.362014453036	0.0499924418982118
127200	50	98	0	0	nightstand	1059	98	0	stimuli\nightstand\nightstand_02s.jpg	1	-1	0	0	nightstand_02s.jpg	0	0	0	114.412047854963	114.46200421303	0.0499563580669928
127300	50	99	0	0	doorknocker	510	99	0	stimuli\doorknocker\doorknocker_10s.jpg	9	-1	0	0	doorknocker_10s.jpg	0	0	0	114.512019816852	114.562001774935	0.0499819580836629
127400	50	100	0	0	water_cooler	1788	100	0	stimuli\water_cooler\water_cooler_12s.jpg	11	-1	0	0	water_cooler_12s.jpg	0	0	0	114.61202006066	114.662010308271	0.0499902476112766
127500	50	101	0	0	coverall	425	101	0	stimuli\coverall\coverall_11s.jpg	10	-1	0	0	coverall_11s.jpg	0	0	0	114.712032251144	114.76201177113	0.0499795199866639
127600	50	102	0	0	straightjacket	1565	102	0	stimuli\straightjacket\straightjacket_02s.jpg	1	-1	0	0	straightjacket_02s.jpg	0	0	0	114.812031275906	114.862013965419	0.049982689513854
127700	50	103	0	0	spareribs	1505	103	0	stimuli\spareribs\spareribs_06s.jpg	5	-1	0	0	spareribs_06s.jpg	0	0	0	114.912030056857	114.962014209228	0.0499841523705982
127800	50	104	0	0	milk	1001	104	0	stimuli\milk\milk_11s.jpg	10	-1	0	0	milk_11s.jpg	0	0	0	115.012030788286	115.062027862568	0.0499970742821461
127900	50	105	0	0	peeler	1138	105	0	stimuli\peeler\peeler_11s.jpg	10	-1	0	0	peeler_11s.jpg	0	0	0	115.112041028293	115.162032007334	0.0499909790414677
128000	50	106	0	0	bracelet1	187	106	0	stimuli\bracelet1\bracelet1_09s.jpg	8	-1	0	0	bracelet1_09s.jpg	0	0	0	115.212046635916	115.262032007333	0.0499853714172787
128100	50	107	0	0	goblet	685	107	0	stimuli\goblet\goblet_10s.jpg	9	-1	0	0	goblet_10s.jpg	0	0	0	115.31204297877	115.362035176859	0.0499921980881481
128200	50	108	0	0	gong	692	108	0	stimuli\gong\gong_01b.jpg	0	-1	0	0	gong_01b.jpg	0	0	0	115.412042978769	115.462038346384	0.0499953676153382
128300	50	109	0	0	stove2	1564	109	0	stimuli\stove2\stove2_10s.jpg	9	-1	0	0	stove2_10s.jpg	0	0	0	115.512089790227	115.562043222577	0.0499534323498665
128400	50	110	0	0	bell_pepper	117	110	0	stimuli\bell_pepper\bell_pepper_08s.jpg	7	-1	0	0	bell_pepper_08s.jpg	0	0	0	115.61204907401	115.662035908288	0.0499868342776608
128500	50	111	0	0	hotdog	805	111	0	stimuli\hotdog\hotdog_01b.jpg	0	-1	0	0	hotdog_01b.jpg	0	0	0	115.712072479739	115.762045660675	0.0499731809359218
128600	50	112	0	0	grapefruit	703	112	0	stimuli\grapefruit\grapefruit_03s.jpg	2	-1	0	0	grapefruit_03s.jpg	0	0	0	115.81206492164	115.862047367344	0.0499824457037903
128700	50	113	0	0	remote_control	1302	113	0	stimuli\remote_control\remote_control_10s.jpg	9	-1	0	0	remote_control_10s.jpg	0	0	0	115.912070285453	115.96205736354	0.0499870780877245
128800	50	114	0	0	cable	234	114	0	stimuli\cable\cable_11s.jpg	10	-1	0	0	cable_11s.jpg	0	0	0	116.012077599742	116.062058826399	0.0499812266571098
128900	50	115	0	0	wax_paper	1796	115	0	stimuli\wax_paper\wax_paper_07s.jpg	6	-1	0	0	wax_paper_07s.jpg	0	0	0	116.112082232125	116.162066872115	0.0499846399907256
129000	50	116	0	0	drill	520	116	0	stimuli\drill\drill_04s.jpg	3	-1	0	0	drill_04s.jpg	0	0	0	116.212078574979	116.26206467783	0.0499861028511077
129100	50	117	0	0	taxi	1630	117	0	stimuli\taxi\taxi_10s.jpg	9	-1	0	0	taxi_10s.jpg	0	0	0	116.312080769269	116.362050049251	0.0499692799821787
129200	50	118	0	0	urinal	1748	118	0	stimuli\urinal\urinal_05s.jpg	4	-1	0	0	urinal_05s.jpg	0	0	0	116.412085889271	116.462064434021	0.0499785447500471
129300	50	119	0	0	shoe_polish	1424	119	0	stimuli\shoe_polish\shoe_polish_12s.jpg	11	-1	0	0	shoe_polish_12s.jpg	0	0	0	116.51208735213	116.56206540926	0.0499780571299198
129400	50	120	0	0	shears	1412	120	0	stimuli\shears\shears_10s.jpg	9	-1	0	0	shears_10s.jpg	0	0	0	116.612073454977	116.662077112123	0.0500036571465898
129500	50	121	0	0	boomerang	168	121	0	stimuli\boomerang\boomerang_03s.jpg	2	-1	0	0	boomerang_03s.jpg	0	0	0	116.712095397848	116.762070773071	0.0499753752228571
129600	50	122	0	0	flip_flop	614	122	0	stimuli\flip_flop\flip_flop_05s.jpg	4	-1	0	0	flip_flop_05s.jpg	0	0	0	116.812087839749	116.862075161647	0.0499873218977882
129700	50	123	0	0	lip_gloss	935	123	0	stimuli\lip_gloss\lip_gloss_05s.jpg	4	-1	0	0	lip_gloss_05s.jpg	0	0	0	116.912098567373	116.962083694983	0.0499851276108529
129800	50	124	0	0	lumber	949	124	0	stimuli\lumber\lumber_10s.jpg	9	-1	0	0	lumber_10s.jpg	0	0	0	117.012095154038	117.062081988315	0.0499868342776608
129900	50	125	0	0	file1	583	125	0	stimuli\file1\file1_05s.jpg	4	-1	0	0	file1_05s.jpg	0	0	0	117.112101736901	117.162088083558	0.0499863466575334
130000	50	126	0	0	napkin_ring	1051	126	0	stimuli\napkin_ring\napkin_ring_02s.jpg	1	-1	0	0	napkin_ring_02s.jpg	0	0	0	117.212094422608	117.262088571177	0.0499941485686577
130100	50	127	0	0	calculator	240	127	0	stimuli\calculator\calculator_05s.jpg	4	-1	0	0	calculator_05s.jpg	0	0	0	117.312110270239	117.362087839749	0.0499775695097924
130200	50	128	0	0	playing_card	1199	128	0	stimuli\playing_card\playing_card_09s.jpg	8	-1	0	0	playing_card_09s.jpg	0	0	0	117.412096373086	117.462081256886	0.0499848838007892
130300	50	129	0	0	baby	46	129	0	stimuli\baby\baby_12s.jpg	11	-1	0	0	baby_12s.jpg	0	0	0	117.512113195953	117.562084182602	0.0499709866489866
130400	50	130	0	0	tuning_fork	1728	130	0	stimuli\tuning_fork\tuning_fork_07s.jpg	6	-1	0	1	tuning_fork_07s.jpg	0	0	0	117.612111001668	117.662098079756	0.0499870780877245
130500	50	131	0	0	cross	443	131	0	stimuli\cross\cross_09s.jpg	8	-1	0	0	cross_09s.jpg	0	0	0	117.712124898819	117.762102712139	0.0499778133198561
130600	50	132	0	0	sundial	1583	132	0	stimuli\sundial\sundial_07s.jpg	6	-1	0	0	sundial_07s.jpg	0	0	0	117.812123923581	117.862106856905	0.0499829333239177
130700	50	133	0	0	mascara	978	133	0	stimuli\mascara\mascara_02s.jpg	1	-1	0	0	mascara_02s.jpg	0	0	0	117.912127580727	117.962105394046	0.0499778133198561
130800	50	134	0	0	pecan	1135	134	0	stimuli\pecan\pecan_02s.jpg	1	-1	0	0	pecan_02s.jpg	0	0	0	118.012123192151	118.062106856902	0.0499836647504708
130900	50	135	0	0	papaya	1111	135	0	stimuli\papaya\papaya_02s.jpg	1	-1	0	0	papaya_02s.jpg	0	0	0	118.112130506441	118.162108075951	0.0499775695097924
131000	50	136	0	0	seismograph	1403	136	0	stimuli\seismograph\seismograph_07s.jpg	6	-1	0	0	seismograph_07s.jpg	0	0	0	118.212129287393	118.262115146434	0.049985859041044
131100	50	137	0	0	camera2	247	137	0	stimuli\camera2\camera2_03s.jpg	2	-1	0	0	camera2_03s.jpg	1	0.692214913349744	1	118.312136114062	118.362118072149	0.0499819580873009
131200	50	138	0	0	airbag	7	138	0	stimuli\airbag\airbag_10s.jpg	9	-1	0	0	airbag_10s.jpg	0	0	0	118.412226811262	118.462116365481	0.0498895542186801
131300	50	139	0	0	pole	1213	139	0	stimuli\pole\pole_04s.jpg	3	-1	0	0	pole_04s.jpg	0	0	0	118.51214001502	118.562121485484	0.0499814704635355
131400	50	140	0	0	umbrella	1743	140	0	stimuli\umbrella\umbrella_10s.jpg	9	-1	0	0	umbrella_10s.jpg	0	0	0	118.612141721685	118.662130018824	0.049988297138043
131500	50	141	0	0	headdress	763	141	0	stimuli\headdress\headdress_11s.jpg	10	-1	0	0	headdress_11s.jpg	0	0	0	118.712147573118	118.762125874058	0.0499783009399835
131600	50	142	0	0	teabag	1632	142	0	stimuli\teabag\teabag_04s.jpg	3	-1	0	0	teabag_04s.jpg	0	0	0	118.812140990256	118.862145622639	0.0500046323832066
131700	50	143	0	0	column	388	143	0	stimuli\column\column_11s.jpg	10	-1	0	0	column_11s.jpg	0	0	0	118.91215342455	118.962130994059	0.0499775695097924
131800	50	144	0	0	flagpole	606	144	0	stimuli\flagpole\flagpole_03s.jpg	2	-1	0	0	flagpole_03s.jpg	0	0	0	119.012149279784	119.062135626446	0.0499863466611714
131900	50	145	0	0	shovel	1432	145	0	stimuli\shovel\shovel_08n.jpg	7	-1	0	0	shovel_08n.jpg	0	0	0	119.112156350267	119.162144891212	0.0499885409444687
132000	50	146	0	0	puppet	1257	146	0	stimuli\puppet\puppet_11s.jpg	10	-1	0	0	puppet_11s.jpg	0	0	0	119.212149279785	119.262142940734	0.0499936609485303
132100	50	147	0	0	breathalyzer	198	147	0	stimuli\breathalyzer\breathalyzer_06s.jpg	5	-1	0	0	breathalyzer_06s.jpg	0	0	0	119.312152449311	119.362157569314	0.050005120003334
132200	50	148	0	0	banana_split	65	148	0	stimuli\banana_split\banana_split_06s.jpg	5	-1	0	0	banana_split_06s.jpg	0	0	0	119.412166834081	119.462151474072	0.0499846399907256
132300	50	149	0	0	pepper_mill	1151	149	0	stimuli\pepper_mill\pepper_mill_11s.jpg	10	-1	0	0	pepper_mill_11s.jpg	0	0	0	119.51216927218	119.562151961691	0.049982689510216
132400	50	150	0	0	keg	866	150	0	stimuli\keg\keg_07s.jpg	6	-1	0	0	keg_07s.jpg	0	0	0	119.612164152175	119.662149767406	0.0499856152309803
132500	50	151	0	0	jar	840	151	0	stimuli\jar\jar_01s.jpg	0	-1	0	0	jar_01s.jpg	0	0	0	119.712172685515	119.762165127413	0.0499924418982118
132600	50	152	0	0	squeegee	1527	152	0	stimuli\squeegee\squeegee_10s.jpg	9	-1	0	0	squeegee_10s.jpg	0	0	0	119.812177074087	119.86217634266	0.0499992685727193
132700	50	153	0	0	log	943	153	0	stimuli\log\log_08s.jpg	7	-1	0	0	log_08s.jpg	0	0	0	119.912172929326	119.962153424549	0.0499804952232807
132800	50	154	0	0	spatula	1508	154	0	stimuli\spatula\spatula_01b.jpg	0	-1	0	0	spatula_01b.jpg	0	0	0	120.012170247417	120.062154887408	0.0499846399907256
132900	50	155	0	0	trolley	1715	155	0	stimuli\trolley\trolley_12s.jpg	11	-1	0	0	trolley_12s.jpg	0	0	0	120.112167565512	120.162155375026	0.0499878095142776
133000	50	156	0	0	coat_rack	370	156	0	stimuli\coat_rack\coat_rack_09s.jpg	8	-1	0	0	coat_rack_09s.jpg	0	0	0	120.212173660751	120.262152449312	0.0499787885601108
133100	50	157	0	0	guardrail	720	157	0	stimuli\guardrail\guardrail_01b.jpg	0	-1	0	0	guardrail_01b.jpg	0	0	0	120.312173904564	120.362146597879	0.0499726933157945
133200	50	158	0	0	spoon	1519	158	0	stimuli\spoon\spoon_07s.jpg	6	-1	0	0	spoon_07s.jpg	0	0	0	120.412193896955	120.462164395987	0.0499704990324972
133300	50	159	0	0	appetizer	29	159	0	stimuli\appetizer\appetizer_08s.jpg	7	-1	0	0	appetizer_08s.jpg	0	0	0	120.512182681712	120.562159519792	0.0499768380796013
133400	50	160	0	0	radar	1271	160	0	stimuli\radar\radar_09s.jpg	8	-1	0	0	radar_09s.jpg	0	0	0	120.612186338858	120.662170735039	0.0499843961806619
133500	50	161	0	0	comb	389	161	0	stimuli\comb\comb_11s.jpg	10	-1	0	0	comb_11s.jpg	0	0	0	120.712192434097	120.762173416944	0.0499809828470461
133600	50	162	0	0	curry	464	162	0	stimuli\curry\curry_05s.jpg	4	-1	0	0	curry_05s.jpg	0	0	0	120.812206818868	120.86219926077	0.0499924419018498
133700	50	163	0	0	hip	780	163	0	stimuli\hip\hip_04s.jpg	3	-1	0	0	hip_04s.jpg	0	0	0	120.912200236009	120.962173416945	0.0499731809359218
133800	50	164	0	0	compass	392	164	0	stimuli\compass\compass_11n.jpg	10	-1	0	0	compass_11n.jpg	0	0	0	121.01219121505	121.062176586471	0.0499853714209166
133900	50	165	0	0	squid	1528	165	0	stimuli\squid\squid_07s.jpg	6	-1	0	0	squid_07s.jpg	0	0	0	121.11220462458	121.162185607427	0.0499809828470461
134000	50	166	0	0	gingerbread_man	674	166	0	stimuli\gingerbread_man\gingerbread_man_01b.jpg	0	-1	0	0	gingerbread_man_01b.jpg	0	0	0	121.212205112202	121.262187557906	0.0499824457037903
134100	50	167	0	0	hole	785	167	0	stimuli\hole\hole_07s.jpg	6	-1	0	0	hole_07s.jpg	0	0	0	121.312207794108	121.362184144567	0.0499763504594739
134200	50	168	0	0	bird	128	168	0	stimuli\bird\bird_12s.jpg	11	-1	0	0	bird_12s.jpg	0	0	0	121.412208525537	121.462187557903	0.0499790323665366
134300	50	169	0	0	grasshopper	706	169	0	stimuli\grasshopper\grasshopper_10s.jpg	9	-1	0	1	grasshopper_10s.jpg	0	0	0	121.512207794109	121.562186826475	0.0499790323665366
134400	50	170	0	0	bassoon	86	170	0	stimuli\bassoon\bassoon_12s.jpg	11	-1	0	0	bassoon_12s.jpg	0	0	0	121.612213645538	121.662197066482	0.0499834209440451
134500	50	171	0	0	worm	1836	171	0	stimuli\worm\worm_01b.jpg	0	-1	0	0	worm_01b.jpg	0	0	0	121.712216815064	121.762194628383	0.0499778133198561
134600	50	172	0	0	torso	1685	172	0	stimuli\torso\torso_12s.jpg	11	-1	0	0	torso_12s.jpg	0	0	0	121.812246072226	121.862203893153	0.049957820927375
134700	50	173	0	0	bomb	160	173	0	stimuli\bomb\bomb_06s.jpg	5	-1	0	0	bomb_06s.jpg	1	0.456678922164429	1	121.912225592212	121.962202674105	0.049977081893303
134800	50	174	0	0	fishing_pole	603	174	0	stimuli\fishing_pole\fishing_pole_06s.jpg	5	-1	0	0	fishing_pole_06s.jpg	0	0	0	122.012267771286	122.062204136961	0.0499363656745118
134900	50	175	0	0	deer	476	175	0	stimuli\deer\deer_06s.jpg	5	-1	0	0	deer_06s.jpg	0	0	0	122.11222754269	122.16220633125	0.0499787885601108
135000	50	176	0	0	whip	1809	176	0	stimuli\whip\whip_03s.jpg	2	-1	0	0	whip_03s.jpg	0	0	0	122.212239001747	122.262209744586	0.0499707428389229
135100	50	177	0	0	loom	946	177	0	stimuli\loom\loom_02s.jpg	1	-1	0	0	loom_02s.jpg	0	0	0	122.312230956028	122.362217058875	0.0499861028474697
135200	50	178	0	0	praying_mantis	1238	178	0	stimuli\praying_mantis\praying_mantis_07s.jpg	6	-1	0	0	praying_mantis_07s.jpg	0	0	0	122.412283375106	122.46221413316	0.0499307580539607
135300	50	179	0	0	marshmallow	977	179	0	stimuli\marshmallow\marshmallow_11s.jpg	10	-1	0	0	marshmallow_11s.jpg	0	0	0	122.512233394122	122.562218765543	0.0499853714209166
135400	50	180	0	0	bucket	209	180	0	stimuli\bucket\bucket_12s.jpg	11	-1	0	0	bucket_12s.jpg	0	0	0	122.612298247495	122.662220472212	0.0499222247162834
135500	50	181	0	0	tooth	1678	181	0	stimuli\tooth\tooth_02s.jpg	1	-1	0	0	tooth_02s.jpg	0	0	0	122.71224217127	122.762221935067	0.0499797637967276
135600	50	182	0	0	pom-pom	1218	182	0	stimuli\pom-pom\pom-pom_05s.jpg	4	-1	0	0	pom-pom_05s.jpg	0	0	0	122.812245096986	122.862230712217	0.0499856152309803
135700	50	183	0	0	harness	754	183	0	stimuli\harness\harness_05s.jpg	4	-1	0	0	harness_05s.jpg	0	0	0	122.912246316035	122.962227786502	0.0499814704671735
135800	50	184	0	0	feather	574	184	0	stimuli\feather\feather_10s.jpg	9	-1	0	0	feather_10s.jpg	0	0	0	123.01224924175	123.062230468408	0.0499812266571098
135900	50	185	0	0	bamboo	62	185	0	stimuli\bamboo\bamboo_07s.jpg	6	-1	0	0	bamboo_07s.jpg	0	0	0	123.112252655086	123.162242171271	0.0499895161847235
136000	50	186	0	0	salami	1349	186	0	stimuli\salami\salami_04s.jpg	3	-1	0	0	salami_04s.jpg	0	0	0	123.212265577	123.26224412175	0.0499785447500471
136100	50	187	0	0	wood	1833	187	0	stimuli\wood\wood_04s.jpg	3	-1	0	0	wood_04s.jpg	0	0	0	123.312267771285	123.362255580803	0.0499878095179156
136200	50	188	0	0	chin	330	188	0	stimuli\chin\chin_01b.jpg	0	-1	0	0	chin_01b.jpg	0	0	0	123.41226411414	123.462255093185	0.0499909790451056
136300	50	189	0	0	frame	639	189	0	stimuli\frame\frame_07s.jpg	6	-1	0	0	frame_07s.jpg	0	0	0	123.512263138902	123.562242171272	0.0499790323701745
136400	50	190	0	0	padlock	1095	190	0	stimuli\padlock\padlock_07s.jpg	6	-1	0	0	padlock_07s.jpg	0	0	0	123.612277279863	123.662259725566	0.0499824457037903
136500	50	191	0	0	volleyball	1767	191	0	stimuli\volleyball\volleyball_11s.jpg	10	-1	0	0	volleyball_11s.jpg	0	0	0	123.712282887485	123.762261188425	0.0499783009399835
136600	50	192	0	0	cream_cheese	437	192	0	stimuli\cream_cheese\cream_cheese_03s.jpg	2	-1	0	0	cream_cheese_03s.jpg	0	0	0	123.812282399867	123.862269234145	0.0499868342776608
136700	50	193	0	0	lantern	895	193	0	stimuli\lantern\lantern_10s.jpg	9	-1	0	0	lantern_10s.jpg	0	0	0	123.912278011292	123.962272159861	0.0499941485686577
136800	50	194	0	0	thermos	1647	194	0	stimuli\thermos\thermos_04s.jpg	3	-1	0	0	thermos_04s.jpg	0	0	0	124.012292396063	124.062272159859	0.0499797637967276
136900	50	195	0	0	flypaper	622	195	0	stimuli\flypaper\flypaper_07s.jpg	6	-1	0	0	flypaper_07s.jpg	0	0	0	124.112290201778	124.162273378908	0.0499831771303434
137000	50	196	0	0	scallion	1372	196	0	stimuli\scallion\scallion_06s.jpg	5	-1	0	0	scallion_06s.jpg	0	0	0	124.212280693198	124.2622731351	0.0499924419018498
137100	50	197	0	0	cornucopia	416	197	0	stimuli\cornucopia\cornucopia_12s.jpg	11	-1	0	0	cornucopia_12s.jpg	0	0	0	124.312298735116	124.362282399867	0.0499836647504708
137200	50	198	0	0	mustache	1043	198	0	stimuli\mustache\mustache_07s.jpg	6	-1	0	0	mustache_07s.jpg	0	0	0	124.412303367499	124.462284837962	0.0499814704635355
137300	50	199	0	0	charcoal	307	199	0	stimuli\charcoal\charcoal_06s.jpg	5	-1	0	0	charcoal_06s.jpg	0	0	0	124.512306049404	124.562283862724	0.0499778133198561
137400	50	200	0	0	sloth	1471	200	0	stimuli\sloth\sloth_05s.jpg	4	-1	0	0	sloth_05s.jpg	0	0	0	124.612312388457	124.662290201777	0.0499778133198561
137500	50	201	0	0	slime	1465	201	0	stimuli\slime\slime_08s.jpg	7	-1	0	0	slime_08s.jpg	0	0	0	124.712310194169	124.762291420826	0.0499812266571098
137600	50	202	0	0	glove	680	202	0	stimuli\glove\glove_06s.jpg	5	-1	0	0	glove_06s.jpg	0	0	0	124.812310681787	124.862290445588	0.0499797638003656
137700	50	203	0	0	photograph	1164	203	0	stimuli\photograph\photograph_07s.jpg	6	-1	0	0	photograph_07s.jpg	0	0	0	124.912315314174	124.962279961772	0.0499646475982445
137800	50	204	0	0	shelf	1416	204	0	stimuli\shelf\shelf_03s.jpg	2	-1	0	0	shelf_03s.jpg	0	0	0	125.012317996079	125.062294102732	0.0499761066530482
137900	50	205	0	0	belt	118	205	0	stimuli\belt\belt_07s.jpg	6	-1	0	0	belt_07s.jpg	0	0	0	125.112312632267	125.162302392262	0.0499897599947872
138000	50	206	0	0	touchpad	1691	206	0	stimuli\touchpad\touchpad_06s.jpg	5	-1	0	0	touchpad_06s.jpg	0	0	0	125.212306293215	125.262298003687	0.0499917104716587
138100	50	207	0	0	candy	255	207	0	stimuli\candy\candy_07s.jpg	6	-1	0	0	candy_07s.jpg	0	0	0	125.312320921796	125.362308731314	0.0499878095179156
138200	50	208	0	0	makeup	961	208	0	stimuli\makeup\makeup_04s.jpg	3	-1	0	0	makeup_04s.jpg	0	0	0	125.412330430372	125.46229459035	0.0499641599781171
138300	50	209	0	0	puck	1245	209	0	stimuli\puck\puck_01b.jpg	0	-1	0	0	puck_01b.jpg	0	0	0	125.512316045602	125.562309706551	0.0499936609485303
138400	50	210	0	0	quad	1260	210	0	stimuli\quad\quad_10s.jpg	9	-1	0	0	quad_10s.jpg	0	0	0	125.612344815145	125.662312144646	0.0499673295016692
138500	50	211	0	0	terrarium	1644	211	0	stimuli\terrarium\terrarium_04s.jpg	3	-1	0	0	terrarium_04s.jpg	0	0	0	125.712339451329	125.762314095125	0.049974643796304
138600	50	212	0	0	wreath	1839	212	0	stimuli\wreath\wreath_04s.jpg	3	-1	0	0	wreath_04s.jpg	0	0	0	125.812347009429	125.862322384652	0.0499753752228571
138700	50	213	0	0	bongo	162	213	0	stimuli\bongo\bongo_12s.jpg	11	-1	0	0	bongo_12s.jpg	0	0	0	125.912337500853	125.962305317975	0.0499678171217965
138800	50	214	0	0	doll	499	214	0	stimuli\doll\doll_04s.jpg	3	-1	0	0	doll_04s.jpg	0	0	0	126.012344571333	126.062324335129	0.0499797637967276
138900	50	215	0	0	ladybug	888	215	0	stimuli\ladybug\ladybug_08s.jpg	7	-1	0	0	ladybug_08s.jpg	0	0	0	126.112343352284	126.162335550376	0.0499921980917861
139000	50	216	0	0	furnace	651	216	0	stimuli\furnace\furnace_06s.jpg	5	-1	0	0	furnace_06s.jpg	0	0	0	126.212381142785	126.262329942754	0.0499487999695702
139100	50	217	0	0	food_processor	627	217	0	stimuli\food_processor\food_processor_06s.jpg	5	-1	0	0	food_processor_06s.jpg	0	0	0	126.312338232281	126.362336525614	0.0499982933324645
139200	50	218	0	0	bathmat	89	218	0	stimuli\bathmat\bathmat_03s.jpg	2	-1	0	0	bathmat_03s.jpg	0	0	0	126.41234067038	126.462333599899	0.0499929295183392
139300	50	219	0	0	cane	258	219	0	stimuli\cane\cane_03s.jpg	2	-1	0	0	cane_03s.jpg	0	0	0	126.512355298961	126.562334087517	0.0499787885564729
139400	50	220	0	0	buffet	211	220	0	stimuli\buffet\buffet_06s.jpg	5	-1	0	0	buffet_06s.jpg	0	0	0	126.612349203719	126.6623387199	0.0499895161810855
139500	50	221	0	0	ice_pack	820	221	0	stimuli\ice_pack\ice_pack_11s.jpg	10	-1	0	0	ice_pack_11s.jpg	0	0	0	126.712360906582	126.762343352286	0.0499824457037903
139600	50	222	0	0	bowl	177	222	0	stimuli\bowl\bowl_08s.jpg	7	-1	0	0	bowl_08s.jpg	0	0	0	126.812367245631	126.86233262466	0.0499653790284356
139700	50	223	0	0	headphones	766	223	0	stimuli\headphones\headphones_05s.jpg	4	-1	0	0	headphones_05s.jpg	0	0	0	126.912371390397	126.962344815143	0.0499734247459855
139800	50	224	0	0	corset	418	224	0	stimuli\corset\corset_10s.jpg	9	-1	0	0	corset_10s.jpg	0	0	0	127.012363100868	127.062340914188	0.0499778133198561
139900	50	225	0	0	chopsticks	339	225	0	stimuli\chopsticks\chopsticks_08s.jpg	7	-1	0	0	chopsticks_08s.jpg	0	0	0	127.112378217069	127.162356761819	0.0499785447500471
140000	50	226	0	0	statue	1543	226	0	stimuli\statue\statue_02s.jpg	1	-1	0	0	statue_02s.jpg	0	0	0	127.212376754211	127.262354567531	0.0499778133198561
140100	50	227	0	0	paperweight	1117	227	0	stimuli\paperweight\paperweight_10s.jpg	9	-1	0	0	paperweight_10s.jpg	0	0	0	127.312375778973	127.362356518006	0.0499807390333444
140200	50	228	0	0	train_car	1699	228	0	stimuli\train_car\train_car_04s.jpg	3	-1	0	0	train_car_04s.jpg	0	0	0	127.412381630405	127.462359199915	0.0499775695097924
140300	50	229	0	0	ski_boots	1453	229	0	stimuli\ski_boots\ski_boots_07s.jpg	6	-1	0	0	ski_boots_07s.jpg	0	0	0	127.512382361834	127.562350910386	0.0499685485519876
140400	50	230	0	0	ashtray	41	230	0	stimuli\ashtray\ashtray_03n.jpg	2	-1	0	0	ashtray_03n.jpg	0	0	0	127.61238504374	127.66236358849	0.0499785447500471
140500	50	231	0	0	coffin	383	231	0	stimuli\coffin\coffin_03s.jpg	2	-1	0	0	coffin_03s.jpg	0	0	0	127.712376266591	127.762366758016	0.0499904914249782
140600	50	232	0	0	leech	909	232	0	stimuli\leech\leech_09s.jpg	8	-1	0	0	leech_09s.jpg	0	0	0	127.812379923736	127.862371634208	0.0499917104716587
140700	50	233	0	0	beanbag	103	233	0	stimuli\beanbag\beanbag_12s.jpg	11	-1	0	1	beanbag_12s.jpg	0	0	0	127.912398453271	127.962366026586	0.0499675733153708
140800	50	234	0	0	pistachio	1188	234	0	stimuli\pistachio\pistachio_05s.jpg	4	-1	0	0	pistachio_05s.jpg	0	0	0	128.012396502792	128.062376266593	0.0499797638003656
140900	50	235	0	0	popcorn	1223	235	0	stimuli\popcorn\popcorn_09s.jpg	8	-1	0	0	popcorn_09s.jpg	0	0	0	128.112395527554	128.162384312309	0.0499887847545324
141000	50	236	0	0	nutcracker	1067	236	0	stimuli\nutcracker\nutcracker_01b.jpg	0	-1	0	0	nutcracker_01b.jpg	0	0	0	128.212391382789	128.262386994218	0.0499956114290399
141100	50	237	0	0	tank2	1621	237	0	stimuli\tank2\tank2_09s.jpg	8	-1	0	0	tank2_09s.jpg	1	0.392172734278574	1	128.312409180897	128.362388944694	0.0499797637967276
141200	50	238	0	0	potholder	1232	238	0	stimuli\potholder\potholder_07s.jpg	6	-1	0	0	potholder_07s.jpg	0	0	0	128.412416495186	128.462383580882	0.0499670856952434
141300	50	239	0	0	tank1	1620	239	0	stimuli\tank1\tank1_06s.jpg	5	-1	0	0	tank1_06s.jpg	0	0	0	128.512407230421	128.562389919931	0.049982689510216
141400	50	240	0	0	crystal2	454	240	0	stimuli\crystal2\crystal2_03s.jpg	2	-1	0	0	crystal2_03s.jpg	0	0	0	128.612400403748	128.66239138279	0.0499909790414677
141500	50	241	0	0	toga	1669	241	0	stimuli\toga\toga_08s.jpg	7	-1	0	0	toga_08s.jpg	0	0	0	128.712402354227	128.762391870408	0.0499895161810855
141600	50	242	0	0	washcloth	1783	242	0	stimuli\washcloth\washcloth_05s.jpg	4	-1	0	0	washcloth_05s.jpg	0	0	0	128.812441119964	128.862402841845	0.0499617218811181
141700	50	243	0	0	cornmeal	415	243	0	stimuli\cornmeal\cornmeal_04s.jpg	3	-1	0	0	cornmeal_04s.jpg	0	0	0	128.912408693279	128.962402354227	0.0499936609485303
141800	50	244	0	0	brass_knuckles	193	244	0	stimuli\brass_knuckles\brass_knuckles_04s.jpg	3	-1	0	0	brass_knuckles_04s.jpg	0	0	0	129.012409912324	129.062399916129	0.0499900038048509
141900	50	245	0	0	pencil_sharpener	1143	245	0	stimuli\pencil_sharpener\pencil_sharpener_04s.jpg	3	-1	0	0	pencil_sharpener_04s.jpg	0	0	0	129.112454529495	129.162390651363	0.049936121868086
142000	50	246	0	0	popsicle	1225	246	0	stimuli\popsicle\popsicle_01b.jpg	0	-1	0	0	popsicle_01b.jpg	0	0	0	129.212424784717	129.262406742801	0.0499819580836629
142100	50	247	0	0	parachute	1118	247	0	stimuli\parachute\parachute_12s.jpg	11	-1	0	0	parachute_12s.jpg	0	0	0	129.312428685669	129.36241356947	0.0499848838007892
142200	50	248	0	0	straw2	1569	248	0	stimuli\straw2\straw2_04s.jpg	3	-1	0	0	straw2_04s.jpg	0	0	0	129.412426003764	129.462415763759	0.0499897599947872
142300	50	249	0	0	lectern	908	249	0	stimuli\lectern\lectern_07s.jpg	6	-1	0	0	lectern_07s.jpg	0	0	0	129.512435756151	129.562416738998	0.0499809828470461
142400	50	250	0	0	handle	748	250	0	stimuli\handle\handle_04s.jpg	3	-1	0	0	handle_04s.jpg	0	0	0	129.612453798069	129.662411375182	0.0499575771136733
142500	50	251	0	0	giraffe	675	251	0	stimuli\giraffe\giraffe_03s.jpg	2	-1	0	0	giraffe_03s.jpg	0	0	0	129.712426735194	129.762421371379	0.0499946361851471
142600	50	252	0	0	refrigerator	1300	252	0	stimuli\refrigerator\refrigerator_12s.jpg	11	-1	0	0	refrigerator_12s.jpg	0	0	0	129.812443070441	129.862429660909	0.0499865904675971
142700	50	253	0	0	mousetrap	1029	253	0	stimuli\mousetrap\mousetrap_01b.jpg	0	-1	0	0	mousetrap_01b.jpg	0	0	0	129.912434537102	129.962426979004	0.0499924419018498
142800	50	254	0	0	cow	426	254	0	stimuli\cow\cow_02s.jpg	1	-1	0	0	cow_02s.jpg	0	0	0	130.012436243771	130.062426979002	0.049990735231404
142900	50	255	0	0	weather_vane	1798	255	0	stimuli\weather_vane\weather_vane_12s.jpg	11	-1	0	0	weather_vane_12s.jpg	0	0	0	130.112459161879	130.162436487579	0.0499773256997287
143000	50	256	0	0	shoehorn	1425	256	0	stimuli\shoehorn\shoehorn_05s.jpg	4	-1	0	0	shoehorn_05s.jpg	0	0	0	130.212453066637	130.262431855197	0.0499787885601108
143100	50	257	0	0	combination_lock	390	257	0	stimuli\combination_lock\combination_lock_11s.jpg	10	-1	0	0	combination_lock_11s.jpg	0	0	0	130.312455017116	130.362439169487	0.0499841523705982
143200	50	258	0	0	chinaware	331	258	0	stimuli\chinaware\chinaware_08s.jpg	7	-1	0	0	chinaware_08s.jpg	0	0	0	130.412460380929	130.462440144725	0.0499797637967276
143300	50	259	0	0	aluminum_foil	17	259	0	stimuli\aluminum_foil\aluminum_foil_11s.jpg	10	-1	0	0	aluminum_foil_11s.jpg	0	0	0	130.512462819024	130.562448190445	0.0499853714209166
143400	50	260	0	0	wig	1816	260	0	stimuli\wig\wig_05s.jpg	4	-1	0	0	wig_05s.jpg	0	0	0	130.612464525693	130.662447946634	0.0499834209404071
143500	50	261	0	0	dishwashing_liquid	492	261	0	stimuli\dishwashing_liquid\dishwashing_liquid_08s.jpg	7	-1	0	0	dishwashing_liquid_08s.jpg	0	0	0	130.712459893308	130.762446971396	0.0499870780877245
143600	50	262	0	0	taillight	1617	262	0	stimuli\taillight\taillight_07s.jpg	6	-1	0	0	taillight_07s.jpg	1	0	0	130.812485005707	130.862460137119	0.0499751314127934
143700	50	263	0	0	corkboard	410	263	0	stimuli\corkboard\corkboard_12s.jpg	11	-1	0	0	corkboard_12s.jpg	0	0	0	130.912463794262	130.962458918071	0.0499951238089125
143800	50	264	0	0	soap	1487	264	0	stimuli\soap\soap_09s.jpg	8	-1	0	0	soap_09s.jpg	0	0	0	131.012465744741	131.062475253319	0.0500095085772045
143900	50	265	0	0	garter	659	265	0	stimuli\garter\garter_12s.jpg	11	-1	0	0	garter_12s.jpg	0	0	0	131.112482079989	131.162465500933	0.0499834209440451
144000	50	266	0	0	highlighter	778	266	0	stimuli\highlighter\highlighter_11s.jpg	10	-1	0	0	highlighter_11s.jpg	0	0	0	131.212473059029	131.262464038075	0.0499909790451056
144100	50	267	0	0	man	963	267	0	stimuli\man\man_10s.jpg	9	-1	0	0	man_10s.jpg	0	0	0	131.312484518086	131.362470377124	0.049985859037406
144200	50	268	0	0	underwear	1745	268	0	stimuli\underwear\underwear_04s.jpg	3	-1	0	0	underwear_04s.jpg	0	0	0	131.412486712372	131.462456479974	0.0499697676023061
144300	50	269	0	0	blackberry	135	269	0	stimuli\blackberry\blackberry_05s.jpg	4	-1	0	0	blackberry_05s.jpg	0	0	0	131.512484518087	131.562475497129	0.0499909790414677
144400	50	270	0	0	dolly	501	270	0	stimuli\dolly\dolly_01s.jpg	0	-1	0	0	dolly_01s.jpg	0	0	0	131.612483786656	131.662465500933	0.0499817142772372
144500	50	271	0	0	whiteboard	1813	271	0	stimuli\whiteboard\whiteboard_05s.jpg	4	-1	0	0	whiteboard_05s.jpg	0	0	0	131.712487687611	131.762465257121	0.0499775695097924
144600	50	272	0	0	boa	150	272	0	stimuli\boa\boa_05s.jpg	4	-1	0	0	boa_05s.jpg	0	0	0	131.812478666652	131.862496220951	0.0500175542983925
144700	50	273	0	0	pizza	1192	273	0	stimuli\pizza\pizza_02s.jpg	1	-1	0	0	pizza_02s.jpg	0	0	0	131.912518895249	131.96248061713	0.0499617218811181
144800	50	274	0	0	strap	1567	274	0	stimuli\strap\strap_09s.jpg	8	-1	0	0	strap_09s.jpg	0	0	0	132.01250451048	132.06251206858	0.050007558100333
144900	50	275	0	0	space_shuttle	1501	275	0	stimuli\space_shuttle\space_shuttle_08s.jpg	7	-1	0	0	space_shuttle_08s.jpg	0	0	0	132.112520845727	132.162503535241	0.049982689513854
145000	50	276	0	0	bazooka	98	276	0	stimuli\bazooka\bazooka_03s.jpg	2	-1	0	0	bazooka_03s.jpg	0	0	0	132.212495245712	132.262476959986	0.0499817142735992
145100	50	277	0	0	shopping_basket	1427	277	0	stimuli\shopping_basket\shopping_basket_04s.jpg	3	-1	0	1	shopping_basket_04s.jpg	0	0	0	132.312519139057	132.362482567609	0.049963428551564
145200	50	278	0	0	recliner	1294	278	0	stimuli\recliner\recliner_07s.jpg	6	-1	0	0	recliner_07s.jpg	0	0	0	132.412501584764	132.462483299038	0.0499817142735992
145300	50	279	0	0	cape	266	279	0	stimuli\cape\cape_12s.jpg	11	-1	0	0	cape_12s.jpg	0	0	0	132.512503779049	132.562483299036	0.0499795199866639
145400	50	280	0	0	batter	96	280	0	stimuli\batter\batter_05s.jpg	4	-1	0	0	batter_05s.jpg	0	0	0	132.612513531436	132.662492319996	0.0499787885601108
145500	50	281	0	0	tongue	1675	281	0	stimuli\tongue\tongue_07s.jpg	6	-1	0	0	tongue_07s.jpg	0	0	0	132.712510118101	132.762491100948	0.0499809828470461
145600	50	282	0	0	minivan	1003	282	0	stimuli\minivan\minivan_03s.jpg	2	-1	0	0	minivan_03s.jpg	0	0	0	132.812517920011	132.862503291431	0.0499853714209166
145700	50	283	0	0	paper_towel	1115	283	0	stimuli\paper_towel\paper_towel_10s.jpg	9	-1	0	0	paper_towel_10s.jpg	0	0	0	132.912519139059	132.962500365713	0.0499812266534718
145800	50	284	0	0	brake	191	284	0	stimuli\brake\brake_08s.jpg	7	-1	0	0	brake_08s.jpg	0	0	0	133.012519139058	133.062496952378	0.0499778133198561
145900	50	285	0	0	leopard	917	285	0	stimuli\leopard\leopard_06s.jpg	5	-1	0	0	leopard_06s.jpg	0	0	0	133.112522064774	133.162507680005	0.0499856152309803
146000	50	286	0	0	bug	212	286	0	stimuli\bug\bug_01b.jpg	0	-1	0	0	bug_01b.jpg	0	0	0	133.212525234299	133.262516213344	0.0499909790451056
146100	50	287	0	0	toaster_oven	1667	287	0	stimuli\toaster_oven\toaster_oven_05s.jpg	4	-1	0	0	toaster_oven_05s.jpg	0	0	0	133.312541813357	133.362517188583	0.0499753752264951
146200	50	288	0	0	stair	1532	288	0	stimuli\stair\stair_04s.jpg	3	-1	0	0	stair_04s.jpg	0	0	0	133.412537424785	133.462519626679	0.0499822018937266
146300	50	289	0	0	cardinal	274	289	0	stimuli\cardinal\cardinal_09s.jpg	8	-1	0	0	cardinal_09s.jpg	0	0	0	133.512539862881	133.562529135255	0.0499892723746598
146400	50	290	0	0	football	629	290	0	stimuli\football\football_03s.jpg	2	-1	0	0	football_03s.jpg	0	0	0	133.612549615267	133.662529135254	0.0499795199866639
146500	50	291	0	0	sailboat	1347	291	0	stimuli\sailboat\sailboat_06s.jpg	5	-1	0	0	sailboat_06s.jpg	0	0	0	133.712544495265	133.762526697159	0.0499822018937266
146600	50	292	0	0	pill	1174	292	0	stimuli\pill\pill_09s.jpg	8	-1	0	0	pill_09s.jpg	0	0	0	133.812555466699	133.862522796204	0.0499673295053071
146700	50	293	0	0	memory_stick	995	293	0	stimuli\memory_stick\memory_stick_09s.jpg	8	-1	0	0	memory_stick_09s.jpg	0	0	0	133.912549859077	133.962534011451	0.0499841523742361
146800	50	294	0	0	shredder	1437	294	0	stimuli\shredder\shredder_07s.jpg	6	-1	0	0	shredder_07s.jpg	0	0	0	134.012554247653	134.062535230496	0.0499809828434081
146900	50	295	0	0	globe	679	295	0	stimuli\globe\globe_08s.jpg	7	-1	0	0	globe_08s.jpg	0	0	0	134.112559367655	134.162539375262	0.0499800076067913
147000	50	296	0	0	slot_machine	1470	296	0	stimuli\slot_machine\slot_machine_12s.jpg	11	-1	0	0	slot_machine_12s.jpg	0	0	0	134.212559123844	134.26253352383	0.0499743999862403
147100	50	297	0	0	ostrich	1084	297	0	stimuli\ostrich\ostrich_11s.jpg	10	-1	0	0	ostrich_11s.jpg	0	0	0	134.31256936385	134.362550346697	0.0499809828470461
147200	50	298	0	0	tack	1611	298	0	stimuli\tack\tack_11s.jpg	10	-1	0	0	tack_11s.jpg	0	0	0	134.412571558139	134.462550590506	0.0499790323665366
147300	50	299	0	0	hockey_stick	783	299	0	stimuli\hockey_stick\hockey_stick_06s.jpg	5	-1	0	0	hockey_stick_06s.jpg	0	0	0	134.512568876231	134.562549127648	0.049980251416855
147400	50	300	0	0	goldfish	688	300	0	stimuli\goldfish\goldfish_10s.jpg	9	-1	0	0	goldfish_10s.jpg	0	0	0	134.612578628617	134.662558148608	0.0499795199903019
147500	50	301	0	0	radish	1274	301	0	stimuli\radish\radish_04n.jpg	3	-1	0	0	radish_04n.jpg	0	0	0	134.712571314329	134.762558148606	0.0499868342776608
147600	50	302	0	0	birdbath	129	302	0	stimuli\birdbath\birdbath_02s.jpg	1	-1	0	0	birdbath_02s.jpg	0	0	0	134.812580822905	134.862568144803	0.0499873218977882
147700	50	303	0	0	moth	1023	303	0	stimuli\moth\moth_02n.jpg	1	-1	0	0	moth_02n.jpg	0	0	0	134.912579116237	134.962554003843	0.0499748876063677
147800	50	304	0	0	grate	707	304	0	stimuli\grate\grate_04s.jpg	3	-1	0	0	grate_04s.jpg	0	0	0	135.012582529573	135.062568876234	0.0499863466611714
147900	50	305	0	0	hamburger	740	305	0	stimuli\hamburger\hamburger_08s.jpg	7	-1	0	0	hamburger_08s.jpg	0	0	0	135.112596182917	135.162573020996	0.0499768380796013
148000	50	306	0	0	springboard	1522	306	0	stimuli\springboard\springboard_12s.jpg	11	-1	0	0	springboard_12s.jpg	0	0	0	135.212592525771	135.262572289568	0.0499797637967276
148100	50	307	0	0	meat	987	307	0	stimuli\meat\meat_01b.jpg	0	-1	0	0	meat_01b.jpg	0	0	0	135.312594720057	135.362572533377	0.0499778133198561
148200	50	308	0	0	float	616	308	0	stimuli\float\float_11s.jpg	10	-1	0	0	float_11s.jpg	0	0	0	135.412589356245	135.462570582898	0.0499812266534718
151584	50	309	0	0	microphone	998	0	1	stimuli\microphone\microphone_07s.jpg	6	-1	1	0	microphone_07s.jpg	0	0	0	138.796007616613	138.845993719464	0.0499861028511077
151684	50	310	0	0	coin	385	1	1	stimuli\coin\coin_05s.jpg	4	-1	1	0	coin_05s.jpg	0	0	0	138.896008104235	138.945986892792	0.0499787885564729
151784	50	311	0	0	purse	1259	2	1	stimuli\purse\purse_12s.jpg	11	-1	1	0	purse_12s.jpg	0	0	0	138.9960098109	139.046005178516	0.0499953676153382
151884	50	312	0	0	wing	1827	3	1	stimuli\wing\wing_03s.jpg	2	-1	1	0	wing_03s.jpg	0	0	0	139.096012980426	139.146008835662	0.0499958552354656
151984	50	313	0	0	crystal1	453	4	1	stimuli\crystal1\crystal1_11s.jpg	10	-1	1	0	crystal1_11s.jpg	0	0	0	139.196027609007	139.24600444709	0.0499768380832393
152084	50	314	0	0	orchid	1081	5	1	stimuli\orchid\orchid_10s.jpg	9	-1	1	0	orchid_10s.jpg	0	0	0	139.296035167106	139.346013711856	0.0499785447500471
152184	50	315	0	0	spaghetti	1503	6	1	stimuli\spaghetti\spaghetti_01b.jpg	0	-1	1	0	spaghetti_01b.jpg	0	0	0	139.396037117585	139.446012005188	0.0499748876027297
152284	50	316	0	0	treasure	1707	7	1	stimuli\treasure\treasure_09s.jpg	8	-1	1	0	treasure_09s.jpg	0	0	0	139.496037117584	139.546022489005	0.0499853714209166
152384	50	317	0	0	turntable	1735	8	1	stimuli\turntable\turntable_01b.jpg	0	-1	1	0	turntable_01b.jpg	0	0	0	139.596043212827	139.646022245193	0.0499790323665366
152484	50	318	0	0	wooden_leg	1834	9	1	stimuli\wooden_leg\wooden_leg_11s.jpg	10	-1	1	0	wooden_leg_11s.jpg	0	0	0	139.696035654728	139.746024683292	0.0499890285645961
152584	50	319	0	0	cuckoo_clock	456	10	1	stimuli\cuckoo_clock\cuckoo_clock_06s.jpg	5	-1	1	0	cuckoo_clock_06s.jpg	0	0	0	139.796047113781	139.846023951861	0.0499768380796013
152684	50	320	0	0	solar_panel	1493	11	1	stimuli\solar_panel\solar_panel_03s.jpg	2	-1	1	0	solar_panel_03s.jpg	0	0	0	139.896044675683	139.946028828057	0.0499841523742361
152784	50	321	0	0	grille	715	12	1	stimuli\grille\grille_06s.jpg	5	-1	1	0	grille_06s.jpg	0	0	0	139.996049308069	140.046029071866	0.0499797637967276
152884	50	322	0	0	bungee	221	13	1	stimuli\bungee\bungee_06s.jpg	5	-1	1	0	bungee_06s.jpg	0	0	0	140.096053209021	140.146035167108	0.0499819580873009
152984	50	323	0	0	footbath	631	14	1	stimuli\footbath\footbath_03s.jpg	2	-1	1	0	footbath_03s.jpg	0	0	0	140.196060523314	140.246038580441	0.0499780571262818
153084	50	324	0	0	thimble	1649	15	1	stimuli\thimble\thimble_12s.jpg	11	-1	1	0	thimble_12s.jpg	0	0	0	140.296059548073	140.346033948059	0.0499743999862403
153184	50	325	0	0	fishnet_stockings	604	16	1	stimuli\fishnet_stockings\fishnet_stockings_11s.jpg	10	-1	1	0	fishnet_stockings_11s.jpg	0	0	0	140.396059304265	140.446041262348	0.0499819580836629
153284	50	326	0	0	road_sign	1315	17	1	stimuli\road_sign\road_sign_02s.jpg	1	-1	1	0	road_sign_02s.jpg	0	0	0	140.496067837605	140.546045163304	0.0499773256997287
153384	50	327	0	0	chive	337	18	1	stimuli\chive\chive_10s.jpg	9	-1	1	0	chive_10s.jpg	0	0	0	140.596062961409	140.646045894733	0.0499829333239177
153484	50	328	0	0	wrap	1837	19	1	stimuli\wrap\wrap_05s.jpg	4	-1	1	0	wrap_05s.jpg	0	0	0	140.696072713796	140.746049064259	0.0499763504631119
153584	50	329	0	0	microwave	1000	20	1	stimuli\microwave\microwave_05s.jpg	4	-1	1	0	microwave_05s.jpg	0	0	0	140.796077346182	140.846044188063	0.0499668418815418
153684	50	330	0	0	eel	545	21	1	stimuli\eel\eel_02s.jpg	1	-1	1	0	eel_02s.jpg	0	0	0	140.89607734618	140.946057597597	0.049980251416855
153784	50	331	0	0	kale	860	22	1	stimuli\kale\kale_08s.jpg	7	-1	1	0	kale_08s.jpg	0	0	0	140.996075395702	141.046073689035	0.0499982933324645
153884	50	332	0	0	dynamite	536	23	1	stimuli\dynamite\dynamite_01b.jpg	0	-1	1	0	dynamite_01b.jpg	0	0	0	141.096078565228	141.146059548075	0.0499809828470461
153984	50	333	0	0	balance_beam	58	24	1	stimuli\balance_beam\balance_beam_03s.jpg	2	-1	1	0	balance_beam_03s.jpg	0	0	0	141.196099776669	141.246077589989	0.0499778133198561
154084	50	334	0	0	coaster	368	25	1	stimuli\coaster\coaster_07s.jpg	6	-1	1	0	coaster_07s.jpg	0	0	0	141.296084416659	141.346081247135	0.0499968304757203
154184	50	335	0	0	burner	224	26	1	stimuli\burner\burner_04s.jpg	3	-1	1	0	burner_04s.jpg	0	0	0	141.396127327163	141.446084416661	0.0499570894971839
154284	50	336	0	0	orange	1078	27	1	stimuli\orange\orange_02s.jpg	1	-1	1	0	orange_02s.jpg	0	0	0	141.496104652862	141.54608612333	0.0499814704671735
154384	50	337	0	0	lollipop	945	28	1	stimuli\lollipop\lollipop_06n.jpg	5	-1	1	0	lollipop_06n.jpg	0	0	0	141.596095388097	141.646075639514	0.049980251416855
154484	50	338	0	0	pacifier	1093	29	1	stimuli\pacifier\pacifier_08s.jpg	7	-1	1	0	pacifier_08s.jpg	0	0	0	141.696100995719	141.74608490428	0.0499839085605345
154584	50	339	0	0	basketball_hoop	84	30	1	stimuli\basketball_hoop\basketball_hoop_01b.jpg	0	-1	1	0	basketball_hoop_01b.jpg	0	0	0	141.796098557621	141.846078809038	0.049980251416855
154684	50	340	0	0	bell	116	31	1	stimuli\bell\bell_01b.jpg	0	-1	1	0	bell_01b.jpg	0	0	0	141.896097094763	141.946085879517	0.0499887847545324
154784	50	341	0	0	lemon	914	32	1	stimuli\lemon\lemon_02s.jpg	1	-1	1	0	lemon_02s.jpg	0	0	0	141.996105384293	142.046082953802	0.0499775695097924
154884	50	342	0	0	diving_board	494	33	1	stimuli\diving_board\diving_board_10s.jpg	9	-1	1	0	diving_board_10s.jpg	0	0	0	142.096105140481	142.146084172851	0.0499790323701745
154984	50	343	0	0	ear	538	34	1	stimuli\ear\ear_08s.jpg	7	-1	1	0	ear_08s.jpg	0	0	0	142.196117330968	142.246090268094	0.0499729371258582
155084	50	344	0	0	webcam	1799	35	1	stimuli\webcam\webcam_05s.jpg	4	-1	1	0	webcam_05s.jpg	0	0	0	142.2961156243	142.346094412856	0.0499787885564729
155184	50	345	0	0	bus	226	36	1	stimuli\bus\bus_09n.jpg	8	-1	1	0	bus_09n.jpg	0	0	0	142.396114161442	142.446095631905	0.0499814704635355
155284	50	346	0	0	cheese	312	37	1	stimuli\cheese\cheese_09s.jpg	8	-1	1	0	cheese_09s.jpg	0	0	0	142.496117330968	142.546093925237	0.0499765942695376
155384	50	347	0	0	dollhouse	500	38	1	stimuli\dollhouse\dollhouse_01b.jpg	0	-1	1	0	dollhouse_01b.jpg	0	0	0	142.596117330966	142.646097338573	0.0499800076067913
155484	50	348	0	0	flan	609	39	1	stimuli\flan\flan_11s.jpg	10	-1	1	0	flan_11s.jpg	0	0	0	142.696113673821	142.746100751909	0.0499870780877245
155584	50	349	0	0	peach	1129	40	1	stimuli\peach\peach_07n.jpg	6	-1	1	0	peach_07n.jpg	0	0	0	142.796123426207	142.846133910025	0.0500104838174593
155684	50	350	0	0	skewer	1451	41	1	stimuli\skewer\skewer_12s.jpg	11	-1	1	0	skewer_12s.jpg	0	0	0	142.89612952145	142.946111479534	0.0499819580836629
155784	50	351	0	0	pheasant	1160	42	1	stimuli\pheasant\pheasant_10s.jpg	9	-1	1	0	pheasant_10s.jpg	0	0	0	142.996133422406	143.046130252878	0.0499968304720824
155884	50	352	0	0	ladder	886	43	1	stimuli\ladder\ladder_02s.jpg	1	-1	1	0	ladder_02s.jpg	0	0	0	143.096147075747	143.146128058594	0.0499809828470461
155984	50	353	0	0	rack1	1268	44	1	stimuli\rack1\rack1_12s.jpg	11	-1	1	0	rack1_12s.jpg	0	0	0	143.196134641454	143.246109041436	0.0499743999826023
156084	50	354	0	0	duffel_bag	529	45	1	stimuli\duffel_bag\duffel_bag_06s.jpg	5	-1	1	0	duffel_bag_06s.jpg	0	0	0	143.296139273836	143.346114892869	0.0499756190329208
156184	50	355	0	0	exerciser	561	46	1	stimuli\exerciser\exerciser_01b.jpg	0	-1	1	0	exerciser_01b.jpg	0	0	0	143.396139030028	143.446120256682	0.0499812266534718
156284	50	356	0	0	tiramisu	1663	47	1	stimuli\tiramisu\tiramisu_09s.jpg	8	-1	1	0	tiramisu_09s.jpg	0	0	0	143.496141468124	143.546124157638	0.049982689513854
156384	50	357	0	0	basketball	83	48	1	stimuli\basketball\basketball_08s.jpg	7	-1	1	0	basketball_08s.jpg	0	0	0	143.596143906219	143.64612367002	0.0499797638003656
156484	50	358	0	0	clipper1	356	49	1	stimuli\clipper1\clipper1_08s.jpg	7	-1	1	0	clipper1_08s.jpg	0	0	0	143.696147075745	143.746129277639	0.0499822018937266
156584	50	359	0	0	rocket	1320	50	1	stimuli\rocket\rocket_04s.jpg	3	-1	1	0	rocket_04s.jpg	0	0	0	143.796137323359	143.846118793823	0.0499814704635355
156684	50	360	0	0	beet	114	51	1	stimuli\beet\beet_04s.jpg	3	-1	1	0	beet_04s.jpg	0	0	0	143.89615268337	143.946141468125	0.0499887847545324
156784	50	361	0	0	whoopee_cushion	1814	52	1	stimuli\whoopee_cushion\whoopee_cushion_01b.jpg	0	-1	1	0	whoopee_cushion_01b.jpg	0	0	0	143.996159753849	144.046137079549	0.0499773256997287
156884	50	362	0	0	candle	253	53	1	stimuli\candle\candle_09n.jpg	8	-1	1	0	candle_09n.jpg	0	0	0	144.096158047181	144.146136591931	0.0499785447500471
156984	50	363	0	0	bow1	174	54	1	stimuli\bow1\bow1_12s.jpg	11	-1	1	0	bow1_12s.jpg	0	0	0	144.196166824331	144.246147319554	0.0499804952232807
157084	50	364	0	0	spark_plug	1506	55	1	stimuli\spark_plug\spark_plug_08s.jpg	7	-1	1	0	spark_plug_08s.jpg	0	0	0	144.296169018617	144.346149513844	0.0499804952269187
157184	50	365	0	0	xylophone	1843	56	1	stimuli\xylophone\xylophone_10s.jpg	9	-1	1	0	xylophone_10s.jpg	0	0	0	144.396170481476	144.446150001462	0.0499795199866639
157284	50	366	0	0	golf_cart	689	57	1	stimuli\golf_cart\golf_cart_06s.jpg	5	-1	1	0	golf_cart_06s.jpg	0	0	0	144.496173651001	144.546150001464	0.0499763504631119
157384	50	367	0	0	wine_bottle	1824	58	1	stimuli\wine_bottle\wine_bottle_10s.jpg	9	-1	1	0	wine_bottle_10s.jpg	0	0	0	144.596169993856	144.64615170813	0.0499817142735992
157484	50	368	0	0	rhubarb	1307	59	1	stimuli\rhubarb\rhubarb_07n.jpg	6	-1	1	0	rhubarb_07n.jpg	0	0	0	144.69618242815	144.746162679567	0.049980251416855
157584	50	369	0	0	thumbtack	1654	60	1	stimuli\thumbtack\thumbtack_02s.jpg	1	-1	1	1	thumbtack_02s.jpg	0	0	0	144.796179746241	144.846160972898	0.0499812266571098
157684	50	370	0	0	burrito	225	61	1	stimuli\burrito\burrito_07s.jpg	6	-1	1	0	burrito_07s.jpg	0	0	0	144.89618242815	144.946161460517	0.0499790323665366
157784	50	371	0	0	snake	1477	62	1	stimuli\snake\snake_12s.jpg	11	-1	1	0	snake_12s.jpg	0	0	0	144.996183647196	145.046162679566	0.0499790323701745
157884	50	372	0	0	backdrop	47	63	1	stimuli\backdrop\backdrop_11s.jpg	10	-1	1	0	backdrop_11s.jpg	1	0.305715873961162	1	145.096186085295	145.146164630041	0.0499785447464092
157984	50	373	0	0	cushion	466	64	1	stimuli\cushion\cushion_05s.jpg	4	-1	1	0	cushion_05s.jpg	0	0	0	145.196190230057	145.24616560528	0.0499753752228571
158084	50	374	0	0	backscratcher	50	65	1	stimuli\backscratcher\backscratcher_03s.jpg	2	-1	1	0	backscratcher_03s.jpg	0	0	0	145.296191205296	145.346164873852	0.0499736685560492
158184	50	375	0	0	overalls	1090	66	1	stimuli\overalls\overalls_12s.jpg	11	-1	1	0	overalls_12s.jpg	0	0	0	145.396195106252	145.446179990053	0.0499848838007892
158284	50	376	0	0	duck	525	67	1	stimuli\duck\duck_10s.jpg	9	-1	1	0	duck_10s.jpg	0	0	0	145.496199738634	145.546176332908	0.0499765942731756
158384	50	377	0	0	modem	1011	68	1	stimuli\modem\modem_10s.jpg	9	-1	1	0	modem_10s.jpg	0	0	0	145.596199251017	145.64618169672	0.0499824457037903
158484	50	378	0	0	gorilla	695	69	1	stimuli\gorilla\gorilla_12s.jpg	11	-1	1	0	gorilla_12s.jpg	0	0	0	145.696199982445	145.746183403389	0.0499834209440451
158584	50	379	0	0	air_mattress	5	70	1	stimuli\air_mattress\air_mattress_10s.jpg	9	-1	1	0	air_mattress_10s.jpg	0	0	0	145.796202664351	145.846170725286	0.0499680609354982
158684	50	380	0	0	keyhole	871	71	1	stimuli\keyhole\keyhole_02s.jpg	1	-1	1	0	keyhole_02s.jpg	0	0	0	145.896196325299	145.946178283386	0.0499819580873009
158784	50	381	0	0	razor_blade	1291	72	1	stimuli\razor_blade\razor_blade_08s.jpg	7	-1	1	0	razor_blade_08s.jpg	0	0	0	145.996195106251	146.046177795764	0.049982689513854
158884	50	382	0	0	soda	1490	73	1	stimuli\soda\soda_08s.jpg	7	-1	1	0	soda_08s.jpg	0	0	0	146.096204858641	146.14618194053	0.049977081889665
158984	50	383	0	0	windshield	1820	74	1	stimuli\windshield\windshield_03s.jpg	2	-1	1	0	windshield_03s.jpg	0	0	0	146.196204858639	146.24618974244	0.0499848838007892
159084	50	384	0	0	axe	45	75	1	stimuli\axe\axe_05n.jpg	4	-1	1	0	axe_05n.jpg	0	0	0	146.296208515785	146.346189986249	0.0499814704635355
159184	50	385	0	0	headlamp	764	76	1	stimuli\headlamp\headlamp_01b.jpg	0	-1	1	0	headlamp_01b.jpg	0	0	0	146.396213879598	146.446193155774	0.0499792761766003
159284	50	386	0	0	fencepost	576	77	1	stimuli\fencepost\fencepost_11s.jpg	10	-1	1	0	fencepost_11s.jpg	0	0	0	146.496216561503	146.54619681292	0.049980251416855
159384	50	387	0	0	scarecrow	1376	78	1	stimuli\scarecrow\scarecrow_01b.jpg	0	-1	1	0	scarecrow_01b.jpg	0	0	0	146.596215830075	146.646195106252	0.0499792761766003
159484	50	388	0	0	breadbox	195	79	1	stimuli\breadbox\breadbox_07s.jpg	6	-1	1	0	breadbox_07s.jpg	0	0	0	146.696220950078	146.746196812921	0.0499758628429845
159584	50	389	0	0	candlestick	254	80	1	stimuli\candlestick\candlestick_09s.jpg	8	-1	1	0	candlestick_09s.jpg	0	0	0	146.796217049123	146.846201201493	0.0499841523705982
159684	50	390	0	0	clove	365	81	1	stimuli\clove\clove_10s.jpg	9	-1	1	0	clove_10s.jpg	0	0	0	146.896237041517	146.946204614829	0.0499675733117328
159784	50	391	0	0	pump	1252	82	1	stimuli\pump\pump_10s.jpg	9	-1	1	0	pump_10s.jpg	0	0	0	146.996226313891	147.046206077688	0.0499797637967276
159884	50	392	0	0	snowplow	1484	83	1	stimuli\snowplow\snowplow_05n.jpg	4	-1	1	0	snowplow_05n.jpg	0	0	0	147.0962265577	147.146208271974	0.0499817142735992
159984	50	393	0	0	clothes	361	84	1	stimuli\clothes\clothes_06s.jpg	5	-1	1	0	clothes_06s.jpg	0	0	0	147.196238991994	147.246224363415	0.0499853714209166
160084	50	394	0	0	artichoke	39	85	1	stimuli\artichoke\artichoke_08n.jpg	7	-1	1	0	artichoke_08n.jpg	0	0	0	147.296233140562	147.346223631983	0.0499904914213403
160184	50	395	0	0	penlight	1147	86	1	stimuli\penlight\penlight_09s.jpg	8	-1	1	0	penlight_09s.jpg	0	0	0	147.39625630248	147.446232409133	0.0499761066530482
160284	50	396	0	0	file2	584	87	1	stimuli\file2\file2_09s.jpg	8	-1	1	0	file2_09s.jpg	0	0	0	147.496250694858	147.546229971034	0.0499792761766003
160384	50	397	0	0	metal_detector	996	88	1	stimuli\metal_detector\metal_detector_01b.jpg	0	-1	1	0	metal_detector_01b.jpg	0	0	0	147.596250938666	147.64623435961	0.0499834209440451
160484	50	398	0	0	rocking_chair	1321	89	1	stimuli\rocking_chair\rocking_chair_09s.jpg	8	-1	1	0	rocking_chair_09s.jpg	0	0	0	147.696254839622	147.74624118628	0.0499863466575334
160584	50	399	0	0	baton1	92	90	1	stimuli\baton1\baton1_10s.jpg	9	-1	1	0	baton1_10s.jpg	0	0	0	147.796261666292	147.846243624375	0.0499819580836629
160684	50	400	0	0	wreck	1840	91	1	stimuli\wreck\wreck_01b.jpg	0	-1	1	0	wreck_01b.jpg	1	0	0	147.896258496767	147.946245574854	0.0499870780877245
160784	50	401	0	0	swimsuit	1597	92	1	stimuli\swimsuit\swimsuit_09s.jpg	8	-1	1	0	swimsuit_09s.jpg	0	0	0	147.996271906301	148.046241186279	0.0499692799785407
160884	50	402	0	0	playpen	1200	93	1	stimuli\playpen\playpen_08s.jpg	7	-1	1	0	playpen_08s.jpg	0	0	0	148.096269224392	148.146253620573	0.0499843961806619
160984	50	403	0	0	candelabra	252	94	1	stimuli\candelabra\candelabra_08s.jpg	7	-1	1	0	candelabra_08s.jpg	0	0	0	148.196272150108	148.246255814862	0.0499836647541088
161084	50	404	0	0	mitten	1008	95	1	stimuli\mitten\mitten_08s.jpg	7	-1	1	0	mitten_08s.jpg	0	0	0	148.296262885342	148.34625605867	0.0499931733284029
161184	50	405	0	0	roll	1323	96	1	stimuli\roll\roll_04s.jpg	3	-1	1	0	roll_04s.jpg	0	0	0	148.396265811058	148.446258740576	0.0499929295183392
161284	50	406	0	0	wallet	1776	97	1	stimuli\wallet\wallet_06s.jpg	5	-1	1	0	wallet_06s.jpg	0	0	0	148.496283609162	148.546260691055	0.049977081893303
161384	50	407	0	0	gift	672	98	1	stimuli\gift\gift_09s.jpg	8	-1	1	0	gift_09s.jpg	0	0	0	148.596268005345	148.646270687252	0.0500026819063351
161484	50	408	0	0	macaroni	952	99	1	stimuli\macaroni\macaroni_12s.jpg	11	-1	1	0	macaroni_12s.jpg	0	0	0	148.696289460597	148.746267761533	0.0499783009363455
161584	50	409	0	0	wheelbarrow	1807	100	1	stimuli\wheelbarrow\wheelbarrow_04s.jpg	3	-1	1	0	wheelbarrow_04s.jpg	0	0	0	148.7962770263	148.84625532724	0.0499783009399835
161684	50	410	0	0	tackle	1612	101	1	stimuli\tackle\tackle_02s.jpg	1	-1	1	0	tackle_02s.jpg	0	0	0	148.896302626319	148.946269468201	0.0499668418815418
161784	50	411	0	0	cork	409	102	1	stimuli\cork\cork_07s.jpg	6	-1	1	0	cork_07s.jpg	0	0	0	148.996291411073	149.046259228195	0.0499678171217965
161884	50	412	0	0	poker	1210	103	1	stimuli\poker\poker_09s.jpg	8	-1	1	0	poker_09s.jpg	0	0	0	149.096292873932	149.146273612965	0.0499807390333444
161984	50	413	0	0	wrist	1842	104	1	stimuli\wrist\wrist_07s.jpg	6	-1	1	0	wrist_07s.jpg	0	0	0	149.196294336787	149.24627117487	0.0499768380832393
162084	50	414	0	0	dumbbell	530	105	1	stimuli\dumbbell\dumbbell_12s.jpg	11	-1	1	0	dumbbell_12s.jpg	0	0	0	149.296288241549	149.346286291071	0.0499980495224008
162184	50	415	0	0	computer	394	106	1	stimuli\computer\computer_07s.jpg	6	-1	1	0	computer_07s.jpg	0	0	0	149.396312378703	149.446272881538	0.0499605028344376
162284	50	416	0	0	trap	1702	107	1	stimuli\trap\trap_10s.jpg	9	-1	1	0	trap_10s.jpg	0	0	0	149.496305552035	149.546283121545	0.0499775695097924
162384	50	417	0	0	mousepad	1028	108	1	stimuli\mousepad\mousepad_06s.jpg	5	-1	1	0	mousepad_06s.jpg	0	0	0	149.596295068219	149.646289704404	0.0499946361851471
162484	50	418	0	0	train_set	1700	109	1	stimuli\train_set\train_set_01b.jpg	0	-1	1	0	train_set_01b.jpg	0	0	0	149.6963148168	149.746296287267	0.0499814704671735
162584	50	419	0	0	paint	1096	110	1	stimuli\paint\paint_11s.jpg	10	-1	1	0	paint_11s.jpg	0	0	0	149.796298725363	149.846281658687	0.0499829333239177
162684	50	420	0	0	carrot	277	111	1	stimuli\carrot\carrot_02s.jpg	1	-1	1	0	carrot_02s.jpg	0	0	0	149.896320424425	149.946297750124	0.0499773256997287
162784	50	421	0	0	waffle_iron	1771	112	1	stimuli\waffle_iron\waffle_iron_08s.jpg	7	-1	1	0	waffle_iron_08s.jpg	0	0	0	149.99632213109	150.046297018696	0.0499748876063677
162884	50	422	0	0	knob	882	113	1	stimuli\knob\knob_08s.jpg	7	-1	1	0	knob_08s.jpg	0	0	0	150.096317986328	150.146294336788	0.0499763504594739
162984	50	423	0	0	wand	1780	114	1	stimuli\wand\wand_05n.jpg	4	-1	1	0	wand_05n.jpg	0	0	0	150.196329689192	150.246304576795	0.0499748876027297
163084	50	424	0	0	lamb_chop	890	115	1	stimuli\lamb_chop\lamb_chop_12s.jpg	11	-1	1	0	lamb_chop_12s.jpg	0	0	0	150.296316767279	150.346306771084	0.0499900038048509
163184	50	425	0	0	hot_chocolate	803	116	1	stimuli\hot_chocolate\hot_chocolate_07s.jpg	6	-1	1	0	hot_chocolate_07s.jpg	0	0	0	150.396334809193	150.446309209179	0.0499743999862403
163284	50	426	0	0	ribbon	1308	117	1	stimuli\ribbon\ribbon_08s.jpg	7	-1	1	0	ribbon_08s.jpg	0	0	0	150.49632261871	150.546314085372	0.049991466661595
163384	50	427	0	0	sling	1466	118	1	stimuli\sling\sling_03s.jpg	2	-1	1	0	sling_03s.jpg	0	0	0	150.596332371097	150.646350900632	0.0500185295350093
163484	50	428	0	0	plunger	1204	119	1	stimuli\plunger\plunger_01s.jpg	0	-1	1	0	plunger_01s.jpg	0	0	0	150.696323593951	150.746314572993	0.0499909790414677
163584	50	429	0	0	honey	788	120	1	stimuli\honey\honey_03s.jpg	2	-1	1	0	honey_03s.jpg	0	0	0	150.796347487296	150.846321155852	0.0499736685560492
163684	50	430	0	0	grain	698	121	1	stimuli\grain\grain_04s.jpg	3	-1	1	0	grain_04s.jpg	0	0	0	150.896336272053	150.946323837758	0.0499875657042139
163784	50	431	0	0	shortbread	1429	122	1	stimuli\shortbread\shortbread_04s.jpg	3	-1	1	0	shortbread_04s.jpg	0	0	0	150.996343342533	151.046324812996	0.0499814704635355
163884	50	432	0	0	lamppost	892	123	1	stimuli\lamppost\lamppost_06s.jpg	5	-1	1	0	lamppost_06s.jpg	0	0	0	151.096343830151	151.146326275855	0.0499824457037903
163984	50	433	0	0	chime	328	124	1	stimuli\chime\chime_05s.jpg	4	-1	1	0	chime_05s.jpg	0	0	0	151.19633871015	151.246320912043	0.0499822018937266
164084	50	434	0	0	block	143	125	1	stimuli\block\block_07s.jpg	6	-1	1	0	block_07s.jpg	0	0	0	151.296349681583	151.346320180615	0.0499704990324972
164184	50	435	0	0	skeleton	1450	126	1	stimuli\skeleton\skeleton_10s.jpg	9	-1	1	0	skeleton_10s.jpg	0	0	0	151.396355533016	151.446324081568	0.0499685485519876
164284	50	436	0	0	caterpillar	286	127	1	stimuli\caterpillar\caterpillar_02s.jpg	1	-1	1	0	caterpillar_02s.jpg	0	0	0	151.496332858718	151.546354801587	0.050021942868625
164384	50	437	0	0	sewing_kit	1406	128	1	stimuli\sewing_kit\sewing_kit_09s.jpg	8	-1	1	0	sewing_kit_09s.jpg	0	0	0	151.596374550172	151.646370649218	0.0499960990455293
164484	50	438	0	0	knitting	880	129	1	stimuli\knitting\knitting_05s.jpg	4	-1	1	0	knitting_05s.jpg	0	0	0	151.696365041593	151.746358458731	0.0499934171384666
164584	50	439	0	0	target	1627	130	1	stimuli\target\target_06s.jpg	5	-1	1	0	target_06s.jpg	0	0	0	151.79638259589	151.846361384447	0.0499787885564729
164684	50	440	0	0	cd_player	290	131	1	stimuli\cd_player\cd_player_01b.jpg	0	-1	1	0	cd_player_01b.jpg	0	0	0	151.89639112923	151.946365529213	0.0499743999826023
164784	50	441	0	0	ferris_wheel	579	132	1	stimuli\ferris_wheel\ferris_wheel_08s.jpg	7	-1	1	1	ferris_wheel_08s.jpg	0	0	0	151.996362603499	152.04635333873	0.049990735231404
164884	50	442	0	0	toaster	1666	133	1	stimuli\toaster\toaster_08s.jpg	7	-1	1	0	toaster_08s.jpg	0	0	0	152.096377475886	152.146357239682	0.0499797637967276
164984	50	443	0	0	mussel	1042	134	1	stimuli\mussel\mussel_11s.jpg	10	-1	1	0	mussel_11s.jpg	0	0	0	152.196377719698	152.246359433972	0.0499817142735992
165084	50	444	0	0	horn	797	135	1	stimuli\horn\horn_10s.jpg	9	-1	1	0	horn_10s.jpg	0	0	0	152.296377719696	152.346362847307	0.0499851276108529
165184	50	445	0	0	stirrup	1558	136	1	stimuli\stirrup\stirrup_11s.jpg	10	-1	1	0	stirrup_11s.jpg	0	0	0	152.396384058749	152.446366260643	0.0499822018937266
165284	50	446	0	0	clover	366	137	1	stimuli\clover\clover_11s.jpg	10	-1	1	0	clover_11s.jpg	0	0	0	152.496380889221	152.546365529211	0.0499846399907256
165384	50	447	0	0	eggbeater	548	138	1	stimuli\eggbeater\eggbeater_12s.jpg	11	-1	1	0	eggbeater_12s.jpg	0	0	0	152.596385277797	152.646347487298	0.0499622095012455
165484	50	448	0	0	goat	684	139	1	stimuli\goat\goat_03s.jpg	2	-1	1	0	goat_03s.jpg	0	0	0	152.696408927335	152.746387959702	0.0499790323665366
165584	50	449	0	0	syrup	1605	140	1	stimuli\syrup\syrup_07s.jpg	6	-1	1	0	syrup_07s.jpg	0	0	0	152.796407220667	152.846389422561	0.0499822018937266
165684	50	450	0	0	bubble	207	141	1	stimuli\bubble\bubble_09s.jpg	8	-1	1	0	bubble_09s.jpg	0	0	0	152.896388691133	152.946405757808	0.0500170666746271
165784	50	451	0	0	blower	145	142	1	stimuli\blower\blower_11s.jpg	10	-1	1	0	blower_11s.jpg	0	0	0	152.99639844352	153.046377719696	0.0499792761766003
165884	50	452	0	0	mold1	1012	143	1	stimuli\mold1\mold1_06s.jpg	5	-1	1	0	mold1_06s.jpg	0	0	0	153.096401369236	153.146385277796	0.0499839085605345
165984	50	453	0	0	chocolate	338	144	1	stimuli\chocolate\chocolate_12s.jpg	11	-1	1	0	chocolate_12s.jpg	0	0	0	153.196400150187	153.246373331123	0.0499731809359218
166084	50	454	0	0	jukebox	857	145	1	stimuli\jukebox\jukebox_12n.jpg	11	-1	1	0	jukebox_12n.jpg	0	0	0	153.296406245427	153.346384790177	0.0499785447500471
166184	50	455	0	0	baklava	57	146	1	stimuli\baklava\baklava_07s.jpg	6	-1	1	0	baklava_07s.jpg	0	0	0	153.396408683526	153.446385033985	0.0499763504594739
166284	50	456	0	0	notebook	1064	147	1	stimuli\notebook\notebook_09s.jpg	8	-1	1	0	notebook_09s.jpg	0	0	0	153.496410146385	153.546387715895	0.0499775695097924
166384	50	457	0	0	pen	1141	148	1	stimuli\pen\pen_10s.jpg	9	-1	1	0	pen_10s.jpg	0	0	0	153.59641282829	153.646394298754	0.0499814704635355
166484	50	458	0	0	walrus	1779	149	1	stimuli\walrus\walrus_10s.jpg	9	-1	1	0	walrus_10s.jpg	0	0	0	153.696414291149	153.746389422562	0.0499751314127934
166584	50	459	0	0	anchor	21	150	1	stimuli\anchor\anchor_05s.jpg	4	-1	1	0	anchor_05s.jpg	0	0	0	153.796417948291	153.846401369236	0.0499834209440451
166684	50	460	0	0	wok	1830	151	1	stimuli\wok\wok_12s.jpg	11	-1	1	0	wok_12s.jpg	0	0	0	153.896428188298	153.946400393997	0.0499722056993051
166784	50	461	0	0	rollerskate	1327	152	1	stimuli\rollerskate\rollerskate_05s.jpg	4	-1	1	0	rollerskate_05s.jpg	0	0	0	153.996423068296	154.046403075903	0.0499800076067913
166884	50	462	0	0	cocoon	376	153	1	stimuli\cocoon\cocoon_07s.jpg	6	-1	1	0	cocoon_07s.jpg	0	0	0	154.096424287345	154.146405757809	0.0499814704635355
166984	50	463	0	0	turtleneck	1737	154	1	stimuli\turtleneck\turtleneck_04s.jpg	3	-1	1	0	turtleneck_04s.jpg	0	0	0	154.196434771158	154.246412340672	0.0499775695134304
167084	50	464	0	0	muffin	1035	155	1	stimuli\muffin\muffin_05n.jpg	4	-1	1	0	muffin_05n.jpg	0	0	0	154.29643477116	154.346418923531	0.0499841523705982
167184	50	465	0	0	steak	1544	156	1	stimuli\steak\steak_09s.jpg	8	-1	1	0	steak_09s.jpg	0	0	0	154.396439403543	154.446417948293	0.0499785447500471
167284	50	466	0	0	avocado	43	157	1	stimuli\avocado\avocado_12s.jpg	11	-1	1	0	avocado_12s.jpg	0	0	0	154.496438915925	154.546418679722	0.0499797637967276
167384	50	467	0	0	foot	628	158	1	stimuli\foot\foot_10s.jpg	9	-1	1	0	foot_10s.jpg	0	0	0	154.596443060687	154.646424774965	0.0499817142772372
167484	50	468	0	0	scanner	1375	159	1	stimuli\scanner\scanner_08s.jpg	7	-1	1	0	scanner_08s.jpg	0	0	0	154.69644379212	154.746423068296	0.0499792761766003
167584	50	469	0	0	meatloaf	990	160	1	stimuli\meatloaf\meatloaf_11s.jpg	10	-1	1	0	meatloaf_11s.jpg	0	0	0	154.796443060688	154.846422824485	0.0499797637967276
167684	50	470	0	0	can_opener	251	161	1	stimuli\can_opener\can_opener_01b.jpg	0	-1	1	0	can_opener_01b.jpg	0	0	0	154.896457201648	154.946434039732	0.0499768380832393
167784	50	471	0	0	mole	1014	162	1	stimuli\mole\mole_05s.jpg	4	-1	1	0	mole_05s.jpg	0	0	0	154.9964559826	155.046437940684	0.0499819580836629
167884	50	472	0	0	parsley	1122	163	1	stimuli\parsley\parsley_08s.jpg	7	-1	1	0	parsley_08s.jpg	1	0	0	155.096456226413	155.146440866403	0.0499846399907256
167984	50	473	0	0	ivy	834	164	1	stimuli\ivy\ivy_12s.jpg	11	-1	1	0	ivy_12s.jpg	0	0	0	155.196443060689	155.246434039731	0.0499909790414677
168084	50	474	0	0	pallet	1101	165	1	stimuli\pallet\pallet_08s.jpg	7	-1	1	0	pallet_08s.jpg	0	0	0	155.29645793308	155.346439891164	0.0499819580836629
168184	50	475	0	0	shopping_cart	1428	166	1	stimuli\shopping_cart\shopping_cart_08s.jpg	7	-1	1	0	shopping_cart_08s.jpg	0	0	0	155.396466466416	155.446445254976	0.0499787885601108
168284	50	476	0	0	periscope	1155	167	1	stimuli\periscope\periscope_03s.jpg	2	-1	1	0	periscope_03s.jpg	0	0	0	155.496467685465	155.546448668312	0.0499809828470461
168384	50	477	0	0	hopscotch	796	168	1	stimuli\hopscotch\hopscotch_12s.jpg	11	-1	1	0	hopscotch_12s.jpg	0	0	0	155.596482557856	155.646463784509	0.0499812266534718
168484	50	478	0	0	gauge	663	169	1	stimuli\gauge\gauge_03s.jpg	2	-1	1	0	gauge_03s.jpg	0	0	0	155.69647231785	155.746469148326	0.0499968304757203
168584	50	479	0	0	gel	669	170	1	stimuli\gel\gel_08s.jpg	7	-1	1	0	gel_08s.jpg	0	0	0	155.796488896907	155.846453544505	0.0499646475982445
168684	50	480	0	0	pedal	1136	171	1	stimuli\pedal\pedal_02s.jpg	1	-1	1	0	pedal_02s.jpg	0	0	0	155.896469879754	155.946450618787	0.0499807390333444
168784	50	481	0	0	sock	1489	172	1	stimuli\sock\sock_03s.jpg	2	-1	1	0	sock_03s.jpg	0	0	0	155.996482070237	156.046462321654	0.049980251416855
168884	50	482	0	0	acorn	3	173	1	stimuli\acorn\acorn_10s.jpg	9	-1	1	0	acorn_10s.jpg	0	0	0	156.096484752143	156.146462077842	0.0499773256997287
168984	50	483	0	0	drawer	516	174	1	stimuli\drawer\drawer_11s.jpg	10	-1	1	0	drawer_11s.jpg	0	0	0	156.196488653099	156.246468904515	0.049980251416855
169084	50	484	0	0	wick	1815	175	1	stimuli\wick\wick_07s.jpg	6	-1	1	0	wick_07s.jpg	0	0	0	156.296483289283	156.346462809273	0.0499795199903019
169184	50	485	0	0	pool_table	1222	176	1	stimuli\pool_table\pool_table_09s.jpg	8	-1	1	0	pool_table_09s.jpg	0	0	0	156.396487434049	156.446470367373	0.0499829333239177
169284	50	486	0	0	sardine	1359	177	1	stimuli\sardine\sardine_11s.jpg	10	-1	1	0	sardine_11s.jpg	0	0	0	156.49647963214	156.546476462612	0.0499968304720824
169384	50	487	0	0	lens	916	178	1	stimuli\lens\lens_06s.jpg	5	-1	1	0	lens_06s.jpg	0	0	0	156.596496942628	156.646479388331	0.0499824457037903
169484	50	488	0	0	scraper	1387	179	1	stimuli\scraper\scraper_10s.jpg	9	-1	1	0	scraper_10s.jpg	0	0	0	156.69650084358	156.746475974996	0.0499751314164314
169584	50	489	0	0	kazoo	864	180	1	stimuli\kazoo\kazoo_01s.jpg	0	-1	1	0	kazoo_01s.jpg	0	0	0	156.796499624532	156.846477681662	0.0499780571299198
169684	50	490	0	0	squash	1526	181	1	stimuli\squash\squash_02s.jpg	1	-1	1	0	squash_02s.jpg	0	0	0	156.896503769298	156.946485971192	0.0499822018937266
169784	50	491	0	0	videogame	1762	182	1	stimuli\videogame\videogame_05s.jpg	4	-1	1	0	videogame_05s.jpg	0	0	0	156.996505719773	157.046474999755	0.0499692799821787
169884	50	492	0	0	hearse	771	183	1	stimuli\hearse\hearse_11s.jpg	10	-1	1	0	hearse_11s.jpg	0	0	0	157.096510108349	157.146488653099	0.0499785447500471
169984	50	493	0	0	trigger	1713	184	1	stimuli\trigger\trigger_08s.jpg	7	-1	1	0	trigger_08s.jpg	0	0	0	157.196510108348	157.246490847385	0.0499807390369824
170084	50	494	0	0	crumb	451	185	1	stimuli\crumb\crumb_03s.jpg	2	-1	1	0	crumb_03s.jpg	0	0	0	157.296501331202	157.346494504531	0.0499931733284029
170184	50	495	0	0	paintbrush	1097	186	1	stimuli\paintbrush\paintbrush_01b.jpg	0	-1	1	0	paintbrush_01b.jpg	0	0	0	157.396515715973	157.446495235959	0.0499795199866639
170284	50	496	0	0	kaleidoscope	861	187	1	stimuli\kaleidoscope\kaleidoscope_02s.jpg	1	-1	1	0	kaleidoscope_02s.jpg	0	0	0	157.496516203591	157.546499136912	0.0499829333202797
170384	50	497	0	0	payphone	1127	188	1	stimuli\payphone\payphone_07s.jpg	6	-1	1	0	payphone_07s.jpg	0	0	0	157.596520592164	157.646505475965	0.0499848838007892
170484	50	498	0	0	bat2	88	189	1	stimuli\bat2\bat2_12s.jpg	11	-1	1	0	bat2_12s.jpg	0	0	0	157.69652424931	157.746503281676	0.0499790323665366
170584	50	499	0	0	motorcycle	1025	190	1	stimuli\motorcycle\motorcycle_06s.jpg	5	-1	1	0	motorcycle_06s.jpg	0	0	0	157.796514253114	157.846507426442	0.0499931733284029
170684	50	500	0	0	pepper2	1150	191	1	stimuli\pepper2\pepper2_06s.jpg	5	-1	1	0	pepper2_06s.jpg	0	0	0	157.896533514078	157.946510595968	0.049977081889665
170784	50	501	0	0	extinguisher	563	192	1	stimuli\extinguisher\extinguisher_02s.jpg	1	-1	1	0	extinguisher_02s.jpg	0	0	0	157.996530100743	158.0465088893	0.0499787885564729
170884	50	502	0	0	coil	384	193	1	stimuli\coil\coil_09s.jpg	8	-1	1	0	coil_09s.jpg	0	0	0	158.096534245506	158.146501818821	0.0499675733153708
170984	50	503	0	0	radio	1273	194	1	stimuli\radio\radio_10s.jpg	9	-1	1	0	radio_10s.jpg	0	0	0	158.196534976934	158.246516691212	0.0499817142772372
171084	50	504	0	0	cannonball	261	195	1	stimuli\cannonball\cannonball_12s.jpg	11	-1	1	0	cannonball_12s.jpg	0	0	0	158.296537171223	158.346518641687	0.0499814704635355
171184	50	505	0	0	cap	265	196	1	stimuli\cap\cap_03s.jpg	2	-1	1	0	cap_03s.jpg	0	0	0	158.39654643599	158.446521079783	0.049974643792666
171284	50	506	0	0	mouse1	1026	197	1	stimuli\mouse1\mouse1_02s.jpg	1	-1	1	0	mouse1_02s.jpg	0	0	0	158.496543022655	158.546527418835	0.0499843961806619
171384	50	507	0	0	microscope	999	198	1	stimuli\microscope\microscope_11s.jpg	10	-1	1	0	microscope_11s.jpg	0	0	0	158.596548630278	158.646536195985	0.0499875657078519
171484	50	508	0	0	computer_screen	395	199	1	stimuli\computer_screen\computer_screen_07s.jpg	6	-1	1	0	computer_screen_07s.jpg	0	0	0	158.696555700757	158.746533757887	0.0499780571299198
171584	50	509	0	0	ambulance	19	200	1	stimuli\ambulance\ambulance_04s.jpg	3	-1	1	0	ambulance_04s.jpg	0	0	0	158.796557163616	158.846536927413	0.0499797637967276
171684	50	510	0	0	mosquito	1020	201	1	stimuli\mosquito\mosquito_09s.jpg	8	-1	1	0	mosquito_09s.jpg	0	0	0	158.896559114091	158.946541072179	0.0499819580873009
171784	50	511	0	0	patty	1126	202	1	stimuli\patty\patty_12s.jpg	11	-1	1	0	patty_12s.jpg	0	0	0	158.99656130838	159.046540828367	0.0499795199866639
171884	50	512	0	0	laptop	897	203	1	stimuli\laptop\laptop_05s.jpg	4	-1	1	0	laptop_05s.jpg	0	0	0	159.096561552189	159.146548142657	0.0499865904675971
171984	50	513	0	0	mint	1004	204	1	stimuli\mint\mint_09s.jpg	8	-1	1	0	mint_09s.jpg	0	0	0	159.196588127445	159.24656130838	0.0499731809359218
172084	50	514	0	0	shrimp	1438	205	1	stimuli\shrimp\shrimp_08s.jpg	7	-1	1	0	shrimp_08s.jpg	0	0	0	159.29656764743	159.34656764743	0.0499999999992724
172184	50	515	0	0	bookmark	166	206	1	stimuli\bookmark\bookmark_07s.jpg	6	-1	1	0	bookmark_07s.jpg	0	0	0	159.396567403623	159.446567891242	0.0500004876193998
172284	50	516	0	0	radiator	1272	207	1	stimuli\radiator\radiator_05s.jpg	4	-1	1	0	radiator_05s.jpg	0	0	0	159.496574717912	159.546554969329	0.049980251416855
172384	50	517	0	0	tortellini	1686	208	1	stimuli\tortellini\tortellini_06s.jpg	5	-1	1	0	tortellini_06s.jpg	0	0	0	159.596580081725	159.646556919804	0.0499768380796013
172484	50	518	0	0	chili	327	209	1	stimuli\chili\chili_04s.jpg	3	-1	1	0	chili_04s.jpg	0	0	0	159.69658276363	159.746557895043	0.0499751314127934
172584	50	519	0	0	coyote	427	210	1	stimuli\coyote\coyote_06s.jpg	5	-1	1	0	coyote_06s.jpg	0	0	0	159.796576668388	159.846559845522	0.0499831771339814
172684	50	520	0	0	medal	991	211	1	stimuli\medal\medal_02s.jpg	1	-1	1	0	medal_02s.jpg	0	0	0	159.896580325534	159.946563258858	0.0499829333239177
172784	50	521	0	0	eggshell	551	212	1	stimuli\eggshell\eggshell_12s.jpg	11	-1	1	0	eggshell_12s.jpg	0	0	0	159.996582032203	160.046562771236	0.0499807390333444
172884	50	522	0	0	desk	480	213	1	stimuli\desk\desk_04s.jpg	3	-1	1	0	desk_04s.jpg	0	0	0	160.096603731265	160.146571548386	0.0499678171217965
172984	50	523	0	0	tee	1636	214	1	stimuli\tee\tee_03s.jpg	2	-1	1	0	tee_03s.jpg	0	0	0	160.196593003639	160.246573011245	0.0499800076067913
173084	50	524	0	0	magnifying_glass	958	215	1	stimuli\magnifying_glass\magnifying_glass_01b.jpg	0	-1	1	0	magnifying_glass_01b.jpg	0	0	0	160.296595929354	160.34656764743	0.0499717180755397
173184	50	525	0	0	rain_gauge	1278	216	1	stimuli\rain_gauge\rain_gauge_09s.jpg	8	-1	1	0	rain_gauge_09s.jpg	0	0	0	160.396596416973	160.446574230293	0.0499778133198561
173284	50	526	0	0	noisemaker	1060	217	1	stimuli\noisemaker\noisemaker_02s.jpg	1	-1	1	0	noisemaker_02s.jpg	1	0	0	160.496598367452	160.546578131249	0.0499797637967276
173384	50	527	0	0	windshield_wiper	1821	218	1	stimuli\windshield_wiper\windshield_wiper_04s.jpg	3	-1	1	0	windshield_wiper_04s.jpg	0	0	0	160.596615677936	160.646583982678	0.0499683047419239
173484	50	528	0	0	beaker	101	219	1	stimuli\beaker\beaker_07s.jpg	6	-1	1	0	beaker_07s.jpg	0	0	0	160.69660495031	160.746582032203	0.049977081893303
173584	50	529	0	0	metronome	997	220	1	stimuli\metronome\metronome_07s.jpg	6	-1	1	0	metronome_07s.jpg	0	0	0	160.796605194122	160.84659105316	0.049985859037406
173684	50	530	0	0	surfboard	1587	221	1	stimuli\surfboard\surfboard_09s.jpg	8	-1	1	0	surfboard_09s.jpg	0	0	0	160.896594222686	160.946592272208	0.0499980495224008
173784	50	531	0	0	lavender	904	222	1	stimuli\lavender\lavender_08s.jpg	7	-1	1	0	lavender_08s.jpg	0	0	0	160.996614215081	161.04659007792	0.0499758628393465
173884	50	532	0	0	plum	1203	223	1	stimuli\plum\plum_03s.jpg	2	-1	1	0	plum_03s.jpg	0	0	0	161.096612264602	161.146594466496	0.0499822018937266
173984	50	533	0	0	couch	422	224	1	stimuli\couch\couch_10s.jpg	9	-1	1	0	couch_10s.jpg	0	0	0	161.19660641317	161.246595685545	0.0499892723746598
174084	50	534	0	0	throne	1652	225	1	stimuli\throne\throne_02s.jpg	1	-1	1	0	throne_02s.jpg	0	0	0	161.296600561738	161.34659739221	0.0499968304720824
174184	50	535	0	0	flashlight	611	226	1	stimuli\flashlight\flashlight_09n.jpg	8	-1	1	0	flashlight_09n.jpg	0	0	0	161.396615434129	161.446609582694	0.0499941485650197
174284	50	536	0	0	fence	575	227	1	stimuli\fence\fence_02s.jpg	1	-1	1	0	fence_02s.jpg	0	0	0	161.496626161752	161.546605194122	0.0499790323701745
174384	50	537	0	0	outfit	1087	228	1	stimuli\outfit\outfit_04s.jpg	3	-1	1	0	outfit_04s.jpg	0	0	0	161.596639815096	161.646612264602	0.0499724495057308
174484	50	538	0	0	railing	1277	229	1	stimuli\railing\railing_05s.jpg	4	-1	1	0	railing_05s.jpg	0	0	0	161.696615677938	161.746610557933	0.0499948799952108
174584	50	539	0	0	centrifuge	296	230	1	stimuli\centrifuge\centrifuge_05s.jpg	4	-1	1	0	centrifuge_05s.jpg	0	0	0	161.796632988422	161.846613239839	0.049980251416855
174684	50	540	0	0	bear	105	231	1	stimuli\bear\bear_03s.jpg	2	-1	1	0	bear_03s.jpg	0	0	0	161.896639815095	161.946621285559	0.0499814704635355
174784	50	541	0	0	butter	228	232	1	stimuli\butter\butter_07s.jpg	6	-1	1	0	butter_07s.jpg	0	0	0	161.996640302714	162.046616896987	0.0499765942731756
174884	50	542	0	0	rim	1312	233	1	stimuli\rim\rim_12s.jpg	11	-1	1	0	rim_12s.jpg	0	0	0	162.096646641767	162.146622748416	0.0499761066494102
174984	50	543	0	0	handprint	750	234	1	stimuli\handprint\handprint_10s.jpg	9	-1	1	0	handprint_10s.jpg	0	0	0	162.196642009381	162.246622748418	0.0499807390369824
175084	50	544	0	0	lobster	939	235	1	stimuli\lobster\lobster_06s.jpg	5	-1	1	0	lobster_06s.jpg	0	0	0	162.296645910337	162.346627136991	0.0499812266534718
175184	50	545	0	0	jalapeno	838	236	1	stimuli\jalapeno\jalapeno_05s.jpg	4	-1	1	0	jalapeno_05s.jpg	0	0	0	162.396654199863	162.446632500803	0.0499783009399835
175284	50	546	0	0	trashcan	1704	237	1	stimuli\trashcan\trashcan_01b.jpg	0	-1	1	0	trashcan_01b.jpg	0	0	0	162.496651517959	162.546632500806	0.0499809828470461
175384	50	547	0	0	snowshoe	1485	238	1	stimuli\snowshoe\snowshoe_01b.jpg	0	-1	1	0	snowshoe_01b.jpg	0	0	0	162.596644935096	162.646639571285	0.0499946361887851
175484	50	548	0	0	marmalade	976	239	1	stimuli\marmalade\marmalade_03s.jpg	2	-1	1	0	marmalade_03s.jpg	0	0	0	162.696662001774	162.746639083667	0.049977081893303
175584	50	549	0	0	icepick	822	240	1	stimuli\icepick\icepick_07s.jpg	6	-1	1	0	icepick_07s.jpg	0	0	0	162.796637864616	162.846639571286	0.0500017066697183
175684	50	550	0	0	cruise_ship	450	241	1	stimuli\cruise_ship\cruise_ship_02s.jpg	1	-1	1	0	cruise_ship_02s.jpg	0	0	0	162.896671266542	162.946632256993	0.0499609904509271
175784	50	551	0	0	stockings	1559	242	1	stimuli\stockings\stockings_01b.jpg	0	-1	1	0	stockings_01b.jpg	0	0	0	162.996663952254	163.046646154147	0.0499822018937266
175884	50	552	0	0	cereal	297	243	1	stimuli\cereal\cereal_09s.jpg	8	-1	1	0	cereal_09s.jpg	0	0	0	163.096668584636	163.146652737007	0.0499841523705982
175984	50	553	0	0	footprint	632	244	1	stimuli\footprint\footprint_07s.jpg	6	-1	1	0	footprint_07s.jpg	0	0	0	163.196668340825	163.246650055102	0.0499817142772372
176084	50	554	0	0	blimp	139	245	1	stimuli\blimp\blimp_06s.jpg	5	-1	1	0	blimp_06s.jpg	0	0	0	163.296670047494	163.346661270345	0.0499912228515313
176184	50	555	0	0	loveseat	947	246	1	stimuli\loveseat\loveseat_07s.jpg	6	-1	1	0	loveseat_07s.jpg	0	0	0	163.396668340825	163.446664196061	0.0499958552354656
176284	50	556	0	0	shuffleboard	1439	247	1	stimuli\shuffleboard\shuffleboard_11s.jpg	10	-1	1	0	shuffleboard_11s.jpg	0	0	0	163.496677117975	163.546661026536	0.0499839085605345
176384	50	557	0	0	landmine	894	248	1	stimuli\landmine\landmine_05s.jpg	4	-1	1	0	landmine_05s.jpg	0	0	0	163.596685651311	163.646663464631	0.0499778133198561
176484	50	558	0	0	mop	1019	249	1	stimuli\mop\mop_01b.jpg	0	-1	1	0	mop_01b.jpg	0	0	0	163.696673460829	163.746661757967	0.049988297138043
176584	50	559	0	0	barcode	73	250	1	stimuli\barcode\barcode_04s.jpg	3	-1	1	0	barcode_04s.jpg	0	0	0	163.796686382742	163.846665415109	0.0499790323665366
176684	50	560	0	0	shaving_cream	1410	251	1	stimuli\shaving_cream\shaving_cream_03s.jpg	2	-1	1	0	shaving_cream_03s.jpg	0	0	0	163.896690771315	163.946669072255	0.0499783009399835
176784	50	561	0	0	bandanna	67	252	1	stimuli\bandanna\bandanna_11s.jpg	10	-1	1	0	bandanna_11s.jpg	0	0	0	163.996691015127	164.046672973211	0.0499819580836629
176884	50	562	0	0	pearl	1134	253	1	stimuli\pearl\pearl_01b.jpg	0	-1	1	0	pearl_01b.jpg	0	0	0	164.096692234176	164.14668004369	0.0499878095142776
176984	50	563	0	0	moccasin	1010	254	1	stimuli\moccasin\moccasin_02s.jpg	1	-1	1	0	moccasin_02s.jpg	0	0	0	164.196701011322	164.246679312262	0.0499783009399835
177084	50	564	0	0	alligator	12	255	1	stimuli\alligator\alligator_03n.jpg	2	-1	1	0	alligator_03n.jpg	0	0	0	164.296706131325	164.346682237978	0.0499761066530482
177184	50	565	0	0	skin	1456	256	1	stimuli\skin\skin_04s.jpg	3	-1	1	0	skin_04s.jpg	0	0	0	164.396708081804	164.446701498942	0.0499934171384666
177284	50	566	0	0	toothpaste	1680	257	1	stimuli\toothpaste\toothpaste_01b.jpg	0	-1	1	0	toothpaste_01b.jpg	0	0	0	164.496721491334	164.546687845599	0.0499663542650524
177384	50	567	0	0	wrench	1841	258	1	stimuli\wrench\wrench_10s.jpg	9	-1	1	0	wrench_10s.jpg	0	0	0	164.596729780864	164.646691990365	0.0499622095012455
177484	50	568	0	0	cockroach	373	259	1	stimuli\cockroach\cockroach_08s.jpg	7	-1	1	0	cockroach_08s.jpg	0	0	0	164.69670905704	164.746693453224	0.0499843961842998
177584	50	569	0	0	cilantro	347	260	1	stimuli\cilantro\cilantro_05s.jpg	4	-1	1	0	cilantro_05s.jpg	0	0	0	164.796716615143	164.84669662275	0.0499800076067913
177684	50	570	0	0	sifter	1443	261	1	stimuli\sifter\sifter_09s.jpg	8	-1	1	0	sifter_09s.jpg	0	0	0	164.896714908475	164.946688577031	0.0499736685560492
177784	50	571	0	0	pocketknife	1207	262	1	stimuli\pocketknife\pocketknife_03s.jpg	2	-1	1	0	pocketknife_03s.jpg	0	0	0	164.99671710276	165.046703205608	0.0499861028474697
177884	50	572	0	0	mongoose	1016	263	1	stimuli\mongoose\mongoose_06s.jpg	5	-1	1	0	mongoose_06s.jpg	0	0	0	165.09672466086	165.146707350374	0.049982689513854
177984	50	573	0	0	trough	1718	264	1	stimuli\trough\trough_05s.jpg	4	-1	1	0	trough_05s.jpg	0	0	0	165.196725879909	165.246706131325	0.049980251416855
178084	50	574	0	0	pot	1230	265	1	stimuli\pot\pot_08s.jpg	7	-1	1	0	pot_08s.jpg	0	0	0	165.296724904671	165.346707837994	0.0499829333239177
178184	50	575	0	0	paperclip	1116	266	1	stimuli\paperclip\paperclip_09s.jpg	8	-1	1	0	paperclip_09s.jpg	1	0	0	165.396734169437	165.446758306596	0.0500241371591983
178284	50	576	0	0	lettuce	920	267	1	stimuli\lettuce\lettuce_10n.jpg	9	-1	1	0	lettuce_10n.jpg	0	0	0	165.496748310397	165.546707837992	0.0499595275941829
178384	50	577	0	0	razor	1290	268	1	stimuli\razor\razor_09s.jpg	8	-1	1	0	razor_09s.jpg	0	0	0	165.596742458965	165.646725148479	0.049982689513854
178484	50	578	0	0	hippopotamus	781	269	1	stimuli\hippopotamus\hippopotamus_12s.jpg	11	-1	1	0	hippopotamus_12s.jpg	0	0	0	165.69674002087	165.746718809427	0.0499787885564729
178584	50	579	0	0	key	869	270	1	stimuli\key\key_12s.jpg	11	-1	1	0	key_12s.jpg	0	0	0	165.796735388485	165.846719297049	0.0499839085641725
178684	50	580	0	0	prune	1244	271	1	stimuli\prune\prune_01b.jpg	0	-1	1	0	prune_01b.jpg	0	0	0	165.896740020871	165.946727830385	0.0499878095142776
178784	50	581	0	0	stilt	1555	272	1	stimuli\stilt\stilt_03s.jpg	2	-1	1	0	stilt_03s.jpg	0	0	0	165.996745140874	166.046724904671	0.0499797637967276
178884	50	582	0	0	rock	1319	273	1	stimuli\rock\rock_04s.jpg	3	-1	1	0	rock_04s.jpg	0	0	0	166.096743678016	166.14673173134	0.0499880533243413
178984	50	583	0	0	lip_balm	934	274	1	stimuli\lip_balm\lip_balm_01b.jpg	0	-1	1	0	lip_balm_01b.jpg	0	0	0	166.196750260875	166.246730024672	0.0499797637967276
179084	50	584	0	0	doorknob	509	275	1	stimuli\doorknob\doorknob_02s.jpg	1	-1	1	0	doorknob_02s.jpg	0	0	0	166.296755137071	166.346720028476	0.0499648914046702
179184	50	585	0	0	mannequin	968	276	1	stimuli\mannequin\mannequin_07s.jpg	6	-1	1	0	mannequin_07s.jpg	0	0	0	166.396735388487	166.446754649449	0.0500192609615624
179284	50	586	0	0	arm	36	277	1	stimuli\arm\arm_05s.jpg	4	-1	1	0	arm_05s.jpg	0	0	0	166.496761476123	166.546756356118	0.0499948799952108
179384	50	587	0	0	seatbelt	1399	278	1	stimuli\seatbelt\seatbelt_02s.jpg	1	-1	1	0	seatbelt_02s.jpg	0	0	0	166.596761476121	166.646746359922	0.0499848838007892
179484	50	588	0	0	croissant	442	279	1	stimuli\croissant\croissant_12s.jpg	11	-1	1	0	croissant_12s.jpg	0	0	0	166.696768546601	166.746748554207	0.0499800076067913
179584	50	589	0	0	tab	1607	280	1	stimuli\tab\tab_07s.jpg	6	-1	1	0	tab_07s.jpg	0	0	0	166.796769521839	166.846751479923	0.0499819580836629
179684	50	590	0	0	bathtub	91	281	1	stimuli\bathtub\bathtub_06s.jpg	5	-1	1	0	bathtub_06s.jpg	0	0	0	166.896786588517	166.946767327554	0.0499807390369824
179784	50	591	0	0	plate	1197	282	1	stimuli\plate\plate_06s.jpg	5	-1	1	0	plate_06s.jpg	0	0	0	166.996789514233	167.046752455164	0.0499629409314366
179884	50	592	0	0	hearing_aid	770	283	1	stimuli\hearing_aid\hearing_aid_09s.jpg	8	-1	1	0	hearing_aid_09s.jpg	0	0	0	167.096795121855	167.146774641842	0.0499795199866639
179984	50	593	0	0	stir_fry	1557	284	1	stimuli\stir_fry\stir_fry_10s.jpg	9	-1	1	0	stir_fry_10s.jpg	0	0	0	167.196795121858	167.246758550406	0.049963428547926
180084	50	594	0	0	generator	671	285	1	stimuli\generator\generator_09s.jpg	8	-1	1	0	generator_09s.jpg	0	0	0	167.29680024186	167.346768058982	0.0499678171217965
180184	50	595	0	0	box	181	286	1	stimuli\box\box_11s.jpg	10	-1	1	0	box_11s.jpg	0	0	0	167.396780249466	167.446758306596	0.0499780571299198
180284	50	596	0	0	nacho	1045	287	1	stimuli\nacho\nacho_02s.jpg	1	-1	1	0	nacho_02s.jpg	0	0	0	167.496783662802	167.546760257072	0.0499765942695376
180384	50	597	0	0	spring_roll	1521	288	1	stimuli\spring_roll\spring_roll_01b.jpg	0	-1	1	0	spring_roll_01b.jpg	0	0	0	167.596799754239	167.646772447555	0.0499726933157945
180484	50	598	0	0	pet_food	1157	289	1	stimuli\pet_food\pet_food_06s.jpg	5	-1	1	0	pet_food_06s.jpg	0	0	0	167.696786344706	167.746771472317	0.0499851276108529
180584	50	599	0	0	figurine	582	290	1	stimuli\figurine\figurine_08s.jpg	7	-1	1	0	figurine_08s.jpg	0	0	0	167.796794146616	167.84677634851	0.0499822018937266
180684	50	600	0	0	raincoat	1279	291	1	stimuli\raincoat\raincoat_05s.jpg	4	-1	1	0	raincoat_05s.jpg	0	0	0	167.896800241859	167.946774398035	0.0499741561761766
180784	50	601	0	0	mistletoe	1007	292	1	stimuli\mistletoe\mistletoe_08s.jpg	7	-1	1	0	mistletoe_08s.jpg	0	0	0	167.99679829138	168.046779030417	0.0499807390369824
180884	50	602	0	0	handlebar	749	293	1	stimuli\handlebar\handlebar_05s.jpg	4	-1	1	0	handlebar_05s.jpg	0	0	0	168.096808043767	168.146786588517	0.0499785447500471
180984	50	603	0	0	doghouse	497	294	1	stimuli\doghouse\doghouse_07s.jpg	6	-1	1	0	doghouse_07s.jpg	0	0	0	168.196800485668	168.246782687562	0.0499822018937266
181084	50	604	0	0	jewel	849	295	1	stimuli\jewel\jewel_06s.jpg	5	-1	1	0	jewel_06s.jpg	0	0	0	168.296785125658	168.346804630433	0.0500195047752641
181184	50	605	0	0	broccoli	201	296	1	stimuli\broccoli\broccoli_02s.jpg	1	-1	1	0	broccoli_02s.jpg	0	0	0	168.396809262817	168.446782687563	0.0499734247459855
181284	50	606	0	0	traffic_light	1696	297	1	stimuli\traffic_light\traffic_light_06s.jpg	5	-1	1	0	traffic_light_06s.jpg	0	0	0	168.496828767591	168.546811457105	0.049982689513854
181384	50	607	0	0	crab	428	298	1	stimuli\crab\crab_01b.jpg	0	-1	1	0	crab_01b.jpg	0	0	0	168.596816577108	168.646799266618	0.049982689510216
181484	50	608	0	0	crouton	445	299	1	stimuli\crouton\crouton_10n.jpg	9	-1	1	0	crouton_10n.jpg	0	0	0	168.696809994246	168.746799022811	0.0499890285645961
181584	50	609	0	0	hedgehog	774	300	1	stimuli\hedgehog\hedgehog_10s.jpg	9	-1	1	0	hedgehog_10s.jpg	0	0	0	168.796819015202	168.846809019007	0.0499900038048509
181684	50	610	0	0	chihuahua	326	301	1	stimuli\chihuahua\chihuahua_03s.jpg	2	-1	1	0	chihuahua_03s.jpg	0	0	0	168.896826085685	168.946800485668	0.0499743999826023
181784	50	611	0	0	television	1641	302	1	stimuli\television\television_04s.jpg	3	-1	1	0	television_04s.jpg	0	0	0	168.996828279971	169.046809262818	0.0499809828470461
181884	50	612	0	0	measuring_cup	986	303	1	stimuli\measuring_cup\measuring_cup_08s.jpg	7	-1	1	0	measuring_cup_08s.jpg	0	0	0	169.096833399974	169.146815845677	0.0499824457037903
181984	50	613	0	0	ring	1313	304	1	stimuli\ring\ring_03s.jpg	2	-1	1	0	ring_03s.jpg	0	0	0	169.196840226647	169.246816577106	0.0499763504594739
182084	50	614	0	0	defibrillator	477	305	1	stimuli\defibrillator\defibrillator_10s.jpg	9	-1	1	0	defibrillator_10s.jpg	0	0	0	169.296830961877	169.346816820918	0.049985859041044
182184	50	615	0	0	thermostat	1648	306	1	stimuli\thermostat\thermostat_08s.jpg	7	-1	1	0	thermostat_08s.jpg	0	0	0	169.396843152361	169.446816820917	0.0499736685560492
182284	50	616	0	0	glasses	678	307	1	stimuli\glasses\glasses_11s.jpg	10	-1	1	0	glasses_11s.jpg	0	0	0	169.496838276169	169.546820965683	0.049982689513854
182384	50	617	0	0	rug	1340	308	1	stimuli\rug\rug_04s.jpg	3	-1	1	0	rug_04s.jpg	0	0	0	169.596834862834	169.646823891399	0.0499890285645961
185718	50	618	0	0	bike	123	0	2	stimuli\bike\bike_01b.jpg	0	-1	2	0	bike_01b.jpg	0	0	0	172.930258730823	172.980248978438	0.0499902476149146
185818	50	619	0	0	beetle	115	1	2	stimuli\beetle\beetle_12s.jpg	11	-1	2	0	beetle_12s.jpg	0	0	0	173.030266045113	173.080251172723	0.0499851276108529
185918	50	620	0	0	leash	907	2	2	stimuli\leash\leash_07s.jpg	6	-1	2	0	leash_07s.jpg	0	0	0	173.130270433689	173.180218989848	0.0499485561595066
186018	50	621	0	0	centerpiece	295	3	2	stimuli\centerpiece\centerpiece_01b.jpg	0	-1	2	0	centerpiece_01b.jpg	0	0	0	173.2302631194	173.280244346053	0.0499812266534718
186118	50	622	0	0	calzone	243	4	2	stimuli\calzone\calzone_06s.jpg	5	-1	2	0	calzone_06s.jpg	0	0	0	173.330263363208	173.380251660343	0.049988297134405
186218	50	623	0	0	shawl	1411	5	2	stimuli\shawl\shawl_08s.jpg	7	-1	2	0	shawl_08s.jpg	0	0	0	173.430270677498	173.480262144159	0.049991466661595
186318	50	624	0	0	sauerkraut	1364	6	2	stimuli\sauerkraut\sauerkraut_11s.jpg	10	-1	2	0	sauerkraut_11s.jpg	0	0	0	173.530279942264	173.580262144158	0.0499822018937266
186418	50	625	0	0	ready_meal	1292	7	2	stimuli\ready_meal\ready_meal_08s.jpg	7	-1	2	0	ready_meal_08s.jpg	0	0	0	173.630286281317	173.680253854629	0.0499675733117328
186518	50	626	0	0	tapestry	1625	8	2	stimuli\tapestry\tapestry_04s.jpg	3	-1	2	0	tapestry_04s.jpg	0	0	0	173.730286525126	173.780265801306	0.0499792761802382
186618	50	627	0	0	ticktacktoe	1657	9	2	stimuli\ticktacktoe\ticktacktoe_01b.jpg	0	-1	2	0	ticktacktoe_01b.jpg	0	0	0	173.830289207031	173.880278723216	0.0499895161847235
186718	50	628	0	0	stick	1552	10	2	stimuli\stick\stick_06s.jpg	5	-1	2	0	stick_06s.jpg	0	0	0	173.930295302274	173.980265069877	0.0499697676023061
186818	50	629	0	0	gravestone	710	11	2	stimuli\gravestone\gravestone_01b.jpg	0	-1	2	0	gravestone_01b.jpg	0	0	0	174.030283355602	174.080287744175	0.0500043885731429
186918	50	630	0	0	router	1336	12	2	stimuli\router\router_12s.jpg	11	-1	2	0	router_12s.jpg	0	0	0	174.130303835613	174.180267020354	0.0499631847415003
187018	50	631	0	0	water_heater	1791	13	2	stimuli\water_heater\water_heater_07s.jpg	6	-1	2	0	water_heater_07s.jpg	0	0	0	174.230303104185	174.280279942264	0.0499768380796013
187118	50	632	0	0	map	970	14	2	stimuli\map\map_09s.jpg	8	-1	2	0	map_09s.jpg	0	0	0	174.330304810854	174.380286281317	0.0499814704635355
187218	50	633	0	0	leek	910	15	2	stimuli\leek\leek_07s.jpg	6	-1	2	0	leek_07s.jpg	0	0	0	174.430305054662	174.480287012746	0.0499819580836629
187318	50	634	0	0	pea	1128	16	2	stimuli\pea\pea_12s.jpg	11	-1	2	0	pea_12s.jpg	0	0	0	174.530308224188	174.580293595609	0.0499853714209166
187418	50	635	0	0	train	1698	17	2	stimuli\train\train_02s.jpg	1	-1	2	0	train_02s.jpg	0	0	0	174.630316269908	174.6802909137	0.049974643792666
187518	50	636	0	0	nightshirt	1058	18	2	stimuli\nightshirt\nightshirt_06s.jpg	5	-1	2	0	nightshirt_06s.jpg	0	0	0	174.730314075619	174.780295789893	0.0499817142735992
187618	50	637	0	0	hummus	812	19	2	stimuli\hummus\hummus_08s.jpg	7	-1	2	0	hummus_08s.jpg	0	0	0	174.830319927052	174.880302372756	0.0499824457037903
187718	50	638	0	0	calf2	242	20	2	stimuli\calf2\calf2_01b.jpg	0	-1	2	0	calf2_01b.jpg	0	0	0	174.930321146101	174.980302372755	0.0499812266534718
187818	50	639	0	0	flamethrower	607	21	2	stimuli\flamethrower\flamethrower_11s.jpg	10	-1	2	0	flamethrower_11s.jpg	0	0	0	175.030324071817	175.080316757525	0.0499926857082755
187918	50	640	0	0	photo_booth	1163	22	2	stimuli\photo_booth\photo_booth_03s.jpg	2	-1	2	0	photo_booth_03s.jpg	0	0	0	175.130341626114	175.180321146101	0.0499795199866639
188018	50	641	0	0	horse	798	23	2	stimuli\horse\horse_05s.jpg	4	-1	2	0	horse_05s.jpg	0	0	0	175.2303438204	175.280308711808	0.0499648914083082
188118	50	642	0	0	apple_tree	31	24	2	stimuli\apple_tree\apple_tree_10s.jpg	9	-1	2	0	apple_tree_10s.jpg	1	0	0	175.330334799441	175.380311881334	0.049977081893303
188218	50	643	0	0	machine_gun	954	25	2	stimuli\machine_gun\machine_gun_05s.jpg	4	-1	2	0	machine_gun_05s.jpg	0	0	0	175.430335774679	175.480313100383	0.0499773257033667
188318	50	644	0	0	finger	588	26	2	stimuli\finger\finger_12s.jpg	11	-1	2	0	finger_12s.jpg	0	0	0	175.530353816597	175.580317976575	0.0499641599781171
188418	50	645	0	0	cookie_cutter	401	27	2	stimuli\cookie_cutter\cookie_cutter_06s.jpg	5	-1	2	0	cookie_cutter_06s.jpg	0	0	0	175.630345527068	175.68031431943	0.0499687923620513
188518	50	646	0	0	dartboard	474	28	2	stimuli\dartboard\dartboard_11s.jpg	10	-1	2	0	dartboard_11s.jpg	0	0	0	175.730341869923	175.780324315627	0.0499824457037903
188618	50	647	0	0	garlic	658	29	2	stimuli\garlic\garlic_12n.jpg	11	-1	2	0	garlic_12n.jpg	0	0	0	175.830339919445	175.880328948009	0.0499890285645961
188718	50	648	0	0	cactus	235	30	2	stimuli\cactus\cactus_08n.jpg	7	-1	2	0	cactus_08n.jpg	0	0	0	175.930338944207	175.980324071817	0.0499851276108529
188818	50	649	0	0	pelican	1140	31	2	stimuli\pelican\pelican_03s.jpg	2	-1	2	0	pelican_03s.jpg	0	0	0	176.030348940403	176.080326997533	0.0499780571299198
