onset	duration	eventnumber	blocksequencenumber	isteststim	object	objectnumber	presentationnumber	sequencenumber	stim	stimnumber	teststimnumber	withinsequencenumber	istarget	stimname	response	rt	correct	time_stimon	time_stimoff	stimdur
12169	50	0	0	0	rice	1309	0	0	stimuli\rice\rice_10s.jpg	9	-1	0	0	rice_10s.jpg	0	0	0	337.411971972644	337.461949505581	0.0499775329371914
12269	50	1	0	0	kangaroo	862	1	0	stimuli\kangaroo\kangaroo_08s.jpg	7	-1	0	0	kangaroo_08s.jpg	0	0	0	337.511979457573	337.561951139098	0.0499716815247666
12369	50	2	0	0	kneepad	878	2	0	stimuli\kneepad\kneepad_11s.jpg	10	-1	0	0	kneepad_11s.jpg	0	0	0	337.61197450824	337.661948871682	0.0499743634427432
12469	50	3	0	0	steamroller	1545	3	0	stimuli\steamroller\steamroller_05n.jpg	4	-1	0	0	steamroller_05n.jpg	0	0	0	337.71199637797	337.761959038529	0.0499626605596859
12569	50	4	0	0	snowmobile	1483	4	0	stimuli\snowmobile\snowmobile_02s.jpg	1	-1	0	0	snowmobile_02s.jpg	0	0	0	337.811977531499	337.861942630145	0.0499650986457709
12669	50	5	0	0	bubble_wrap	208	5	0	stimuli\bubble_wrap\bubble_wrap_02s.jpg	1	-1	0	0	bubble_wrap_02s.jpg	0	0	0	337.912003302161	337.962384827435	0.0503815252741333
12769	50	6	0	0	blackberry	135	6	0	stimuli\blackberry\blackberry_09n.jpg	8	-1	0	0	blackberry_09n.jpg	0	0	0	338.011972265202	338.061966133391	0.049993868189631
12869	50	7	0	0	handprint	750	7	0	stimuli\handprint\handprint_10s.jpg	9	-1	0	0	handprint_10s.jpg	0	0	0	338.111989502533	338.161965572624	0.0499760700913612
12969	50	8	0	0	shortbread	1429	8	0	stimuli\shortbread\shortbread_09s.jpg	8	-1	0	0	shortbread_09s.jpg	0	0	0	338.211990892247	338.261953065201	0.0499621729541104
13069	50	9	0	0	luggage	948	9	0	stimuli\luggage\luggage_11s.jpg	10	-1	0	0	luggage_11s.jpg	0	0	0	338.311972777214	338.361967376812	0.0499945995979942
13169	50	10	0	0	headrest	767	10	0	stimuli\headrest\headrest_10s.jpg	9	-1	0	0	headrest_10s.jpg	0	0	0	338.41198952691	338.461971692246	0.0499821653356776
13269	50	11	0	0	bathmat	89	11	0	stimuli\bathmat\bathmat_12s.jpg	11	-1	0	0	bathmat_12s.jpg	0	0	0	338.511992867105	338.561977470526	0.0499846034217626
13369	50	12	0	0	puck	1245	12	0	stimuli\puck\puck_10s.jpg	9	-1	0	0	puck_10s.jpg	0	0	0	338.611978896835	338.661967888824	0.0499889919883572
13469	50	13	0	0	satellite_dish	1361	13	0	stimuli\satellite_dish\satellite_dish_03s.jpg	2	-1	0	0	satellite_dish_03s.jpg	0	0	0	338.711983943678	338.761977568065	0.0499936243868433
13569	50	14	0	0	cinnamon	348	14	0	stimuli\cinnamon\cinnamon_08n.jpg	7	-1	0	0	cinnamon_08n.jpg	0	0	0	338.811984601954	338.861980908259	0.0499963063048199
13669	50	15	0	0	poinsettia	1209	15	0	stimuli\poinsettia\poinsettia_04s.jpg	3	-1	0	0	poinsettia_04s.jpg	0	0	0	338.91200500881	338.961980835098	0.0499758262885734
13769	50	16	0	0	grass	705	16	0	stimuli\grass\grass_02s.jpg	1	-1	0	0	grass_02s.jpg	0	0	0	339.012001278519	339.061983687687	0.0499824091675691
13869	50	17	0	0	generator	671	17	0	stimuli\generator\generator_12s.jpg	11	-1	0	0	generator_12s.jpg	0	0	0	339.112004618713	339.161987759289	0.0499831405759323
13969	50	18	0	0	egg	546	18	0	stimuli\egg\egg_08s.jpg	7	-1	0	0	egg_08s.jpg	0	0	0	339.21200722747	339.261987198523	0.0499799710523803
14069	50	19	0	0	ski_lift	1454	19	0	stimuli\ski_lift\ski_lift_05s.jpg	4	-1	0	0	ski_lift_05s.jpg	0	0	0	339.312011055299	339.36199175776	0.0499807024607435
14169	50	20	0	0	gingerbread_man	674	20	0	stimuli\gingerbread_man\gingerbread_man_09s.jpg	8	-1	0	0	gingerbread_man_09s.jpg	0	0	0	339.412014151661	339.461996316997	0.0499821653356776
14269	50	21	0	0	radish	1274	21	0	stimuli\radish\radish_07s.jpg	6	-1	0	0	radish_07s.jpg	0	0	0	339.512013834727	339.561995756259	0.0499819215328898
14369	50	22	0	0	soccer_ball	1488	22	0	stimuli\soccer_ball\soccer_ball_12s.jpg	11	-1	0	0	soccer_ball_12s.jpg	0	0	0	339.612017662526	339.662000071665	0.0499824091384653
14469	50	23	0	0	football_helmet	630	23	0	stimuli\football_helmet\football_helmet_10s.jpg	9	-1	0	0	football_helmet_10s.jpg	0	0	0	339.712022709398	339.762004143297	0.0499814338982105
14569	50	24	0	0	mannequin	968	24	0	stimuli\mannequin\mannequin_12s.jpg	11	-1	0	0	mannequin_12s.jpg	0	0	0	339.812025074352	339.86200650825	0.0499814338982105
14669	50	25	0	0	stove2	1564	25	0	stimuli\stove2\stove2_10s.jpg	9	-1	0	0	stove2_10s.jpg	0	0	0	339.912029389758	339.962008141767	0.0499787520093378
14769	50	26	0	0	place_mat	1193	26	0	stimuli\place_mat\place_mat_04s.jpg	3	-1	0	0	place_mat_04s.jpg	0	0	0	340.012030779471	340.062010750524	0.0499799710523803
14869	50	27	0	0	ice_pack	820	27	0	stimuli\ice_pack\ice_pack_08s.jpg	7	-1	0	0	ice_pack_08s.jpg	0	0	0	340.112057769205	340.162011652632	0.0499538834264968
14969	50	28	0	0	cucumber	457	28	0	stimuli\cucumber\cucumber_04s.jpg	3	-1	0	0	cucumber_04s.jpg	0	0	0	340.212033315096	340.262014017586	0.0499807024898473
15069	50	29	0	0	punch2	1255	29	0	stimuli\punch2\punch2_03s.jpg	2	-1	0	0	punch2_03s.jpg	0	0	0	340.31203665529	340.362018820626	0.0499821653356776
15169	50	30	0	0	boulder	172	30	0	stimuli\boulder\boulder_11s.jpg	10	-1	0	0	boulder_11s.jpg	0	0	0	340.412043165008	340.462024111301	0.0499809462926351
15269	50	31	0	0	orchid	1081	31	0	stimuli\orchid\orchid_05s.jpg	4	-1	0	0	orchid_05s.jpg	0	0	0	340.512041872804	340.562027695298	0.0499858224939089
15369	50	32	0	0	microwave	1000	32	0	stimuli\microwave\microwave_02s.jpg	1	-1	0	0	microwave_02s.jpg	0	0	0	340.612043018715	340.662026159291	0.0499831405759323
15469	50	33	0	0	cauliflower	288	33	0	stimuli\cauliflower\cauliflower_09s.jpg	8	-1	0	0	cauliflower_09s.jpg	0	0	0	340.712048065587	340.762029987091	0.049981921503786
15569	50	34	0	0	landmine	894	34	0	stimuli\landmine\landmine_09s.jpg	8	-1	0	0	landmine_09s.jpg	0	0	0	340.812049942906	340.862037228246	0.0499872853397392
15669	50	35	0	0	orange	1078	35	0	stimuli\orange\orange_12s.jpg	11	-1	0	0	orange_12s.jpg	0	0	0	340.912051820254	340.962038861762	0.0499870415078476
15769	50	36	0	0	donkey	504	36	0	stimuli\donkey\donkey_03s.jpg	2	-1	0	0	donkey_03s.jpg	0	0	0	341.012057842338	341.06203976387	0.0499819215328898
15869	50	37	0	0	anklet	23	37	0	stimuli\anklet\anklet_03s.jpg	2	-1	0	0	anklet_03s.jpg	0	0	0	341.112067277776	341.162040665949	0.0499733881733846
15969	50	38	0	0	hinge	779	38	0	stimuli\hinge\hinge_12s.jpg	11	-1	0	0	hinge_12s.jpg	0	0	0	341.21206013413	341.262044737581	0.0499846034508664
16069	50	39	0	0	headphones	766	39	0	stimuli\headphones\headphones_09s.jpg	8	-1	0	0	headphones_09s.jpg	0	0	0	341.312063718156	341.362044420617	0.0499807024607435
16169	50	40	0	0	snow	1479	40	0	stimuli\snow\snow_12s.jpg	11	-1	0	0	snow_12s.jpg	0	0	0	341.412067302153	341.462047029374	0.0499797272204887
16269	50	41	0	0	painting	1098	41	0	stimuli\painting\painting_02s.jpg	1	-1	0	0	painting_02s.jpg	0	0	0	341.51206991091	341.562053539092	0.0499836281815078
16370	50	42	0	0	sewage	1405	42	0	stimuli\sewage\sewage_01b.jpg	0	-1	0	0	sewage_01b.jpg	0	0	0	341.612076664431	341.662053953565	0.0499772891344037
16469	50	43	0	0	vulture	1768	43	0	stimuli\vulture\vulture_11s.jpg	10	-1	0	0	vulture_11s.jpg	0	0	0	341.712073909381	341.762055587111	0.0499816777301021
16570	50	44	0	0	puppy	1258	44	0	stimuli\puppy\puppy_05s.jpg	4	-1	0	0	puppy_05s.jpg	0	0	0	341.812077737181	341.862059658713	0.0499819215328898
16670	50	45	0	0	mud	1033	45	0	stimuli\mud\mud_05s.jpg	4	-1	0	0	mud_05s.jpg	0	0	0	341.912085465941	341.962065193191	0.0499797272495925
16770	50	46	0	0	backscratcher	50	46	0	stimuli\backscratcher\backscratcher_02s.jpg	1	-1	0	0	backscratcher_02s.jpg	0	0	0	342.012085392809	342.062063657184	0.0499782643746585
16869	50	47	0	0	chainsaw	299	47	0	stimuli\chainsaw\chainsaw_01b.jpg	0	-1	0	0	chainsaw_01b.jpg	0	0	0	342.11208556348	342.162069679296	0.0499841158161871
16970	50	48	0	0	margarita	973	48	0	stimuli\margarita\margarita_06s.jpg	5	-1	0	0	margarita_06s.jpg	0	0	0	342.212087440799	342.262066436611	0.0499789958121255
17070	50	49	0	0	bucket	209	49	0	stimuli\bucket\bucket_01b.jpg	0	-1	0	0	bucket_01b.jpg	0	0	0	342.312090049556	342.362069533003	0.0499794834468048
17170	50	50	0	0	doorstop	512	50	0	stimuli\doorstop\doorstop_12s.jpg	11	-1	0	0	doorstop_12s.jpg	0	0	0	342.412098753557	342.46207409224	0.049975338682998
17270	50	51	0	0	cable	234	51	0	stimuli\cable\cable_09s.jpg	8	-1	0	0	cable_09s.jpg	0	0	0	342.512097948988	342.562077676237	0.0499797272495925
17370	50	52	0	0	squirt_gun	1530	52	0	stimuli\squirt_gun\squirt_gun_09s.jpg	8	-1	0	0	squirt_gun_09s.jpg	0	0	0	342.612099826336	342.662081260234	0.0499814338982105
17470	50	53	0	0	canoe	262	53	0	stimuli\canoe\canoe_05s.jpg	4	-1	0	0	canoe_05s.jpg	0	0	0	342.71210219129	342.76208191851	0.0499797272204887
17570	50	54	0	0	lipstick	936	54	0	stimuli\lipstick\lipstick_08s.jpg	7	-1	0	0	lipstick_08s.jpg	0	0	0	342.812105287652	342.862111102528	0.0500058148754761
17670	50	55	0	0	bowl	177	55	0	stimuli\bowl\bowl_01b.jpg	0	-1	0	0	bowl_01b.jpg	0	0	0	342.912105458323	342.962087136053	0.0499816777301021
17770	50	56	0	0	calculator	240	56	0	stimuli\calculator\calculator_08s.jpg	7	-1	0	0	calculator_08s.jpg	0	0	0	343.01211001756	343.062090963853	0.0499809462926351
17870	50	57	0	0	suit	1580	57	0	stimuli\suit\suit_02s.jpg	1	-1	0	0	suit_02s.jpg	0	0	0	343.112116039672	343.162097473571	0.0499814338982105
17970	50	58	0	0	hourglass	807	58	0	stimuli\hourglass\hourglass_12s.jpg	11	-1	0	0	hourglass_12s.jpg	0	0	0	343.212117185554	343.262100082327	0.0499828967731446
18070	50	59	0	0	fish	600	59	0	stimuli\fish\fish_10s.jpg	9	-1	0	0	fish_10s.jpg	0	0	0	343.312120038143	343.362099033955	0.0499789958121255
18170	50	60	0	0	scorpion	1384	60	0	stimuli\scorpion\scorpion_05s.jpg	4	-1	0	0	scorpion_05s.jpg	0	0	0	343.412121184054	343.462102130317	0.0499809462635312
18270	50	61	0	0	cocktail	374	61	0	stimuli\cocktail\cocktail_01b.jpg	0	-1	0	0	cocktail_01b.jpg	0	0	0	343.51212184233	343.562104739103	0.0499828967731446
18370	50	62	0	0	gurney	728	62	0	stimuli\gurney\gurney_05s.jpg	4	-1	0	1	gurney_05s.jpg	0	0	0	343.612132740614	343.662109054509	0.0499763138941489
18470	50	63	0	0	lighter	928	63	0	stimuli\lighter\lighter_08s.jpg	7	-1	0	0	lighter_08s.jpg	0	0	0	343.712131204607	343.762118002342	0.0499867977341637
18570	50	64	0	0	jukebox	857	64	0	stimuli\jukebox\jukebox_09s.jpg	8	-1	0	0	jukebox_09s.jpg	0	0	0	343.812132106716	343.862113540614	0.0499814338982105
18670	50	65	0	0	windshield_wiper	1821	65	0	stimuli\windshield_wiper\windshield_wiper_03s.jpg	2	-1	0	0	windshield_wiper_03s.jpg	0	0	0	343.912133008795	343.96211517413	0.0499821653356776
18770	50	66	0	0	finger	588	66	0	stimuli\finger\finger_11s.jpg	10	-1	0	0	finger_11s.jpg	1	0.392168302671053	1	344.012137811864	344.062121683848	0.0499838719842955
18870	50	67	0	0	revolver	1304	67	0	stimuli\revolver\revolver_07s.jpg	6	-1	0	0	revolver_07s.jpg	0	0	0	344.112141395861	344.162127218326	0.0499858224648051
18970	50	68	0	0	earring	540	68	0	stimuli\earring\earring_01b.jpg	0	-1	0	0	earring_01b.jpg	0	0	0	344.21214229794	344.262121781387	0.0499794834468048
19070	50	69	0	0	clover	366	69	0	stimuli\clover\clover_03s.jpg	2	-1	0	0	clover_03s.jpg	0	0	0	344.312151001941	344.36212780347	0.0499768015288282
19170	50	70	0	0	ladle	887	70	0	stimuli\ladle\ladle_11s.jpg	10	-1	0	0	ladle_11s.jpg	0	0	0	344.412147027848	344.462130168424	0.0499831405759323
19270	50	71	0	0	wasp	1785	71	0	stimuli\wasp\wasp_08s.jpg	7	-1	0	0	wasp_08s.jpg	0	0	0	344.512149880407	344.56213180194	0.0499819215328898
19370	50	72	0	0	shears	1412	72	0	stimuli\shears\shears_11s.jpg	10	-1	0	0	shears_11s.jpg	0	0	0	344.612152001559	344.662139043096	0.0499870415369514
19470	50	73	0	0	sheath	1413	73	0	stimuli\sheath\sheath_08s.jpg	7	-1	0	0	sheath_08s.jpg	0	0	0	344.712159242714	344.762142627093	0.0499833843787201
19570	50	74	0	0	chips	335	74	0	stimuli\chips\chips_01b.jpg	0	-1	0	0	chips_01b.jpg	0	0	0	344.812156975269	344.86214060348	0.0499836282106116
19670	50	75	0	0	shorts	1430	75	0	stimuli\shorts\shorts_11s.jpg	10	-1	0	0	shorts_11s.jpg	0	0	0	344.91216275355	344.962141505559	0.0499787520093378
19770	50	76	0	0	headdress	763	76	0	stimuli\headdress\headdress_01b.jpg	0	-1	0	0	headdress_01b.jpg	0	0	0	345.012169750902	345.062145577191	0.0499758262885734
19870	50	77	0	0	bomb	160	77	0	stimuli\bomb\bomb_09s.jpg	8	-1	0	0	bomb_09s.jpg	0	0	0	345.112167971092	345.162150624034	0.049982652941253
19970	50	78	0	0	dish	489	78	0	stimuli\dish\dish_05s.jpg	4	-1	0	0	dish_05s.jpg	0	0	0	345.212170336046	345.262155914708	0.0499855786620174
20070	50	79	0	0	odometer	1071	79	0	stimuli\odometer\odometer_04s.jpg	3	-1	0	0	odometer_04s.jpg	0	0	0	345.312173920043	345.362155597744	0.0499816777009983
20170	50	80	0	0	sofa_bed	1492	80	0	stimuli\sofa_bed\sofa_bed_09s.jpg	8	-1	0	0	sofa_bed_09s.jpg	0	0	0	345.412176284997	345.462154793175	0.0499785081774462
20270	50	81	0	0	phone_booth	1162	81	0	stimuli\phone_booth\phone_booth_09s.jpg	8	-1	0	0	phone_booth_09s.jpg	0	0	0	345.512177674711	345.562157889566	0.049980214855168
20370	50	82	0	0	doorhandle	508	82	0	stimuli\doorhandle\doorhandle_04s.jpg	3	-1	0	0	doorhandle_04s.jpg	0	0	0	345.61218515964	345.662160985928	0.0499758262885734
20470	50	83	0	0	flyswatter	623	83	0	stimuli\flyswatter\flyswatter_04s.jpg	3	-1	0	0	flyswatter_04s.jpg	0	0	0	345.712182648422	345.7621660328	0.0499833843787201
20570	50	84	0	0	spider_web	1514	84	0	stimuli\spider_web\spider_web_06s.jpg	5	-1	0	0	spider_web_06s.jpg	0	0	0	345.812187207659	345.862170592038	0.0499833843787201
20670	50	85	0	0	balance_beam	58	85	0	stimuli\balance_beam\balance_beam_07s.jpg	6	-1	0	0	balance_beam_07s.jpg	0	0	0	345.912194204982	345.962176370318	0.0499821653356776
20770	50	86	0	0	chair	300	86	0	stimuli\chair\chair_11s.jpg	10	-1	0	0	chair_11s.jpg	0	0	0	346.012191937567	346.062170689547	0.0499787519802339
20870	50	87	0	0	van	1752	87	0	stimuli\van\van_09s.jpg	8	-1	0	0	van_09s.jpg	0	0	0	346.112195277761	346.162174029741	0.0499787519802339
20970	50	88	0	0	turnstile	1734	88	0	stimuli\turnstile\turnstile_10s.jpg	9	-1	0	0	turnstile_10s.jpg	0	0	0	346.2121952046	346.262180539459	0.0499853348592296
21070	50	89	0	0	kitten	875	89	0	stimuli\kitten\kitten_07s.jpg	6	-1	0	0	kitten_07s.jpg	0	0	0	346.312200739078	346.362185830134	0.0499850910564419
21170	50	90	0	0	dishrag	490	90	0	stimuli\dishrag\dishrag_03s.jpg	2	-1	0	0	dishrag_03s.jpg	0	0	0	346.412201153551	346.462183075084	0.0499819215328898
21270	50	91	0	0	taxi	1630	91	0	stimuli\taxi\taxi_11s.jpg	10	-1	0	0	taxi_11s.jpg	0	0	0	346.512204981351	346.562185683841	0.0499807024898473
21370	50	92	0	0	handbrake	745	92	0	stimuli\handbrake\handbrake_11s.jpg	10	-1	0	0	handbrake_11s.jpg	0	0	0	346.612205639656	346.662187073554	0.0499814338982105
21470	50	93	0	0	tugboat	1725	93	0	stimuli\tugboat\tugboat_07s.jpg	6	-1	0	0	tugboat_07s.jpg	0	0	0	346.712209955091	346.762189926143	0.0499799710523803
21570	50	94	0	0	blanket	136	94	0	stimuli\blanket\blanket_01b.jpg	0	-1	0	0	blanket_01b.jpg	0	0	0	346.812214026693	346.862196679664	0.0499826529703569
21670	50	95	0	0	ballot_box	61	95	0	stimuli\ballot_box\ballot_box_11s.jpg	10	-1	0	0	ballot_box_11s.jpg	0	0	0	346.91221468497	346.962196118897	0.0499814339273144
21770	50	96	0	0	stair	1532	96	0	stimuli\stair\stair_04s.jpg	3	-1	0	0	stair_04s.jpg	0	0	0	347.012217049923	347.062199946697	0.0499828967731446
21870	50	97	0	0	olive	1075	97	0	stimuli\olive\olive_09s.jpg	8	-1	0	0	olive_09s.jpg	0	0	0	347.112225753925	347.162204262131	0.04997850820655
21970	50	98	0	0	train	1698	98	0	stimuli\train\train_05s.jpg	4	-1	0	0	train_05s.jpg	0	0	0	347.212248355063	347.262204676605	0.0499563215416856
22070	50	99	0	0	speedboat	1511	99	0	stimuli\speedboat\speedboat_10s.jpg	9	-1	0	0	speedboat_10s.jpg	0	0	0	347.31222365718	347.362210211082	0.0499865539022721
22170	50	100	0	0	pheasant	1160	100	0	stimuli\pheasant\pheasant_09s.jpg	8	-1	0	0	pheasant_09s.jpg	0	0	0	347.412233336421	347.462212088401	0.0499787519802339
22270	50	101	0	0	gravy	711	101	0	stimuli\gravy\gravy_09s.jpg	8	-1	0	0	gravy_09s.jpg	0	0	0	347.512230825174	347.562214209553	0.0499833843787201
22370	50	102	0	0	platypus	1198	102	0	stimuli\platypus\platypus_10n.jpg	9	-1	0	0	platypus_10n.jpg	0	0	0	347.612233190128	347.662228033558	0.0499948434298858
22470	50	103	0	0	barnacle	75	103	0	stimuli\barnacle\barnacle_04n.jpg	3	-1	0	0	barnacle_04n.jpg	0	0	0	347.712246038893	347.762220646138	0.0499746072455309
22570	50	104	0	0	crutch	452	104	0	stimuli\crutch\crutch_01b.jpg	0	-1	0	0	crutch_01b.jpg	0	0	0	347.812211344804	347.862224230135	0.0500128853309434
22670	50	105	0	0	hedge	773	105	0	stimuli\hedge\hedge_03s.jpg	2	-1	0	0	hedge_03s.jpg	0	0	0	347.91224686784	347.962229764613	0.0499828967731446
22770	50	106	0	0	chain	298	106	0	stimuli\chain\chain_04s.jpg	3	-1	0	0	chain_04s.jpg	0	0	0	348.01224703851	348.062229935254	0.0499828967440408
22870	50	107	0	0	seed	1401	107	0	stimuli\seed\seed_04s.jpg	3	-1	0	0	seed_04s.jpg	0	0	0	348.112235506327	348.162215721182	0.049980214855168
22970	50	108	0	0	lavender	904	108	0	stimuli\lavender\lavender_01b.jpg	0	-1	0	0	lavender_01b.jpg	0	0	0	348.212253475067	348.262221743265	0.0499682681984268
23070	50	109	0	0	sail	1346	109	0	stimuli\sail\sail_02s.jpg	1	-1	0	0	sail_02s.jpg	0	0	0	348.312258521939	348.362221426301	0.0499629043624736
23170	50	110	0	0	birthday_cake	132	110	0	stimuli\birthday_cake\birthday_cake_12s.jpg	11	-1	0	0	birthday_cake_12s.jpg	0	0	0	348.412259180215	348.462243296031	0.0499841158161871
23270	50	111	0	0	chin	330	111	0	stimuli\chin\chin_01b.jpg	0	-1	0	0	chin_01b.jpg	0	0	0	348.512249598512	348.562226400041	0.0499768015288282
23370	50	112	0	0	popsicle	1225	112	0	stimuli\popsicle\popsicle_09s.jpg	8	-1	0	0	popsicle_09s.jpg	0	0	0	348.612249281548	348.66224900118	0.0499997196311597
23470	50	113	0	0	playing_card	1199	113	0	stimuli\playing_card\playing_card_11s.jpg	10	-1	0	0	playing_card_11s.jpg	0	0	0	348.71226749412	348.76224819661	0.0499807024898473
23570	50	114	0	0	baton4	95	114	0	stimuli\baton4\baton4_04s.jpg	3	-1	0	0	baton4_04s.jpg	0	0	0	348.812254986697	348.862240077753	0.0499850910564419
23670	50	115	0	0	papaya	1111	115	0	stimuli\papaya\papaya_08s.jpg	7	-1	0	0	papaya_08s.jpg	0	0	0	348.912269054505	348.962250976037	0.0499819215328898
23770	50	116	0	0	leash	907	116	0	stimuli\leash\leash_04s.jpg	3	-1	0	0	leash_04s.jpg	0	0	0	349.012276051828	349.062258704798	0.0499826529703569
23870	50	117	0	0	tee	1636	117	0	stimuli\tee\tee_10s.jpg	9	-1	0	0	tee_10s.jpg	0	0	0	349.112272809172	349.162254730705	0.0499819215328898
23970	50	118	0	0	alligator	12	118	0	stimuli\alligator\alligator_10s.jpg	9	-1	0	0	alligator_10s.jpg	0	0	0	349.212276149367	349.262257583265	0.0499814338982105
24070	50	119	0	0	cereal	297	119	0	stimuli\cereal\cereal_11s.jpg	10	-1	0	0	cereal_11s.jpg	0	0	0	349.312311184767	349.362259704416	0.0499485196487512
24170	50	120	0	0	headset	769	120	0	stimuli\headset\headset_05s.jpg	4	-1	0	0	headset_05s.jpg	0	0	0	349.412288437365	349.462266701739	0.0499782643746585
24270	50	121	0	0	catfish	287	121	0	stimuli\catfish\catfish_10s.jpg	9	-1	0	0	catfish_10s.jpg	0	0	0	349.512287876598	349.56226882289	0.0499809462926351
24370	50	122	0	0	noodle	1061	122	0	stimuli\noodle\noodle_05s.jpg	4	-1	0	0	noodle_05s.jpg	0	0	0	349.61226829869	349.662272406887	0.0500041081977542
24470	50	123	0	0	star_fruit	1540	123	0	stimuli\star_fruit\star_fruit_09s.jpg	8	-1	0	0	star_fruit_09s.jpg	0	0	0	349.712291875068	349.762271846121	0.0499799710523803
24570	50	124	0	0	plug	1202	124	0	stimuli\plug\plug_07s.jpg	6	-1	0	0	plug_07s.jpg	0	0	0	349.812292533345	349.862275186315	0.0499826529703569
24670	50	125	0	0	screw	1390	125	0	stimuli\screw\screw_05s.jpg	4	-1	0	0	screw_05s.jpg	0	0	0	349.912297092582	349.962276088394	0.0499789958121255
24770	50	126	0	0	spring_roll	1521	126	0	stimuli\spring_roll\spring_roll_09s.jpg	8	-1	0	0	spring_roll_09s.jpg	0	0	0	350.01229701945	350.062284060987	0.0499870415369514
24870	50	127	0	0	sonogram	1496	127	0	stimuli\sonogram\sonogram_06s.jpg	5	-1	0	0	sonogram_06s.jpg	0	0	0	350.112304504408	350.162284963066	0.0499804586579558
24970	50	128	0	0	washboard	1782	128	0	stimuli\washboard\washboard_11s.jpg	10	-1	0	0	washboard_11s.jpg	0	0	0	350.212305894122	350.262284402299	0.0499785081774462
25070	50	129	0	0	cookie_cutter	401	129	0	stimuli\cookie_cutter\cookie_cutter_04s.jpg	3	-1	0	0	cookie_cutter_04s.jpg	0	0	0	350.312308990484	350.362273113918	0.04996412343462
25170	50	130	0	0	bandanna	67	130	0	stimuli\bandanna\bandanna_02s.jpg	1	-1	0	1	bandanna_02s.jpg	0	0	0	350.412309161155	350.462294739817	0.0499855786620174
25270	50	131	0	0	graffiti	697	131	0	stimuli\graffiti\graffiti_08s.jpg	7	-1	0	0	graffiti_08s.jpg	0	0	0	350.512312745152	350.562294422882	0.0499816777301021
25370	50	132	0	0	shawl	1411	132	0	stimuli\shawl\shawl_03s.jpg	2	-1	0	0	shawl_03s.jpg	0	0	0	350.612317548221	350.662293862115	0.0499763138941489
25470	50	133	0	0	drawer	516	133	0	stimuli\drawer\drawer_03s.jpg	2	-1	0	0	drawer_03s.jpg	0	0	0	350.712320156978	350.762296958506	0.0499768015288282
25570	50	134	0	0	roller_coaster	1325	134	0	stimuli\roller_coaster\roller_coaster_10s.jpg	9	-1	0	0	roller_coaster_10s.jpg	1	0.392151967447717	1	350.812324716215	350.862301761546	0.049977045331616
25670	50	135	0	0	space_shuttle	1501	135	0	stimuli\space_shuttle\space_shuttle_10s.jpg	9	-1	0	0	space_shuttle_10s.jpg	0	0	0	350.912328544015	350.9623041265	0.0499755824857857
25770	50	136	0	0	bagel	55	136	0	stimuli\bagel\bagel_09s.jpg	8	-1	0	0	bagel_09s.jpg	0	0	0	351.012330665166	351.062310880021	0.049980214855168
25870	50	137	0	0	sundae	1582	137	0	stimuli\sundae\sundae_03s.jpg	2	-1	0	0	sundae_03s.jpg	0	0	0	351.112329860596	351.162313244975	0.0499833843787201
25970	50	138	0	0	bow2	175	138	0	stimuli\bow2\bow2_03s.jpg	2	-1	0	0	bow2_03s.jpg	0	0	0	351.21233125031	351.262310733728	0.049979483417701
26070	50	139	0	0	loom	946	139	0	stimuli\loom\loom_12s.jpg	11	-1	0	0	loom_12s.jpg	0	0	0	351.312336540956	351.362318950123	0.0499824091675691
26170	50	140	0	0	walnut	1778	140	0	stimuli\walnut\walnut_11s.jpg	10	-1	0	0	walnut_11s.jpg	0	0	0	351.412337930669	351.462317170313	0.0499792396440171
26270	50	141	0	0	parfait	1119	141	0	stimuli\parfait\parfait_10s.jpg	9	-1	0	0	parfait_10s.jpg	0	0	0	351.512336638494	351.562318560027	0.0499819215328898
26370	50	142	0	0	sausage	1365	142	0	stimuli\sausage\sausage_05s.jpg	4	-1	0	0	sausage_05s.jpg	0	0	0	351.612343148212	351.662324094505	0.0499809462926351
26470	50	143	0	0	cow	426	143	0	stimuli\cow\cow_03s.jpg	2	-1	0	0	cow_03s.jpg	0	0	0	351.712345025531	351.762328897545	0.0499838720133994
26570	50	144	0	0	ferris_wheel	579	144	0	stimuli\ferris_wheel\ferris_wheel_03s.jpg	2	-1	0	0	ferris_wheel_03s.jpg	0	0	0	351.812348365725	351.862328092975	0.0499797272495925
26670	50	145	0	0	dustpan	535	145	0	stimuli\dustpan\dustpan_12s.jpg	11	-1	0	0	dustpan_12s.jpg	0	0	0	351.912370479258	351.962330945535	0.0499604662763886
26770	50	146	0	0	cardigan	273	146	0	stimuli\cardigan\cardigan_10s.jpg	9	-1	0	0	cardigan_10s.jpg	0	0	0	352.012352608028	352.062333066686	0.0499804586579558
26870	50	147	0	0	juicer2	856	147	0	stimuli\juicer2\juicer2_09s.jpg	8	-1	0	0	juicer2_09s.jpg	0	0	0	352.112354972953	352.162336894486	0.0499819215328898
26970	50	148	0	0	coffee_filter	379	148	0	stimuli\coffee_filter\coffee_filter_11s.jpg	10	-1	0	0	coffee_filter_11s.jpg	0	0	0	352.212360995065	352.262339990877	0.0499789958121255
27070	50	149	0	0	asparagus	42	149	0	stimuli\asparagus\asparagus_06s.jpg	5	-1	0	0	asparagus_06s.jpg	0	0	0	352.312362872384	352.362346256763	0.0499833843787201
27170	50	150	0	0	otter	1085	150	0	stimuli\otter\otter_01b.jpg	0	-1	0	0	otter_01b.jpg	0	0	0	352.412368163059	352.462343989348	0.0499758262885734
27270	50	151	0	0	flip_flop	614	151	0	stimuli\flip_flop\flip_flop_02s.jpg	1	-1	0	0	flip_flop_02s.jpg	0	0	0	352.51236370136	352.562348548585	0.0499848472245503
27370	50	152	0	0	ski_boots	1453	152	0	stimuli\ski_boots\ski_boots_09s.jpg	8	-1	0	0	ski_boots_09s.jpg	0	0	0	352.612371186289	352.662349938299	0.0499787520093378
27470	50	153	0	0	dishwasher	491	153	0	stimuli\dishwasher\dishwasher_12n.jpg	11	-1	0	0	dishwasher_12n.jpg	0	0	0	352.712374770286	352.762355472776	0.0499807024898473
27570	50	154	0	0	heater	772	154	0	stimuli\heater\heater_10s.jpg	9	-1	0	0	heater_10s.jpg	0	0	0	352.812374940957	352.862357350095	0.0499824091384653
27670	50	155	0	0	bassinet	85	155	0	stimuli\bassinet\bassinet_04s.jpg	3	-1	0	0	bassinet_04s.jpg	0	0	0	352.912378037348	352.962358008401	0.0499799710523803
27770	50	156	0	0	branch	192	156	0	stimuli\branch\branch_04s.jpg	3	-1	0	0	branch_04s.jpg	0	0	0	353.012380889908	353.062360129523	0.0499792396149132
27870	50	157	0	0	okra	1074	157	0	stimuli\okra\okra_01b.jpg	0	-1	0	0	okra_01b.jpg	0	0	0	353.112389106303	353.162364932592	0.0499758262885734
27970	50	158	0	0	peach	1129	158	0	stimuli\peach\peach_03s.jpg	2	-1	0	0	peach_03s.jpg	0	0	0	353.212386595056	353.262367785152	0.0499811900954228
28070	50	159	0	0	bolt	159	159	0	stimuli\bolt\bolt_05s.jpg	4	-1	0	0	bolt_05s.jpg	0	0	0	353.31238993525	353.362370150106	0.049980214855168
28170	50	160	0	0	paint	1096	160	0	stimuli\paint\paint_03s.jpg	2	-1	0	0	paint_03s.jpg	0	0	0	353.412392544007	353.462373734103	0.0499811900954228
28270	50	161	0	0	shell2	1418	161	0	stimuli\shell2\shell2_04s.jpg	3	-1	0	0	shell2_04s.jpg	0	0	0	353.512398322287	353.56237171049	0.0499733882024884
28370	50	162	0	0	turtleneck	1737	162	0	stimuli\turtleneck\turtleneck_12s.jpg	11	-1	0	0	turtleneck_12s.jpg	0	0	0	353.612396542478	353.66237553829	0.0499789958121255
28470	50	163	0	0	puppet	1257	163	0	stimuli\puppet\puppet_03s.jpg	2	-1	0	0	puppet_03s.jpg	0	0	0	353.712403783633	353.762385705166	0.0499819215328898
28570	50	164	0	0	honey	788	164	0	stimuli\honey\honey_06s.jpg	5	-1	0	0	honey_06s.jpg	0	0	0	353.812405660952	353.862384169159	0.04997850820655
28670	50	165	0	0	file2	584	165	0	stimuli\file2\file2_05s.jpg	4	-1	0	0	file2_05s.jpg	0	0	0	353.912408269709	353.962386777916	0.04997850820655
28770	50	166	0	0	shoehorn	1425	166	0	stimuli\shoehorn\shoehorn_07s.jpg	6	-1	0	0	shoehorn_07s.jpg	0	0	0	354.012406733731	354.062388411432	0.0499816777009983
28870	50	167	0	0	robe	1317	167	0	stimuli\robe\robe_04s.jpg	3	-1	0	0	robe_04s.jpg	0	0	0	354.112409098685	354.162388825906	0.0499797272204887
28970	50	168	0	0	almond	13	168	0	stimuli\almond\almond_02s.jpg	1	-1	0	0	almond_02s.jpg	0	0	0	354.212411951245	354.262395823258	0.0499838720133994
29070	50	169	0	0	sundial	1583	169	0	stimuli\sundial\sundial_08s.jpg	7	-1	0	0	sundial_08s.jpg	0	0	0	354.312414560001	354.36239696914	0.0499824091384653
29170	50	170	0	0	jackhammer	837	170	0	stimuli\jackhammer\jackhammer_09s.jpg	8	-1	0	0	jackhammer_09s.jpg	0	0	0	354.412425214483	354.462399821728	0.0499746072455309
29270	50	171	0	0	dumpling	532	171	0	stimuli\dumpling\dumpling_03s.jpg	2	-1	0	0	dumpling_03s.jpg	0	0	0	354.512423922279	354.562400723808	0.0499768015288282
29370	50	172	0	0	jalapeno	838	172	0	stimuli\jalapeno\jalapeno_05s.jpg	4	-1	0	0	jalapeno_05s.jpg	0	0	0	354.612422142469	354.662408940203	0.0499867977341637
29470	50	173	0	0	raspberry	1284	173	0	stimuli\raspberry\raspberry_05s.jpg	4	-1	0	0	raspberry_05s.jpg	0	0	0	354.712424751255	354.762409598479	0.0499848472245503
29570	50	174	0	0	manhole	967	174	0	stimuli\manhole\manhole_04n.jpg	3	-1	0	0	manhole_04n.jpg	0	0	0	354.812432967621	354.862411963433	0.0499789958121255
29670	50	175	0	0	latte	901	175	0	stimuli\latte\latte_07s.jpg	6	-1	0	0	latte_07s.jpg	0	0	0	354.912436307815	354.962411158864	0.0499748510483187
29770	50	176	0	0	fungus	648	176	0	stimuli\fungus\fungus_02s.jpg	1	-1	0	0	fungus_02s.jpg	0	0	0	355.012431602285	355.062414499058	0.0499828967731446
29870	50	177	0	0	coffee_pot	380	177	0	stimuli\coffee_pot\coffee_pot_09s.jpg	8	-1	0	0	coffee_pot_09s.jpg	0	0	0	355.112438599608	355.162417839252	0.0499792396440171
29970	50	178	0	0	crib	441	178	0	stimuli\crib\crib_06s.jpg	5	-1	0	0	crib_06s.jpg	0	0	0	355.212440720759	355.262421667052	0.0499809462926351
30070	50	179	0	0	iguana	825	179	0	stimuli\iguana\iguana_09s.jpg	8	-1	0	0	iguana_09s.jpg	0	0	0	355.312445036194	355.362424032006	0.0499789958121255
30170	50	180	0	0	vase	1753	180	0	stimuli\vase\vase_12n.jpg	11	-1	0	1	vase_12n.jpg	0	0	0	355.412448376388	355.462428835046	0.0499804586579558
30270	50	181	0	0	ski_pole	1455	181	0	stimuli\ski_pole\ski_pole_12s.jpg	11	-1	0	0	ski_pole_12s.jpg	0	0	0	355.512469758483	355.562427786674	0.0499580281903036
30370	50	182	0	0	bun	220	182	0	stimuli\bun\bun_08s.jpg	7	-1	0	0	bun_08s.jpg	0	0	0	355.612451155816	355.662430151628	0.0499789958121255
30470	50	183	0	0	twig	1740	183	0	stimuli\twig\twig_05s.jpg	4	-1	0	0	twig_05s.jpg	1	0.300179711979581	1	355.712453764572	355.762438367994	0.0499846034217626
30570	50	184	0	0	trampoline	1701	184	0	stimuli\trampoline\trampoline_06s.jpg	5	-1	0	0	trampoline_06s.jpg	0	0	0	355.812460518093	355.862435125338	0.0499746072455309
30670	50	185	0	0	gauge	663	185	0	stimuli\gauge\gauge_03s.jpg	2	-1	0	0	gauge_03s.jpg	0	0	0	355.912460201158	355.962441878859	0.0499816777009983
30770	50	186	0	0	radiator	1272	186	0	stimuli\radiator\radiator_11s.jpg	10	-1	0	0	radiator_11s.jpg	0	0	0	356.012461590872	356.062444731419	0.0499831405468285
30870	50	187	0	0	fence	575	187	0	stimuli\fence\fence_09s.jpg	8	-1	0	0	fence_09s.jpg	0	0	0	356.112465662474	356.162451241136	0.0499855786620174
30970	50	188	0	0	cigarette_holder	346	188	0	stimuli\cigarette_holder\cigarette_holder_03s.jpg	2	-1	0	0	cigarette_holder_03s.jpg	0	0	0	356.212465589342	356.262447754678	0.0499821653356776
31070	50	189	0	0	awning	44	189	0	stimuli\awning\awning_04s.jpg	3	-1	0	0	awning_04s.jpg	0	0	0	356.312468441902	356.362450607237	0.0499821653356776
31170	50	190	0	0	tricycle	1711	190	0	stimuli\tricycle\tricycle_02s.jpg	1	-1	0	0	tricycle_02s.jpg	0	0	0	356.412469831615	356.462452484586	0.0499826529703569
31270	50	191	0	0	pinecone	1183	191	0	stimuli\pinecone\pinecone_02s.jpg	1	-1	0	0	pinecone_02s.jpg	0	0	0	356.512478535617	356.562456556188	0.0499780205718707
31370	50	192	0	0	sweeper	1594	192	0	stimuli\sweeper\sweeper_02s.jpg	1	-1	0	0	sweeper_02s.jpg	0	0	0	356.612480169133	356.662457945902	0.049977776769083
31470	50	193	0	0	dogfood	496	193	0	stimuli\dogfood\dogfood_07s.jpg	6	-1	0	0	dogfood_07s.jpg	0	0	0	356.712479608366	356.762461773702	0.0499821653356776
31570	50	194	0	0	crank	432	194	0	stimuli\crank\crank_01b.jpg	0	-1	0	0	crank_01b.jpg	0	0	0	356.812483436195	356.862465845334	0.0499824091384653
31670	50	195	0	0	toaster_oven	1667	195	0	stimuli\toaster_oven\toaster_oven_12s.jpg	11	-1	0	0	toaster_oven_12s.jpg	0	0	0	356.912487263995	356.962466991245	0.0499797272495925
31770	50	196	0	0	fork	634	196	0	stimuli\fork\fork_04s.jpg	3	-1	0	0	fork_04s.jpg	0	0	0	357.012492310867	357.062471794285	0.049979483417701
31870	50	197	0	0	blind	140	197	0	stimuli\blind\blind_11s.jpg	10	-1	0	0	blind_11s.jpg	0	0	0	357.11249077486	357.162473183998	0.0499824091384653
31970	50	198	0	0	closet	360	198	0	stimuli\closet\closet_09s.jpg	8	-1	0	0	closet_09s.jpg	0	0	0	357.212492896011	357.262475792755	0.0499828967440408
32070	50	199	0	0	police_car	1214	199	0	stimuli\police_car\police_car_10s.jpg	9	-1	0	0	police_car_10s.jpg	0	0	0	357.312496723811	357.362475231988	0.0499785081774462
32170	50	200	0	0	calf2	242	200	0	stimuli\calf2\calf2_01b.jpg	0	-1	0	0	calf2_01b.jpg	0	0	0	357.412501283048	357.462482716946	0.0499814338982105
32270	50	201	0	0	hanger	751	201	0	stimuli\hanger\hanger_04s.jpg	3	-1	0	0	hanger_04s.jpg	0	0	0	357.512504867045	357.562485813338	0.0499809462926351
32370	50	202	0	0	battery	97	202	0	stimuli\battery\battery_01b.jpg	0	-1	0	0	battery_01b.jpg	0	0	0	357.612506012956	357.662484277331	0.0499782643746585
32470	50	203	0	0	keyboard	870	203	0	stimuli\keyboard\keyboard_11s.jpg	10	-1	0	0	keyboard_11s.jpg	0	0	0	357.712505695992	357.762486642285	0.0499809462926351
32570	50	204	0	0	llama	938	204	0	stimuli\llama\llama_03s.jpg	2	-1	0	1	llama_03s.jpg	0	0	0	357.812510011427	357.862490957719	0.0499809462926351
32670	50	205	0	0	beehive	112	205	0	stimuli\beehive\beehive_07s.jpg	6	-1	0	0	beehive_07s.jpg	0	0	0	357.912518715428	357.962494054082	0.0499753386538941
32770	50	206	0	0	mug	1036	206	0	stimuli\mug\mug_11s.jpg	10	-1	0	0	mug_11s.jpg	0	0	0	358.012512547051	358.062500076194	0.0499875291425269
32870	50	207	0	0	icepick	822	207	0	stimuli\icepick\icepick_03s.jpg	2	-1	0	0	icepick_03s.jpg	1	0.341917215468129	1	358.112521494855	358.162501953513	0.0499804586579558
32970	50	208	0	0	mantle	969	208	0	stimuli\mantle\mantle_10s.jpg	9	-1	0	0	mantle_10s.jpg	0	0	0	358.212521909329	358.262506756553	0.0499848472245503
33070	50	209	0	0	razor	1290	209	0	stimuli\razor\razor_06s.jpg	5	-1	0	0	razor_06s.jpg	0	0	0	358.31252305524	358.362505464378	0.0499824091384653
33170	50	210	0	0	dagger	469	210	0	stimuli\dagger\dagger_03s.jpg	2	-1	0	0	dagger_03s.jpg	0	0	0	358.412525907799	358.462506610289	0.0499807024898473
33270	50	211	0	0	ram	1282	211	0	stimuli\ram\ram_03s.jpg	2	-1	0	0	ram_03s.jpg	0	0	0	358.512528760388	358.562505805719	0.049977045331616
33370	50	212	0	0	corkboard	410	212	0	stimuli\corkboard\corkboard_06s.jpg	5	-1	0	0	corkboard_06s.jpg	0	0	0	358.612530150102	358.662514997326	0.0499848472245503
33470	50	213	0	0	cummerbund	459	213	0	stimuli\cummerbund\cummerbund_05s.jpg	4	-1	0	0	cummerbund_05s.jpg	0	0	0	358.712538854074	358.762517849886	0.0499789958121255
33570	50	214	0	0	pinwheel	1185	214	0	stimuli\pinwheel\pinwheel_03s.jpg	2	-1	0	0	pinwheel_03s.jpg	0	0	0	358.812544632383	358.86252021484	0.0499755824566819
33670	50	215	0	0	guitar	723	215	0	stimuli\guitar\guitar_10s.jpg	9	-1	0	0	guitar_10s.jpg	0	0	0	358.912541145895	358.962519654102	0.04997850820655
33770	50	216	0	0	emerald	555	216	0	stimuli\emerald\emerald_08n.jpg	7	-1	0	0	emerald_08n.jpg	0	0	0	359.012547167978	359.062525676185	0.04997850820655
33870	50	217	0	0	bulletproof_vest	218	217	0	stimuli\bulletproof_vest\bulletproof_vest_07s.jpg	6	-1	0	0	bulletproof_vest_07s.jpg	0	0	0	359.112547338649	359.162528284942	0.0499809462926351
33970	50	218	0	0	cheetah	315	218	0	stimuli\cheetah\cheetah_07s.jpg	6	-1	0	0	cheetah_07s.jpg	0	0	0	359.212549947406	359.262528943218	0.0499789958121255
34070	50	219	0	0	pencil_sharpener	1143	219	0	stimuli\pencil_sharpener\pencil_sharpener_11s.jpg	10	-1	0	0	pencil_sharpener_11s.jpg	0	0	0	359.312548899034	359.362536428176	0.0499875291425269
34170	50	220	0	0	wing	1827	220	0	stimuli\wing\wing_01b.jpg	0	-1	0	0	wing_01b.jpg	0	0	0	359.412553214468	359.462534648366	0.0499814338982105
34270	50	221	0	0	top_hat	1682	221	0	stimuli\top_hat\top_hat_02s.jpg	1	-1	0	0	top_hat_02s.jpg	0	0	0	359.512553872744	359.562535794277	0.0499819215328898
34370	50	222	0	0	grape	702	222	0	stimuli\grape\grape_04s.jpg	3	-1	0	0	grape_04s.jpg	0	0	0	359.61257623008	359.662543523038	0.049967292958172
34470	50	223	0	0	suspenders	1589	223	0	stimuli\suspenders\suspenders_12s.jpg	11	-1	0	0	suspenders_12s.jpg	0	0	0	359.712568598858	359.76254003655	0.049971437692875
34570	50	224	0	0	yogurt	1848	224	0	stimuli\yogurt\yogurt_08s.jpg	7	-1	0	0	yogurt_08s.jpg	0	0	0	359.81256511237	359.86254483962	0.0499797272495925
34670	50	225	0	0	saxophone	1368	225	0	stimuli\saxophone\saxophone_08s.jpg	7	-1	0	0	saxophone_08s.jpg	0	0	0	359.912568208762	359.962544522656	0.0499763138941489
34770	50	226	0	0	baton2	93	226	0	stimuli\baton2\baton2_03s.jpg	2	-1	0	0	baton2_03s.jpg	0	0	0	360.012570573715	360.06254883809	0.0499782643746585
34870	50	227	0	0	beer	113	227	0	stimuli\beer\beer_03s.jpg	2	-1	0	0	beer_03s.jpg	0	0	0	360.112577327236	360.162555835414	0.0499785081774462
34970	50	228	0	0	reindeer	1301	228	0	stimuli\reindeer\reindeer_08s.jpg	7	-1	0	0	reindeer_08s.jpg	0	0	0	360.212576035032	360.262558688002	0.0499826529703569
35070	50	229	0	0	mulberry	1037	229	0	stimuli\mulberry\mulberry_08s.jpg	7	-1	0	0	mulberry_08s.jpg	0	0	0	360.312580350466	360.362561296759	0.0499809462926351
35170	50	230	0	0	home_plate	787	230	0	stimuli\home_plate\home_plate_07s.jpg	6	-1	0	0	home_plate_07s.jpg	0	0	0	360.412583203026	360.462557810271	0.0499746072455309
35270	50	231	0	0	worm	1836	231	0	stimuli\worm\worm_01b.jpg	0	-1	0	0	worm_01b.jpg	0	0	0	360.512582642259	360.562583580933	0.0500009386742022
35370	50	232	0	0	truck	1720	232	0	stimuli\truck\truck_10s.jpg	9	-1	0	0	truck_10s.jpg	0	0	0	360.612586226285	360.662568147789	0.049981921503786
35470	50	233	0	0	hay	761	233	0	stimuli\hay\hay_01b.jpg	0	-1	0	0	hay_01b.jpg	0	0	0	360.712585665518	360.762567343219	0.0499816777009983
35570	50	234	0	0	eyepiece	568	234	0	stimuli\eyepiece\eyepiece_05s.jpg	4	-1	0	0	eyepiece_05s.jpg	0	0	0	360.812590956164	360.862574340572	0.0499833844078239
35670	50	235	0	0	reel	1299	235	0	stimuli\reel\reel_05s.jpg	4	-1	0	0	reel_05s.jpg	0	0	0	360.912595271599	360.962573779805	0.04997850820655
35770	50	236	0	0	stopwatch	1562	236	0	stimuli\stopwatch\stopwatch_03s.jpg	2	-1	0	0	stopwatch_03s.jpg	0	0	0	361.012594954664	361.062577607605	0.049982652941253
35870	50	237	0	0	windowsill	1819	237	0	stimuli\windowsill\windowsill_07s.jpg	6	-1	0	0	windowsill_07s.jpg	0	0	0	361.112597075786	361.162581923039	0.0499848472536542
35970	50	238	0	0	candy	255	238	0	stimuli\candy\candy_05s.jpg	4	-1	0	0	candy_05s.jpg	0	0	0	361.212604804547	361.262582825118	0.0499780205718707
36070	50	239	0	0	juice	854	239	0	stimuli\juice\juice_06s.jpg	5	-1	0	0	juice_06s.jpg	0	0	0	361.312610339024	361.362592016754	0.0499816777301021
36170	50	240	0	0	knitting_needle	881	240	0	stimuli\knitting_needle\knitting_needle_09s.jpg	8	-1	0	0	knitting_needle_09s.jpg	0	0	0	361.412610265892	361.462588774069	0.0499785081774462
36270	50	241	0	0	lectern	908	241	0	stimuli\lectern\lectern_10s.jpg	9	-1	0	0	lectern_10s.jpg	0	0	0	361.512607754645	361.562566758075	0.0499590034305584
36370	50	242	0	0	sewing_machine	1407	242	0	stimuli\sewing_machine\sewing_machine_04s.jpg	3	-1	0	0	sewing_machine_04s.jpg	0	0	0	361.612614264362	361.662593991612	0.0499797272495925
36470	50	243	0	0	stomach	1560	243	0	stimuli\stomach\stomach_08s.jpg	7	-1	0	0	stomach_08s.jpg	0	0	0	361.7126188236	361.762595625129	0.0499768015288282
36570	50	244	0	0	valve	1751	244	0	stimuli\valve\valve_08s.jpg	7	-1	0	0	valve_08s.jpg	0	0	0	361.812618262833	361.862602378649	0.0499841158161871
36670	50	245	0	0	lens	916	245	0	stimuli\lens\lens_03s.jpg	2	-1	0	0	lens_03s.jpg	0	0	0	361.91262087159	361.962603036925	0.0499821653356776
36770	50	246	0	0	dessert	481	246	0	stimuli\dessert\dessert_04s.jpg	3	-1	0	0	dessert_04s.jpg	0	0	0	362.012623724178	362.062574925687	0.0499512015085202
36870	50	247	0	0	coat_rack	370	247	0	stimuli\coat_rack\coat_rack_08s.jpg	7	-1	0	0	coat_rack_08s.jpg	0	0	0	362.112627308175	362.162606791593	0.049979483417701
36970	50	248	0	0	telephone_pole	1639	248	0	stimuli\telephone_pole\telephone_pole_07s.jpg	6	-1	0	0	telephone_pole_07s.jpg	0	0	0	362.212632355018	362.262609887985	0.0499775329662953
37070	50	249	0	0	splinter	1516	249	0	stimuli\splinter\splinter_08s.jpg	7	-1	0	0	splinter_08s.jpg	0	0	0	362.312630087603	362.362613228179	0.0499831405759323
37170	50	250	0	0	hamburger	740	250	0	stimuli\hamburger\hamburger_01s.jpg	0	-1	0	0	hamburger_01s.jpg	0	0	0	362.412637328729	362.462614617893	0.0499772891635075
37270	50	251	0	0	outfit	1087	251	0	stimuli\outfit\outfit_05s.jpg	4	-1	0	0	outfit_05s.jpg	0	0	0	362.512637743232	362.562616739044	0.0499789958121255
37370	50	252	0	0	treasure	1707	252	0	stimuli\treasure\treasure_04s.jpg	3	-1	0	0	treasure_04s.jpg	0	0	0	362.612638889113	362.662620079209	0.0499811900954228
37470	50	253	0	0	thimble	1649	253	0	stimuli\thimble\thimble_09n.jpg	8	-1	0	0	thimble_09n.jpg	0	0	0	362.712642229308	362.762621712754	0.0499794834468048
37570	50	254	0	0	rat	1285	254	0	stimuli\rat\rat_06s.jpg	5	-1	0	0	rat_06s.jpg	0	0	0	362.812667756167	362.862632123404	0.0499643672374077
37670	50	255	0	0	vial	1760	255	0	stimuli\vial\vial_05s.jpg	4	-1	0	0	vial_05s.jpg	0	0	0	362.912650372542	362.962625711225	0.049975338682998
37770	50	256	0	0	wetsuit	1803	256	0	stimuli\wetsuit\wetsuit_04s.jpg	3	-1	0	0	wetsuit_04s.jpg	0	0	0	363.01265224989	363.062633196183	0.0499809462926351
37870	50	257	0	0	extinguisher	563	257	0	stimuli\extinguisher\extinguisher_03s.jpg	2	-1	0	0	extinguisher_03s.jpg	0	0	0	363.112652176729	363.162634098262	0.0499819215328898
37970	50	258	0	0	tent	1643	258	0	stimuli\tent\tent_03s.jpg	2	-1	0	0	tent_03s.jpg	0	0	0	363.212657955039	363.262636707019	0.0499787519802339
38070	50	259	0	0	iron	832	259	0	stimuli\iron\iron_03s.jpg	2	-1	0	0	iron_03s.jpg	0	0	0	363.312659344752	363.362641022453	0.0499816777009983
38170	50	260	0	0	slime	1465	260	0	stimuli\slime\slime_11s.jpg	10	-1	0	1	slime_11s.jpg	0	0	0	363.412662928749	363.46264460645	0.0499816777009983
38270	50	261	0	0	cake_mix	238	261	0	stimuli\cake_mix\cake_mix_04s.jpg	3	-1	0	0	cake_mix_04s.jpg	0	0	0	363.512662855588	363.562645020924	0.0499821653356776
38370	50	262	0	0	bobsled	155	262	0	stimuli\bobsled\bobsled_04s.jpg	3	-1	0	0	bobsled_04s.jpg	0	0	0	363.612664245302	363.662647629681	0.0499833843787201
38470	50	263	0	0	grits	717	263	0	stimuli\grits\grits_11s.jpg	10	-1	0	0	grits_11s.jpg	1	0.292213480570354	1	363.71267173026	363.762649750832	0.0499780205718707
38570	50	264	0	0	memory_stick	995	264	0	stimuli\memory_stick\memory_stick_10s.jpg	9	-1	0	0	memory_stick_10s.jpg	0	0	0	363.812675070454	363.862651871983	0.0499768015288282
38670	50	265	0	0	polygraph	1217	265	0	stimuli\polygraph\polygraph_02s.jpg	1	-1	0	0	polygraph_02s.jpg	0	0	0	363.912672071601	363.962638876925	0.0499668053234927
38770	50	266	0	0	folder	625	266	0	stimuli\folder\folder_11s.jpg	10	-1	0	0	folder_11s.jpg	0	0	0	364.01266541559	364.062637340918	0.0499719253275543
38870	50	267	0	0	egg_roll	547	267	0	stimuli\egg_roll\egg_roll_06s.jpg	5	-1	0	0	egg_roll_06s.jpg	0	0	0	364.11265510245	364.162649458274	0.0499943558243103
38970	50	268	0	0	petri_dish	1159	268	0	stimuli\petri_dish\petri_dish_07s.jpg	6	-1	0	0	petri_dish_07s.jpg	0	0	0	364.212671364541	364.262638169894	0.0499668053525966
39070	50	269	0	0	chicken2	323	269	0	stimuli\chicken2\chicken2_07s.jpg	6	-1	0	0	chicken2_07s.jpg	0	0	0	364.31267324189	364.362654675788	0.0499814338982105
39170	50	270	0	0	ostrich	1084	270	0	stimuli\ostrich\ostrich_04s.jpg	3	-1	0	0	ostrich_04s.jpg	0	0	0	364.412676338252	364.462657040742	0.0499807024898473
39270	50	271	0	0	flamingo	608	271	0	stimuli\flamingo\flamingo_12s.jpg	11	-1	0	0	flamingo_12s.jpg	0	0	0	364.5126782156	364.562661112344	0.0499828967440408
39370	50	272	0	0	air_mattress	5	272	0	stimuli\air_mattress\air_mattress_06s.jpg	5	-1	0	0	air_mattress_06s.jpg	0	0	0	364.612683262443	364.66266274589	0.0499794834468048
39470	50	273	0	0	barrette	77	273	0	stimuli\barrette\barrette_08s.jpg	7	-1	0	0	barrette_08s.jpg	0	0	0	364.712685139792	364.762667061295	0.049981921503786
39570	50	274	0	0	aircraft_carrier	9	274	0	stimuli\aircraft_carrier\aircraft_carrier_05s.jpg	4	-1	0	0	aircraft_carrier_05s.jpg	0	0	0	364.812687260914	364.862672595773	0.0499853348592296
39670	50	275	0	0	wind_chimes	1817	275	0	stimuli\wind_chimes\wind_chimes_08s.jpg	7	-1	0	0	wind_chimes_08s.jpg	0	0	0	364.912677923014	364.96267057216	0.0499926491465885
39770	50	276	0	0	thermos	1647	276	0	stimuli\thermos\thermos_09s.jpg	8	-1	0	0	thermos_09s.jpg	0	0	0	365.012680775602	365.062673912355	0.049993136752164
39870	50	277	0	0	goggles	686	277	0	stimuli\goggles\goggles_07s.jpg	6	-1	0	0	goggles_07s.jpg	0	0	0	365.112697281496	365.162679690635	0.0499824091384653
39970	50	278	0	0	earplug	539	278	0	stimuli\earplug\earplug_01b.jpg	0	-1	0	0	earplug_01b.jpg	0	0	0	365.212687943596	365.262682787026	0.0499948434298858
40070	50	279	0	0	string_cheese	1573	279	0	stimuli\string_cheese\string_cheese_04s.jpg	3	-1	0	0	string_cheese_04s.jpg	0	0	0	365.312703718053	365.362682957697	0.0499792396440171
40170	50	280	0	0	tomato	1672	280	0	stimuli\tomato\tomato_11s.jpg	10	-1	0	0	tomato_11s.jpg	0	0	0	365.412704620161	365.462683128368	0.04997850820655
40270	50	281	0	0	candlestick	254	281	0	stimuli\candlestick\candlestick_03s.jpg	2	-1	0	0	candlestick_03s.jpg	0	0	0	365.512705766072	365.562675984722	0.0499702186498325
40370	50	282	0	0	cello	292	282	0	stimuli\cello\cello_02s.jpg	1	-1	0	0	cello_02s.jpg	0	0	0	365.612709837675	365.662693953491	0.0499841158161871
40470	50	283	0	0	mixer	1009	283	0	stimuli\mixer\mixer_05s.jpg	4	-1	0	0	mixer_05s.jpg	0	0	0	365.712714396912	365.762679983221	0.0499655863095541
40570	50	284	0	0	bat1	87	284	0	stimuli\bat1\bat1_06s.jpg	5	-1	0	0	bat1_06s.jpg	0	0	0	365.81271432378	365.862697708159	0.0499833843787201
40670	50	285	0	0	sponge	1517	285	0	stimuli\sponge\sponge_06s.jpg	5	-1	0	0	sponge_06s.jpg	0	0	0	365.912718395412	365.96269982931	0.0499814338982105
40770	50	286	0	0	fire_pit	593	286	0	stimuli\fire_pit\fire_pit_09s.jpg	8	-1	0	0	fire_pit_09s.jpg	0	0	0	366.012720760336	366.062689272367	0.0499685120303184
40870	50	287	0	0	tuba	1723	287	0	stimuli\tuba\tuba_09s.jpg	8	-1	0	0	tuba_09s.jpg	0	0	0	366.112721174839	366.162704559218	0.0499833843787201
40970	50	288	0	0	spider	1513	288	0	stimuli\spider\spider_03s.jpg	2	-1	0	0	spider_03s.jpg	0	0	0	366.212725734076	366.262707411777	0.0499816777009983
41070	50	289	0	0	school_bus	1378	289	0	stimuli\school_bus\school_bus_12s.jpg	11	-1	0	0	school_bus_12s.jpg	0	0	0	366.312729318073	366.362707826251	0.0499785081774462
41170	50	290	0	0	blazer	137	290	0	stimuli\blazer\blazer_06s.jpg	5	-1	0	0	blazer_06s.jpg	0	0	0	366.412718273496	366.462701657874	0.0499833843787201
41270	50	291	0	0	parachute	1118	291	0	stimuli\parachute\parachute_03s.jpg	2	-1	0	0	parachute_03s.jpg	0	0	0	366.512733072741	366.562714262836	0.0499811900954228
41370	50	292	0	0	tack	1611	292	0	stimuli\tack\tack_05s.jpg	4	-1	0	0	tack_05s.jpg	0	0	0	366.612736169103	366.662718090636	0.0499819215328898
41470	50	293	0	0	juicer1	855	293	0	stimuli\juicer1\juicer1_03s.jpg	2	-1	0	0	juicer1_03s.jpg	0	0	0	366.712740484538	366.762708265102	0.0499677805637475
41570	50	294	0	0	rug	1340	294	0	stimuli\rug\rug_02s.jpg	1	-1	0	0	rug_02s.jpg	0	0	0	366.812740411406	366.862714531017	0.0499741196108516
41670	50	295	0	0	sea_urchin	1393	295	0	stimuli\sea_urchin\sea_urchin_12s.jpg	11	-1	0	0	sea_urchin_12s.jpg	0	0	0	366.912743995403	366.962725185498	0.0499811900954228
41770	50	296	0	0	seismograph	1403	296	0	stimuli\seismograph\seismograph_05s.jpg	4	-1	0	0	seismograph_05s.jpg	0	0	0	367.012748310837	367.062728038058	0.0499797272204887
41870	50	297	0	0	tab	1607	297	0	stimuli\tab\tab_02s.jpg	1	-1	0	0	tab_02s.jpg	0	0	0	367.112748969113	367.162717237312	0.0499682681984268
41970	50	298	0	0	jewelry	850	298	0	stimuli\jewelry\jewelry_11s.jpg	10	-1	0	0	jewelry_11s.jpg	0	0	0	367.212753772154	367.262721308914	0.0499675367609598
42070	50	299	0	0	bell	116	299	0	stimuli\bell\bell_08s.jpg	7	-1	0	0	bell_08s.jpg	0	0	0	367.312756868545	367.362724405306	0.0499675367609598
42170	50	300	0	0	clock	359	300	0	stimuli\clock\clock_09n.jpg	8	-1	0	0	clock_09n.jpg	0	0	0	367.412759721105	367.462737254071	0.0499775329662953
42270	50	301	0	0	clarinet	350	301	0	stimuli\clarinet\clarinet_10s.jpg	9	-1	0	0	clarinet_10s.jpg	0	0	0	367.512759404141	367.562740350433	0.0499809462926351
42370	50	302	0	0	chinaware	331	302	0	stimuli\chinaware\chinaware_09s.jpg	8	-1	0	0	chinaware_09s.jpg	0	0	0	367.612763475772	367.662741983979	0.04997850820655
42470	50	303	0	0	wallpaper	1777	303	0	stimuli\wallpaper\wallpaper_04s.jpg	3	-1	0	0	wallpaper_04s.jpg	0	0	0	367.712767547404	367.762736059405	0.0499685120012145
42570	50	304	0	0	rollerskate	1327	304	0	stimuli\rollerskate\rollerskate_03s.jpg	2	-1	0	0	rollerskate_03s.jpg	0	0	0	367.812766986637	367.862752809102	0.0499858224648051
42670	50	305	0	0	jumpsuit	859	305	0	stimuli\jumpsuit\jumpsuit_01b.jpg	0	-1	0	0	jumpsuit_01b.jpg	0	0	0	367.912772521115	367.962739570241	0.0499670491262805
42770	50	306	0	0	pool_table	1222	306	0	stimuli\pool_table\pool_table_01s.jpg	0	-1	0	0	pool_table_01s.jpg	0	0	0	368.012773423194	368.062756076164	0.0499826529703569
42870	50	307	0	0	crane	431	307	0	stimuli\crane\crane_04s.jpg	3	-1	0	0	crane_04s.jpg	0	0	0	368.112774569105	368.16276136681	0.0499867977050599
42970	50	308	0	0	can_opener	251	308	0	stimuli\can_opener\can_opener_08s.jpg	7	-1	0	0	can_opener_08s.jpg	0	0	0	368.212766937882	368.262749834626	0.0499828967440408
54487	50	309	0	0	clam	349	0	1	stimuli\clam\clam_12s.jpg	11	-1	1	0	clam_12s.jpg	0	0	0	379.729769358644	379.779749817331	0.0499804586870596
54587	50	310	0	0	fishbowl	601	1	1	stimuli\fishbowl\fishbowl_03s.jpg	2	-1	1	0	fishbowl_03s.jpg	0	0	0	379.829770260752	379.879753645131	0.0499833843787201
54687	50	311	0	0	taco	1613	2	1	stimuli\taco\taco_08s.jpg	7	-1	1	0	taco_08s.jpg	0	0	0	379.929775063792	379.979754791042	0.0499797272495925
54787	50	312	0	0	belt	118	3	1	stimuli\belt\belt_12s.jpg	11	-1	1	0	belt_12s.jpg	0	0	0	380.029777428746	380.079756180756	0.0499787520093378
54887	50	313	0	0	ratchet	1286	4	1	stimuli\ratchet\ratchet_03s.jpg	2	-1	1	0	ratchet_03s.jpg	0	0	0	380.1297797937	380.179757814272	0.0499780205718707
54987	50	314	0	0	mouse2	1027	5	1	stimuli\mouse2\mouse2_08s.jpg	7	-1	1	0	mouse2_08s.jpg	0	0	0	380.229780208174	380.279762861115	0.049982652941253
55087	50	315	0	0	rust	1342	6	1	stimuli\rust\rust_09s.jpg	8	-1	1	0	rust_09s.jpg	0	0	0	380.329786230257	380.379765713704	0.0499794834468048
55187	50	316	0	0	palm_tree	1102	7	1	stimuli\palm_tree\palm_tree_12s.jpg	11	-1	1	0	palm_tree_12s.jpg	0	0	0	380.429787619971	380.479770760547	0.0499831405759323
55287	50	317	0	0	lemonade	915	8	1	stimuli\lemonade\lemonade_06s.jpg	5	-1	1	0	lemonade_06s.jpg	0	0	0	380.529789984925	380.579773125501	0.0499831405759323
55387	50	318	0	0	sling	1466	9	1	stimuli\sling\sling_02s.jpg	1	-1	1	0	sling_02s.jpg	0	0	0	380.62979161847	380.679765494278	0.0499738758080639
55487	50	319	0	0	tape_recorder	1624	10	1	stimuli\tape_recorder\tape_recorder_03s.jpg	2	-1	1	0	tape_recorder_03s.jpg	0	0	0	380.729773259605	380.779773466842	0.0500002072367352
55587	50	320	0	0	barcode	73	11	1	stimuli\barcode\barcode_10s.jpg	9	-1	1	0	barcode_10s.jpg	0	0	0	380.829786595976	380.879753888934	0.049967292958172
55687	50	321	0	0	webcam	1799	12	1	stimuli\webcam\webcam_09s.jpg	8	-1	1	0	webcam_09s.jpg	0	0	0	380.929790423805	380.979757960566	0.0499675367609598
55787	50	322	0	0	nail_clippers	1047	13	1	stimuli\nail_clippers\nail_clippers_09s.jpg	8	-1	1	0	nail_clippers_09s.jpg	0	0	0	381.029790594446	381.079758618842	0.0499680243956391
55887	50	323	0	0	shower	1433	14	1	stimuli\shower\shower_02s.jpg	1	-1	1	0	shower_02s.jpg	0	0	0	381.129795397515	381.17977268665	0.0499772891344037
55987	50	324	0	0	drumstick	523	15	1	stimuli\drumstick\drumstick_07s.jpg	6	-1	1	0	drumstick_07s.jpg	0	0	0	381.229798493878	381.279765786836	0.049967292958172
56087	50	325	0	0	celery	291	16	1	stimuli\celery\celery_05s.jpg	4	-1	1	0	celery_05s.jpg	0	0	0	381.329789643612	381.37977668512	0.0499870415078476
56187	50	326	0	0	ankle	22	17	1	stimuli\ankle\ankle_03s.jpg	2	-1	1	0	ankle_03s.jpg	0	0	0	381.429803467588	381.479780512949	0.0499770453607198
56287	50	327	0	0	faucet	573	18	1	stimuli\faucet\faucet_02s.jpg	1	-1	1	0	faucet_02s.jpg	0	0	0	381.529806076374	381.579785315989	0.0499792396149132
56387	50	328	0	0	strawberry	1570	19	1	stimuli\strawberry\strawberry_09n.jpg	8	-1	1	0	strawberry_09n.jpg	0	0	0	381.629809904174	381.679787680943	0.049977776769083
56487	50	329	0	0	air_pump	6	20	1	stimuli\air_pump\air_pump_01s.jpg	0	-1	1	0	air_pump_01s.jpg	0	0	0	381.729783987219	381.779790777306	0.050006790086627
56587	50	330	0	0	pitchfork	1191	21	1	stimuli\pitchfork\pitchfork_09s.jpg	8	-1	1	0	pitchfork_09s.jpg	0	0	0	381.829814146447	381.879782902281	0.0499687558331061
56687	50	331	0	0	cobra	371	22	1	stimuli\cobra\cobra_05s.jpg	4	-1	1	0	cobra_05s.jpg	0	0	0	381.929816755204	381.979795507214	0.0499787520093378
56787	50	332	0	0	rack2	1269	23	1	stimuli\rack2\rack2_05s.jpg	4	-1	1	0	rack2_05s.jpg	0	0	0	382.029818632553	382.079786900751	0.0499682681984268
56887	50	333	0	0	saddle	1343	24	1	stimuli\saddle\saddle_08s.jpg	7	-1	1	0	saddle_08s.jpg	0	0	0	382.129822460352	382.179803650448	0.0499811900954228
56987	50	334	0	0	orange_rind	1079	25	1	stimuli\orange_rind\orange_rind_02s.jpg	1	-1	1	0	orange_rind_02s.jpg	0	0	0	382.229827263422	382.279790167784	0.0499629043624736
57087	50	335	0	0	applesauce	32	26	1	stimuli\applesauce\applesauce_04s.jpg	3	-1	1	0	applesauce_04s.jpg	0	0	0	382.329828653135	382.379792532738	0.0499638796027284
57187	50	336	0	0	sunroof	1586	27	1	stimuli\sunroof\sunroof_06s.jpg	5	-1	1	0	sunroof_06s.jpg	0	0	0	382.42983101806	382.479797823413	0.0499668053525966
57287	50	337	0	0	earwig	541	28	1	stimuli\earwig\earwig_07n.jpg	6	-1	1	0	earwig_07n.jpg	0	0	0	382.5298226554	382.579810672178	0.0499880167772062
57387	50	338	0	0	oilcan	1073	29	1	stimuli\oilcan\oilcan_04s.jpg	3	-1	1	0	oilcan_04s.jpg	0	0	0	382.629836723208	382.679802065686	0.0499653424776625
57487	50	339	0	0	bed	108	30	1	stimuli\bed\bed_04s.jpg	3	-1	1	0	bed_04s.jpg	0	0	0	382.729827385308	382.779806137318	0.0499787520093378
57587	50	340	0	0	wig	1816	31	1	stimuli\wig\wig_05s.jpg	4	-1	1	0	wig_05s.jpg	0	0	0	382.829830237897	382.879811671795	0.0499814338982105
57687	50	341	0	0	game	654	32	1	stimuli\game\game_12s.jpg	11	-1	1	0	game_12s.jpg	0	0	0	382.929832846654	382.979818181513	0.0499853348592296
57787	50	342	0	0	bouquet	173	33	1	stimuli\bouquet\bouquet_06s.jpg	5	-1	1	0	bouquet_06s.jpg	0	0	0	383.029837649694	383.079812988348	0.0499753386538941
57887	50	343	0	0	swan	1591	34	1	stimuli\swan\swan_01b.jpg	0	-1	1	0	swan_01b.jpg	0	0	0	383.129840989888	383.179814865696	0.0499738758080639
57987	50	344	0	0	stereo	1549	35	1	stimuli\stereo\stereo_09s.jpg	8	-1	1	0	stereo_09s.jpg	0	0	0	383.229841160559	383.279818693496	0.0499775329371914
58087	50	345	0	0	violin	1764	36	1	stimuli\violin\violin_11s.jpg	10	-1	1	1	violin_11s.jpg	0	0	0	383.32984133123	383.379820814647	0.049979483417701
58187	50	346	0	0	hip	780	37	1	stimuli\hip\hip_10s.jpg	9	-1	1	0	hip_10s.jpg	0	0	0	383.429845159029	383.479824886279	0.0499797272495925
58287	50	347	0	0	chalk	302	38	1	stimuli\chalk\chalk_01b.jpg	0	-1	1	0	chalk_01b.jpg	0	0	0	383.529852400156	383.579827495036	0.0499750948802102
58387	50	348	0	0	puffin	1248	39	1	stimuli\puffin\puffin_01b.jpg	0	-1	1	0	puffin_01b.jpg	1	0.300189220521133	1	383.629852814629	383.679829128552	0.0499763139232527
58487	50	349	0	0	lawnmower	905	40	1	stimuli\lawnmower\lawnmower_09s.jpg	8	-1	1	0	lawnmower_09s.jpg	0	0	0	383.729855423415	383.779832224944	0.0499768015288282
58587	50	350	0	0	calzone	243	41	1	stimuli\calzone\calzone_05s.jpg	4	-1	1	0	calzone_05s.jpg	0	0	0	383.829856325494	383.879835808941	0.0499794834468048
58687	50	351	0	0	fishing_pole	603	42	1	stimuli\fishing_pole\fishing_pole_01b.jpg	0	-1	1	0	fishing_pole_01b.jpg	0	0	0	383.929859178083	383.979839880543	0.0499807024607435
58787	50	352	0	0	comic_book	391	43	1	stimuli\comic_book\comic_book_03s.jpg	2	-1	1	0	comic_book_03s.jpg	0	0	0	384.029864224925	384.079841026454	0.0499768015288282
58887	50	353	0	0	cornbread	413	44	1	stimuli\cornbread\cornbread_03s.jpg	2	-1	1	0	cornbread_03s.jpg	0	0	0	384.129865127034	384.179842903774	0.0499777767399792
58987	50	354	0	0	wagon	1772	45	1	stimuli\wagon\wagon_01b.jpg	0	-1	1	0	wagon_01b.jpg	0	0	0	384.229868223396	384.279844049684	0.0499758262885734
59087	50	355	0	0	cocoon	376	46	1	stimuli\cocoon\cocoon_11s.jpg	10	-1	1	0	cocoon_11s.jpg	0	0	0	384.329869125504	384.379854460363	0.0499853348592296
59187	50	356	0	0	plunger	1204	47	1	stimuli\plunger\plunger_03s.jpg	2	-1	1	0	plunger_03s.jpg	0	0	0	384.429872953304	384.479852924356	0.0499799710523803
59287	50	357	0	0	filing_cabinet	585	48	1	stimuli\filing_cabinet\filing_cabinet_08s.jpg	7	-1	1	0	filing_cabinet_08s.jpg	0	0	0	384.529876293498	384.579854801676	0.0499785081774462
59387	50	358	0	0	mouth	1031	49	1	stimuli\mouth\mouth_12s.jpg	11	-1	1	0	mouth_12s.jpg	0	0	0	384.629878170817	384.679858629504	0.0499804586870596
59487	50	359	0	0	dog	495	50	1	stimuli\dog\dog_05s.jpg	4	-1	1	0	dog_05s.jpg	0	0	0	384.729881023406	384.779864163982	0.0499831405759323
59587	50	360	0	0	hotplate	806	51	1	stimuli\hotplate\hotplate_04s.jpg	3	-1	1	0	hotplate_04s.jpg	0	0	0	384.8298843636	384.879862627975	0.0499782643746585
59687	50	361	0	0	polar_bear	1211	52	1	stimuli\polar_bear\polar_bear_11s.jpg	10	-1	1	0	polar_bear_11s.jpg	0	0	0	384.929885753314	384.979865724366	0.0499799710523803
59787	50	362	0	0	rosary	1333	53	1	stimuli\rosary\rosary_01b.jpg	0	-1	1	0	rosary_01b.jpg	0	0	0	385.029888605874	385.079869795969	0.0499811900954228
59887	50	363	0	0	shaker	1408	54	1	stimuli\shaker\shaker_10s.jpg	9	-1	1	0	shaker_10s.jpg	0	0	0	385.129891946068	385.179871673317	0.0499797272495925
59987	50	364	0	0	bowler_hat	178	55	1	stimuli\bowler_hat\bowler_hat_01b.jpg	0	-1	1	0	bowler_hat_01b.jpg	0	0	0	385.229895773868	385.279874038271	0.0499782644037623
60087	50	365	0	0	arm	36	56	1	stimuli\arm\arm_03s.jpg	2	-1	1	0	arm_03s.jpg	0	0	0	385.329897163581	385.379877866071	0.0499807024898473
60187	50	366	0	0	blowfish	146	57	1	stimuli\blowfish\blowfish_03s.jpg	2	-1	1	0	blowfish_03s.jpg	0	0	0	385.429900259973	385.479880231025	0.0499799710523803
60287	50	367	0	0	toaster	1666	58	1	stimuli\toaster\toaster_06s.jpg	5	-1	1	0	toaster_06s.jpg	0	0	0	385.529902137292	385.579885765503	0.0499836282106116
60387	50	368	0	0	granola	701	59	1	stimuli\granola\granola_09s.jpg	8	-1	1	0	granola_09s.jpg	0	0	0	385.629906940361	385.679884960933	0.0499780205718707
60487	50	369	0	0	hood	791	60	1	stimuli\hood\hood_12s.jpg	11	-1	1	0	hood_12s.jpg	0	0	0	385.729908086243	385.779887082055	0.0499789958121255
60587	50	370	0	0	ukulele	1742	61	1	stimuli\ukulele\ukulele_03s.jpg	2	-1	1	0	ukulele_03s.jpg	0	0	0	385.82991167024	385.879889934644	0.0499782644037623
60687	50	371	0	0	chime	328	62	1	stimuli\chime\chime_06s.jpg	5	-1	1	0	chime_06s.jpg	0	0	0	385.929913791391	385.979891080555	0.0499772891635075
60787	50	372	0	0	saltshaker	1350	63	1	stimuli\saltshaker\saltshaker_07s.jpg	6	-1	1	0	saltshaker_07s.jpg	0	0	0	386.029917131586	386.079893933114	0.0499768015288282
60887	50	373	0	0	firecracker	594	64	1	stimuli\firecracker\firecracker_11s.jpg	10	-1	1	0	firecracker_11s.jpg	0	0	0	386.129917058453	386.179897273309	0.049980214855168
60987	50	374	0	0	pan	1103	65	1	stimuli\pan\pan_03s.jpg	2	-1	1	1	pan_03s.jpg	0	0	0	386.229921617691	386.279899882065	0.0499782643746585
61087	50	375	0	0	duster	534	66	1	stimuli\duster\duster_08s.jpg	7	-1	1	0	duster_08s.jpg	0	0	0	386.329924714053	386.379904441303	0.0499797272495925
61187	50	376	0	0	wok	1830	67	1	stimuli\wok\wok_02s.jpg	1	-1	1	0	wok_02s.jpg	0	0	0	386.429926103767	386.479904611973	0.04997850820655
61287	50	377	0	0	nail_polish	1049	68	1	stimuli\nail_polish\nail_polish_05s.jpg	4	-1	1	0	nail_polish_05s.jpg	1	0.341907463065581	1	386.529929200158	386.579907708336	0.0499785081774462
61387	50	378	0	0	banana	63	69	1	stimuli\banana\banana_02s.jpg	1	-1	1	0	banana_02s.jpg	0	0	0	386.629931808915	386.67991007329	0.0499782643746585
61487	50	379	0	0	gopher	694	70	1	stimuli\gopher\gopher_04s.jpg	3	-1	1	0	gopher_04s.jpg	0	0	0	386.729937343393	386.779916339205	0.0499789958121255
61587	50	380	0	0	tambourine	1619	71	1	stimuli\tambourine\tambourine_12s.jpg	11	-1	1	0	tambourine_12s.jpg	0	0	0	386.82995799405	386.879916997481	0.0499590034305584
61687	50	381	0	0	gazelle	666	72	1	stimuli\gazelle\gazelle_07s.jpg	6	-1	1	0	gazelle_07s.jpg	0	0	0	386.929942560906	386.97991985007	0.0499772891635075
61787	50	382	0	0	doll	499	73	1	stimuli\doll\doll_11s.jpg	10	-1	1	0	doll_11s.jpg	0	0	0	387.0299459011	387.079922946432	0.049977045331616
61887	50	383	0	0	buckle	210	74	1	stimuli\buckle\buckle_08s.jpg	7	-1	1	0	buckle_08s.jpg	0	0	0	387.129946803208	387.17992189806	0.0499750948511064
61987	50	384	0	0	spear	1510	75	1	stimuli\spear\spear_01s.jpg	0	-1	1	0	spear_01s.jpg	0	0	0	387.229948192922	387.2799267011	0.0499785081774462
62087	50	385	0	0	ashtray	41	76	1	stimuli\ashtray\ashtray_02s.jpg	1	-1	1	0	ashtray_02s.jpg	0	0	0	387.329951289285	387.379928090813	0.0499768015288282
62187	50	386	0	0	trunk	1722	77	1	stimuli\trunk\trunk_07s.jpg	6	-1	1	0	trunk_07s.jpg	0	0	0	387.429956336156	387.479932406248	0.0499760700913612
62287	50	387	0	0	candy_bar	256	78	1	stimuli\candy_bar\candy_bar_07s.jpg	6	-1	1	0	candy_bar_07s.jpg	0	0	0	387.529956019192	387.579933795962	0.049977776769083
62387	50	388	0	0	uniform	1747	79	1	stimuli\uniform\uniform_01b.jpg	0	-1	1	0	uniform_01b.jpg	0	0	0	387.629960334627	387.679937136156	0.0499768015288282
62487	50	389	0	0	beetle	115	80	1	stimuli\beetle\beetle_06s.jpg	5	-1	1	0	beetle_06s.jpg	0	0	0	387.729962943384	387.779941207787	0.0499782644037623
62587	50	390	0	0	slug	1472	81	1	stimuli\slug\slug_01s.jpg	0	-1	1	0	slug_01s.jpg	0	0	0	387.829965795972	387.879942353669	0.0499765576969367
62687	50	391	0	0	rearview_mirror	1293	82	1	stimuli\rearview_mirror\rearview_mirror_08s.jpg	7	-1	1	0	rearview_mirror_08s.jpg	0	0	0	387.929967429489	387.979946912907	0.049979483417701
62787	50	392	0	0	hammock	742	83	1	stimuli\hammock\hammock_08s.jpg	7	-1	1	0	hammock_08s.jpg	0	0	0	388.029971744923	388.07994830262	0.0499765576969367
62887	50	393	0	0	trophy	1717	84	1	stimuli\trophy\trophy_01b.jpg	0	-1	1	0	trophy_01b.jpg	0	0	0	388.129973134637	388.179950179969	0.049977045331616
62987	50	394	0	0	turf	1732	85	1	stimuli\turf\turf_04s.jpg	3	-1	1	0	turf_04s.jpg	0	0	0	388.229976230999	388.279955226812	0.0499789958121255
63087	50	395	0	0	possum	1228	86	1	stimuli\possum\possum_07s.jpg	6	-1	1	0	possum_07s.jpg	0	0	0	388.329979083588	388.379958567006	0.049979483417701
63187	50	396	0	0	stirrup	1558	87	1	stimuli\stirrup\stirrup_11s.jpg	10	-1	1	0	stirrup_11s.jpg	0	0	0	388.429983155191	388.4799619072	0.0499787520093378
63287	50	397	0	0	checkbook	310	88	1	stimuli\checkbook\checkbook_01b.jpg	0	-1	1	0	checkbook_01b.jpg	0	0	0	388.529984544904	388.57996110263	0.0499765577260405
63387	50	398	0	0	seaweed	1400	89	1	stimuli\seaweed\seaweed_05s.jpg	4	-1	1	0	seaweed_05s.jpg	0	0	0	388.629990810819	388.679964199022	0.0499733882024884
63487	50	399	0	0	corset	418	90	1	stimuli\corset\corset_03s.jpg	2	-1	1	0	corset_03s.jpg	0	0	0	388.729988299572	388.779967539187	0.0499792396149132
63587	50	400	0	0	pocket	1205	91	1	stimuli\pocket\pocket_11s.jpg	10	-1	1	0	pocket_11s.jpg	0	0	0	388.829991883569	388.879969660338	0.049977776769083
63687	50	401	0	0	cash_register	280	92	1	stimuli\cash_register\cash_register_03s.jpg	2	-1	1	0	cash_register_03s.jpg	0	0	0	388.92999400472	388.979974951013	0.0499809462926351
63787	50	402	0	0	paddle	1094	93	1	stimuli\paddle\paddle_09s.jpg	8	-1	1	0	paddle_09s.jpg	0	0	0	389.029998076352	389.079974390246	0.0499763138941489
63887	50	403	0	0	target	1627	94	1	stimuli\target\target_04s.jpg	3	-1	1	0	target_04s.jpg	0	0	0	389.130001172714	389.179977242806	0.0499760700913612
63987	50	404	0	0	hotdog	805	95	1	stimuli\hotdog\hotdog_06s.jpg	5	-1	1	0	hotdog_06s.jpg	0	0	0	389.230003293866	389.279982045875	0.0499787520093378
64087	50	405	0	0	motorcycle	1025	96	1	stimuli\motorcycle\motorcycle_03s.jpg	2	-1	1	0	motorcycle_03s.jpg	0	0	0	389.330006146425	389.379983923194	0.049977776769083
64187	50	406	0	0	duckling	526	97	1	stimuli\duckling\duckling_06s.jpg	5	-1	1	0	duckling_06s.jpg	0	0	0	389.430007048533	389.479987263388	0.049980214855168
64287	50	407	0	0	bacon	51	98	1	stimuli\bacon\bacon_09s.jpg	8	-1	1	0	bacon_09s.jpg	0	0	0	389.530010388728	389.579988409299	0.0499780205718707
64387	50	408	0	0	airplane	10	99	1	stimuli\airplane\airplane_07n.jpg	6	-1	1	0	airplane_07n.jpg	0	0	0	389.630013728922	389.679991261859	0.0499775329371914
64487	50	409	0	0	pencil	1142	100	1	stimuli\pencil\pencil_08s.jpg	7	-1	1	0	pencil_08s.jpg	0	0	0	389.730015850044	389.779996308731	0.0499804586870596
64587	50	410	0	0	bathrobe	90	101	1	stimuli\bathrobe\bathrobe_03s.jpg	2	-1	1	0	bathrobe_03s.jpg	0	0	0	389.830019677873	389.879997698445	0.0499780205718707
64687	50	411	0	0	tripod	1714	102	1	stimuli\tripod\tripod_04s.jpg	3	-1	1	0	tripod_04s.jpg	0	0	0	389.930020092346	389.979999575764	0.049979483417701
64787	50	412	0	0	squirrel	1529	103	1	stimuli\squirrel\squirrel_11s.jpg	10	-1	1	0	squirrel_11s.jpg	0	0	0	390.030023188709	390.080002428353	0.0499792396440171
64887	50	413	0	0	kettle	868	104	1	stimuli\kettle\kettle_04n.jpg	3	-1	1	0	kettle_04n.jpg	0	0	0	390.130026528903	390.180005524715	0.0499789958121255
64987	50	414	0	0	tray	1705	105	1	stimuli\tray\tray_09s.jpg	8	-1	1	0	tray_09s.jpg	0	0	0	390.230028406251	390.280006670626	0.0499782643746585
65087	50	415	0	0	map	970	106	1	stimuli\map\map_02s.jpg	1	-1	1	0	map_02s.jpg	0	0	0	390.330031990248	390.380009767017	0.049977776769083
65187	50	416	0	0	banner	70	107	1	stimuli\banner\banner_06s.jpg	5	-1	1	0	banner_06s.jpg	0	0	0	390.430035086611	390.480013351014	0.0499782644037623
65287	50	417	0	0	dip	487	108	1	stimuli\dip\dip_01b.jpg	0	-1	1	0	dip_01b.jpg	0	0	0	390.530039158242	390.580016935011	0.049977776769083
65387	50	418	0	0	mitten	1008	109	1	stimuli\mitten\mitten_01b.jpg	0	-1	1	0	mitten_01b.jpg	0	0	0	390.630039328913	390.680019787571	0.0499804586579558
65487	50	419	0	0	fig	581	110	1	stimuli\fig\fig_06n.jpg	5	-1	1	0	fig_06n.jpg	0	0	0	390.730042669107	390.780020933482	0.0499782643746585
65587	50	420	0	0	lightbulb	927	111	1	stimuli\lightbulb\lightbulb_12s.jpg	11	-1	1	0	lightbulb_12s.jpg	0	0	0	390.830043814989	390.880024273676	0.0499804586870596
65687	50	421	0	0	chisel	336	112	1	stimuli\chisel\chisel_06s.jpg	5	-1	1	0	chisel_06s.jpg	0	0	0	390.930048618058	390.980027857673	0.0499792396149132
65787	50	422	0	0	cabbage	232	113	1	stimuli\cabbage\cabbage_04s.jpg	3	-1	1	0	cabbage_04s.jpg	0	0	0	391.030050495378	391.080030954035	0.0499804586579558
65887	50	423	0	0	lamb	889	114	1	stimuli\lamb\lamb_04s.jpg	3	-1	1	0	lamb_04s.jpg	0	0	0	391.130053104134	391.180032587581	0.0499794834468048
65987	50	424	0	0	sparkler	1507	115	1	stimuli\sparkler\sparkler_09s.jpg	8	-1	1	0	sparkler_09s.jpg	0	0	0	391.230057907174	391.280036659184	0.0499787520093378
66087	50	425	0	0	remote_control	1302	116	1	stimuli\remote_control\remote_control_03s.jpg	2	-1	1	0	remote_control_03s.jpg	0	0	0	391.330060028326	391.380037805095	0.049977776769083
66187	50	426	0	0	centerpiece	295	117	1	stimuli\centerpiece\centerpiece_07s.jpg	6	-1	1	0	centerpiece_07s.jpg	0	0	0	391.430062637082	391.480041389092	0.0499787520093378
66287	50	427	0	0	steak	1544	118	1	stimuli\steak\steak_09s.jpg	8	-1	1	1	steak_09s.jpg	0	0	0	391.53006719632	391.58004326644	0.049976070120465
66387	50	428	0	0	sandal	1352	119	1	stimuli\sandal\sandal_05s.jpg	4	-1	1	0	sandal_05s.jpg	0	0	0	391.630071755557	391.680046119	0.0499743634427432
66487	50	429	0	0	goose	693	120	1	stimuli\goose\goose_08s.jpg	7	-1	1	0	goose_08s.jpg	0	0	0	391.730071926228	391.780048727756	0.0499768015288282
66587	50	430	0	0	armor	37	121	1	stimuli\armor\armor_07s.jpg	6	-1	1	0	armor_07s.jpg	1	0.35016212114715	1	391.830072096898	391.880052799388	0.0499807024898473
66687	50	431	0	0	rag	1276	122	1	stimuli\rag\rag_05s.jpg	4	-1	1	0	rag_05s.jpg	0	0	0	391.93009030947	391.980056627188	0.0499663177179173
66787	50	432	0	0	whistle	1812	123	1	stimuli\whistle\whistle_02s.jpg	1	-1	1	0	whistle_02s.jpg	0	0	0	392.030091942986	392.080057529296	0.0499655863095541
66887	50	433	0	0	doorbell	507	124	1	stimuli\doorbell\doorbell_12s.jpg	11	-1	1	0	doorbell_12s.jpg	0	0	0	392.130081629846	392.180063795182	0.0499821653356776
66987	50	434	0	0	bassoon	86	125	1	stimuli\bassoon\bassoon_02s.jpg	1	-1	1	0	bassoon_02s.jpg	0	0	0	392.23008301956	392.280061283964	0.0499782644037623
67087	50	435	0	0	baseball_glove	80	126	1	stimuli\baseball_glove\baseball_glove_10s.jpg	9	-1	1	0	baseball_glove_10s.jpg	0	0	0	392.330086847389	392.38006291748	0.0499760700913612
67187	50	436	0	0	avocado	43	127	1	stimuli\avocado\avocado_10s.jpg	9	-1	1	0	avocado_10s.jpg	0	0	0	392.430090431386	392.480069914804	0.049979483417701
67287	50	437	0	0	warthog	1781	128	1	stimuli\warthog\warthog_08s.jpg	7	-1	1	0	warthog_08s.jpg	0	0	0	392.530090114422	392.580068866431	0.0499787520093378
67387	50	438	0	0	apple	30	129	1	stimuli\apple\apple_11s.jpg	10	-1	1	0	apple_11s.jpg	0	0	0	392.630099793663	392.680073425669	0.0499736320052762
67487	50	439	0	0	christmas_card	340	130	1	stimuli\christmas_card\christmas_card_01b.jpg	0	-1	1	0	christmas_card_01b.jpg	0	0	0	392.730099232896	392.780076522031	0.0499772891344037
67587	50	440	0	0	snowshoe	1485	131	1	stimuli\snowshoe\snowshoe_09s.jpg	8	-1	1	0	snowshoe_09s.jpg	0	0	0	392.830099403567	392.880078155576	0.0499787520093378
67687	50	441	0	0	rack1	1268	132	1	stimuli\rack1\rack1_06s.jpg	5	-1	1	0	rack1_06s.jpg	0	0	0	392.930102499959	392.980081008136	0.0499785081774462
67787	50	442	0	0	sloth	1471	133	1	stimuli\sloth\sloth_05s.jpg	4	-1	1	0	sloth_05s.jpg	0	0	0	393.030105108715	393.08008239785	0.0499772891344037
67887	50	443	0	0	pulley	1250	134	1	stimuli\pulley\pulley_04s.jpg	3	-1	1	0	pulley_04s.jpg	0	0	0	393.130107717472	393.18008817613	0.0499804586579558
67987	50	444	0	0	toolbox	1677	135	1	stimuli\toolbox\toolbox_10s.jpg	9	-1	1	0	toolbox_10s.jpg	0	0	0	393.230112032907	393.280090297281	0.0499782643746585
68087	50	445	0	0	tooth	1678	136	1	stimuli\tooth\tooth_01b.jpg	0	-1	1	0	tooth_01b.jpg	0	0	0	393.330116835947	393.380091199389	0.0499743634427432
68187	50	446	0	0	wire_cutters	1829	137	1	stimuli\wire_cutters\wire_cutters_12s.jpg	11	-1	1	0	wire_cutters_12s.jpg	0	0	0	393.430113349459	393.480099415756	0.0499860662966967
68287	50	447	0	0	bubble	207	138	1	stimuli\bubble\bubble_09s.jpg	8	-1	1	0	bubble_09s.jpg	0	0	0	393.530119127739	393.580094710225	0.0499755824857857
68387	50	448	0	0	screwdriver	1391	139	1	stimuli\screwdriver\screwdriver_05s.jpg	4	-1	1	0	screwdriver_05s.jpg	0	0	0	393.630120029848	393.680110240908	0.0499902110605035
68487	50	449	0	0	mint	1004	140	1	stimuli\mint\mint_11s.jpg	10	-1	1	0	mint_11s.jpg	0	0	0	393.730123857647	393.780106998223	0.0499831405759323
68587	50	450	0	0	toothpick	1681	141	1	stimuli\toothpick\toothpick_01b.jpg	0	-1	1	0	toothpick_01b.jpg	0	0	0	393.830128173082	393.880104974611	0.0499768015288282
68687	50	451	0	0	dandelion	472	142	1	stimuli\dandelion\dandelion_08s.jpg	7	-1	1	0	dandelion_08s.jpg	0	0	0	393.930129318993	393.980108314805	0.0499789958121255
68787	50	452	0	0	saucer	1363	143	1	stimuli\saucer\saucer_03s.jpg	2	-1	1	0	saucer_03s.jpg	0	0	0	394.030133146793	394.080110192124	0.049977045331616
68887	50	453	0	0	tablet	1610	144	1	stimuli\tablet\tablet_03s.jpg	2	-1	1	0	tablet_03s.jpg	0	0	0	394.130133317463	394.180112557078	0.0499792396149132
68987	50	454	0	0	sandbag	1353	145	1	stimuli\sandbag\sandbag_06s.jpg	5	-1	1	0	sandbag_06s.jpg	0	0	0	394.230137876701	394.280115409667	0.0499775329662953
69087	50	455	0	0	phone	1161	146	1	stimuli\phone\phone_10s.jpg	9	-1	1	0	phone_10s.jpg	0	0	0	394.330139997852	394.380118749861	0.0499787520093378
69187	50	456	0	0	pumpkin	1253	147	1	stimuli\pumpkin\pumpkin_11s.jpg	10	-1	1	0	pumpkin_11s.jpg	0	0	0	394.430143094214	394.480121358618	0.0499782644037623
69287	50	457	0	0	boa	150	148	1	stimuli\boa\boa_08s.jpg	7	-1	1	0	boa_08s.jpg	0	0	0	394.530157405854	394.580123723572	0.0499663177179173
69387	50	458	0	0	boxer_shorts	182	149	1	stimuli\boxer_shorts\boxer_shorts_02s.jpg	1	-1	1	0	boxer_shorts_02s.jpg	0	0	0	394.630149774603	394.680128038977	0.0499782643746585
69487	50	459	0	0	domino	503	150	1	stimuli\domino\domino_04s.jpg	3	-1	1	0	domino_04s.jpg	0	0	0	394.730151895754	394.780129672523	0.049977776769083
69587	50	460	0	0	spaghetti	1503	151	1	stimuli\spaghetti\spaghetti_08s.jpg	7	-1	1	0	spaghetti_08s.jpg	0	0	0	394.830153041665	394.880132525082	0.049979483417701
69687	50	461	0	0	nail_file	1048	152	1	stimuli\nail_file\nail_file_06s.jpg	5	-1	1	0	nail_file_06s.jpg	0	0	0	394.930157113267	394.980136840517	0.0499797272495925
69787	50	462	0	0	dashboard	475	153	1	stimuli\dashboard\dashboard_03s.jpg	2	-1	1	0	dashboard_03s.jpg	0	0	0	395.030161916307	395.080138717836	0.0499768015288282
69887	50	463	0	0	jam	839	154	1	stimuli\jam\jam_06s.jpg	5	-1	1	0	jam_06s.jpg	0	0	0	395.130162818416	395.18014108279	0.0499782643746585
69987	50	464	0	0	mustard	1044	155	1	stimuli\mustard\mustard_04s.jpg	3	-1	1	0	mustard_04s.jpg	0	0	0	395.230164208129	395.280144666787	0.0499804586579558
70087	50	465	0	0	bathtub	91	156	1	stimuli\bathtub\bathtub_03s.jpg	2	-1	1	0	bathtub_03s.jpg	0	0	0	395.330168279761	395.380148006981	0.0499797272204887
70187	50	466	0	0	nutcracker	1067	157	1	stimuli\nutcracker\nutcracker_03s.jpg	2	-1	1	0	nutcracker_03s.jpg	0	0	0	395.430172107561	395.480150128133	0.0499780205718707
70287	50	467	0	0	jewel	849	158	1	stimuli\jewel\jewel_09s.jpg	8	-1	1	0	jewel_09s.jpg	0	0	0	395.530171790597	395.580151030212	0.0499792396149132
70387	50	468	0	0	straw2	1569	159	1	stimuli\straw2\straw2_02s.jpg	1	-1	1	0	straw2_02s.jpg	0	0	0	395.630176837469	395.680164122808	0.0499872853397392
70487	50	469	0	0	peeler	1138	160	1	stimuli\peeler\peeler_12s.jpg	11	-1	1	0	peeler_12s.jpg	0	0	0	395.730179202423	395.780156003952	0.0499768015288282
70587	50	470	0	0	gift	672	161	1	stimuli\gift\gift_01b.jpg	0	-1	1	0	gift_01b.jpg	0	0	0	395.830180104502	395.880159100314	0.0499789958121255
70687	50	471	0	0	stool	1561	162	1	stimuli\stool\stool_09s.jpg	8	-1	1	0	stool_09s.jpg	0	0	0	395.930185151374	395.980161952903	0.0499768015288282
70787	50	472	0	0	teabag	1632	163	1	stimuli\teabag\teabag_07s.jpg	6	-1	1	0	teabag_07s.jpg	0	0	0	396.030184590607	396.080164074025	0.049979483417701
70887	50	473	0	0	leech	909	164	1	stimuli\leech\leech_08s.jpg	7	-1	1	0	leech_08s.jpg	0	0	0	396.130190856493	396.180168389459	0.0499775329662953
70987	50	474	0	0	tarantula	1626	165	1	stimuli\tarantula\tarantula_10s.jpg	9	-1	1	0	tarantula_10s.jpg	0	0	0	396.230192002404	396.280170022976	0.0499780205718707
71087	50	475	0	0	brush	205	166	1	stimuli\brush\brush_10s.jpg	9	-1	1	0	brush_10s.jpg	0	0	0	396.330193148315	396.380171900324	0.0499787520093378
71187	50	476	0	0	canvas	264	167	1	stimuli\canvas\canvas_11s.jpg	10	-1	1	0	canvas_11s.jpg	0	0	0	396.430196976115	396.480174752884	0.049977776769083
71287	50	477	0	0	coat	369	168	1	stimuli\coat\coat_04s.jpg	3	-1	1	0	coat_04s.jpg	0	0	0	396.530198853463	396.580178336881	0.049979483417701
71387	50	478	0	0	kayak	863	169	1	stimuli\kayak\kayak_01b.jpg	0	-1	1	0	kayak_01b.jpg	0	0	0	396.630207069829	396.680184115161	0.049977045331616
71487	50	479	0	0	tamale	1618	170	1	stimuli\tamale\tamale_12s.jpg	11	-1	1	0	tamale_12s.jpg	0	0	0	396.73020821574	396.780183310591	0.0499750948511064
71587	50	480	0	0	handlebar	749	171	1	stimuli\handlebar\handlebar_06s.jpg	5	-1	1	0	handlebar_06s.jpg	0	0	0	396.830207898776	396.88018713842	0.0499792396440171
71687	50	481	0	0	yarn	1846	172	1	stimuli\yarn\yarn_09s.jpg	8	-1	1	0	yarn_09s.jpg	0	0	0	396.93021026373	396.980189259542	0.0499789958121255
71787	50	482	0	0	baseball_bat	79	173	1	stimuli\baseball_bat\baseball_bat_08s.jpg	7	-1	1	1	baseball_bat_08s.jpg	0	0	0	397.030214091559	397.080193087371	0.0499789958121255
71887	50	483	0	0	peppermint	1152	174	1	stimuli\peppermint\peppermint_11s.jpg	10	-1	1	0	peppermint_11s.jpg	0	0	0	397.130216944119	397.180197158974	0.049980214855168
71987	50	484	0	0	grain	698	175	1	stimuli\grain\grain_01b.jpg	0	-1	1	0	grain_01b.jpg	0	0	0	397.230220284313	397.280209276301	0.0499889919883572
72087	50	485	0	0	flan	609	176	1	stimuli\flan\flan_04s.jpg	3	-1	1	0	flan_04s.jpg	1	0.300197266245959	1	397.330233620683	397.380210178409	0.0499765577260405
72187	50	486	0	0	golf_cart	689	177	1	stimuli\golf_cart\golf_cart_12s.jpg	11	-1	1	0	golf_cart_12s.jpg	0	0	0	397.430235010397	397.480216200493	0.0499811900954228
72287	50	487	0	0	paper_bag	1113	178	1	stimuli\paper_bag\paper_bag_11s.jpg	10	-1	1	0	paper_bag_11s.jpg	0	0	0	397.530228354415	397.58021515212	0.0499867977050599
72388	50	488	0	0	timer	1661	179	1	stimuli\timer\timer_08s.jpg	7	-1	1	0	timer_08s.jpg	0	0	0	397.630241446983	397.680219467555	0.0499780205718707
72488	50	489	0	0	prune	1244	180	1	stimuli\prune\prune_06s.jpg	5	-1	1	0	prune_06s.jpg	0	0	0	397.730243080499	397.780210861063	0.0499677805637475
72587	50	490	0	0	airboat	8	181	1	stimuli\airboat\airboat_07s.jpg	6	-1	1	0	airboat_07s.jpg	0	0	0	397.830236180685	397.880225172703	0.049988992017461
72688	50	491	0	0	axe	45	182	1	stimuli\axe\axe_03n.jpg	2	-1	1	0	axe_03n.jpg	0	0	0	397.930249517056	397.980233876704	0.0499843596480787
72788	50	492	0	0	filter	587	183	1	stimuli\filter\filter_03s.jpg	2	-1	1	0	filter_03s.jpg	0	0	0	398.030252125842	398.080217468319	0.0499653424776625
72888	50	493	0	0	eclair	544	184	1	stimuli\eclair\eclair_04s.jpg	3	-1	1	0	eclair_04s.jpg	0	0	0	398.130253027921	398.180219833273	0.0499668053525966
72988	50	494	0	0	air_conditioner	4	185	1	stimuli\air_conditioner\air_conditioner_08s.jpg	7	-1	1	0	air_conditioner_08s.jpg	0	0	0	398.230256124312	398.280224148679	0.0499680243665352
73088	50	495	0	0	sandpaper	1356	186	1	stimuli\sandpaper\sandpaper_06s.jpg	5	-1	1	0	sandpaper_06s.jpg	0	0	0	398.330258976872	398.380226026027	0.0499670491553843
73188	50	496	0	0	trolley	1715	187	1	stimuli\trolley\trolley_03s.jpg	2	-1	1	0	trolley_03s.jpg	0	0	0	398.430262804701	398.480228878587	0.0499660738860257
73288	50	497	0	0	mashed_potato	979	188	1	stimuli\mashed_potato\mashed_potato_09s.jpg	8	-1	1	0	mashed_potato_09s.jpg	0	0	0	398.530262975342	398.580245140678	0.0499821653356776
73388	50	498	0	0	bolo_tie	157	189	1	stimuli\bolo_tie\bolo_tie_07s.jpg	6	-1	1	0	bolo_tie_07s.jpg	0	0	0	398.630267778412	398.680246530392	0.0499787519802339
73488	50	499	0	0	strap	1567	190	1	stimuli\strap\strap_01b.jpg	0	-1	1	0	strap_01b.jpg	0	0	0	398.730273069057	398.780239142972	0.0499660739151295
73588	50	500	0	0	hubcap	809	191	1	stimuli\hubcap\hubcap_08s.jpg	7	-1	1	0	hubcap_08s.jpg	0	0	0	398.830273971165	398.880257843179	0.0499838720133994
73688	50	501	0	0	glue	681	192	1	stimuli\glue\glue_12s.jpg	11	-1	1	0	glue_12s.jpg	0	0	0	398.930275848485	398.980256794777	0.0499809462926351
73788	50	502	0	0	chinchilla	332	193	1	stimuli\chinchilla\chinchilla_06s.jpg	5	-1	1	0	chinchilla_06s.jpg	0	0	0	399.030278944876	399.080244774988	0.0499658301123418
73888	50	503	0	0	corn	412	194	1	stimuli\corn\corn_07s.jpg	6	-1	1	0	corn_07s.jpg	0	0	0	399.130281797436	399.180249090394	0.049967292958172
73988	50	504	0	0	necklace	1054	195	1	stimuli\necklace\necklace_05s.jpg	4	-1	1	0	necklace_05s.jpg	0	0	0	399.230284893827	399.280261207721	0.0499763138941489
74088	50	505	0	0	polaroid	1212	196	1	stimuli\polaroid\polaroid_05s.jpg	4	-1	1	0	polaroid_05s.jpg	0	0	0	399.330288965459	399.380267473636	0.0499785081774462
74188	50	506	0	0	roulette_wheel	1335	197	1	stimuli\roulette_wheel\roulette_wheel_08s.jpg	7	-1	1	0	roulette_wheel_08s.jpg	0	0	0	399.430288404692	399.480256916693	0.0499685120012145
74288	50	507	0	0	inkwell	830	198	1	stimuli\inkwell\inkwell_11s.jpg	10	-1	1	0	inkwell_11s.jpg	0	0	0	399.530291988689	399.580273178784	0.0499811900954228
74388	50	508	0	0	cruise_ship	450	199	1	stimuli\cruise_ship\cruise_ship_06s.jpg	5	-1	1	0	cruise_ship_06s.jpg	0	0	0	399.630294841249	399.680273105652	0.0499782644037623
74488	50	509	0	0	syringe	1604	200	1	stimuli\syringe\syringe_03s.jpg	2	-1	1	0	syringe_03s.jpg	0	0	0	399.730321099545	399.780264499161	0.0499433996155858
74588	50	510	0	0	harness	754	201	1	stimuli\harness\harness_04s.jpg	3	-1	1	0	harness_04s.jpg	0	0	0	399.830299571157	399.880280761252	0.0499811900954228
74688	50	511	0	0	record_player	1296	202	1	stimuli\record_player\record_player_07s.jpg	6	-1	1	0	record_player_07s.jpg	0	0	0	399.930303155154	399.980282150966	0.0499789958121255
74788	50	512	0	0	revolving_door	1305	203	1	stimuli\revolving_door\revolving_door_02s.jpg	1	-1	1	0	revolving_door_02s.jpg	0	0	0	400.030305032502	400.080272813066	0.0499677805637475
74888	50	513	0	0	marijuana	974	204	1	stimuli\marijuana\marijuana_06n.jpg	5	-1	1	0	marijuana_06n.jpg	0	0	0	400.130309835542	400.180275909457	0.0499660739151295
74988	50	514	0	0	canister	259	205	1	stimuli\canister\canister_10s.jpg	9	-1	1	0	canister_10s.jpg	0	0	0	400.230300010007	400.280278518214	0.04997850820655
75088	50	515	0	0	pliers	1201	206	1	stimuli\pliers\pliers_07s.jpg	6	-1	1	0	pliers_07s.jpg	0	0	0	400.330301155918	400.380291366979	0.0499902110605035
75188	50	516	0	0	catapult	285	207	1	stimuli\catapult\catapult_05s.jpg	4	-1	1	0	catapult_05s.jpg	0	0	0	400.430304008478	400.480295194779	0.0499911863007583
75288	50	517	0	0	trough	1718	208	1	stimuli\trough\trough_05s.jpg	4	-1	1	0	trough_05s.jpg	0	0	0	400.530318076286	400.580297072098	0.0499789958121255
75388	50	518	0	0	confetti	396	209	1	stimuli\confetti\confetti_03s.jpg	2	-1	1	0	confetti_03s.jpg	0	0	0	400.630320685072	400.680298949446	0.0499782643746585
75488	50	519	0	0	window	1818	210	1	stimuli\window\window_04s.jpg	3	-1	1	0	window_04s.jpg	0	0	0	400.730325000477	400.78029180583	0.0499668053525966
75588	50	520	0	0	sheep	1414	211	1	stimuli\sheep\sheep_10s.jpg	9	-1	1	0	sheep_10s.jpg	0	0	0	400.830327121628	400.880293926981	0.0499668053525966
75688	50	521	0	0	overalls	1090	212	1	stimuli\overalls\overalls_02s.jpg	1	-1	1	0	overalls_02s.jpg	0	0	0	400.93033875135	400.980297754781	0.0499590034305584
75788	50	522	0	0	wire	1828	213	1	stimuli\wire\wire_07s.jpg	6	-1	1	0	wire_07s.jpg	0	0	0	401.030320148682	401.080298413057	0.0499782643746585
75888	50	523	0	0	shoulder	1431	214	1	stimuli\shoulder\shoulder_02s.jpg	1	-1	1	0	shoulder_02s.jpg	0	0	0	401.130334947928	401.180303459929	0.0499685120012145
75988	50	524	0	0	dalmatian	471	215	1	stimuli\dalmatian\dalmatian_01b.jpg	0	-1	1	0	dalmatian_01b.jpg	0	0	0	401.230339507165	401.280302899162	0.0499633919971529
76088	50	525	0	0	flask	612	216	1	stimuli\flask\flask_10s.jpg	9	-1	1	0	flask_10s.jpg	0	0	0	401.330342115922	401.380320136494	0.0499780205718707
76188	50	526	0	0	costume	419	217	1	stimuli\costume\costume_02s.jpg	1	-1	1	0	costume_02s.jpg	0	0	0	401.430344237073	401.480312992877	0.0499687558040023
76288	50	527	0	0	mosquito	1020	218	1	stimuli\mosquito\mosquito_01b.jpg	0	-1	1	0	mosquito_01b.jpg	0	0	0	401.530334167735	401.580311700673	0.0499775329371914
76388	50	528	0	0	urinal	1748	219	1	stimuli\urinal\urinal_03s.jpg	2	-1	1	0	urinal_03s.jpg	0	0	0	401.630347504106	401.680330400879	0.0499828967731446
76488	50	529	0	0	stingray	1556	220	1	stimuli\stingray\stingray_04s.jpg	3	-1	1	0	stingray_04s.jpg	0	0	0	401.730351088103	401.780331059155	0.0499799710523803
76588	50	530	0	0	dart	473	221	1	stimuli\dart\dart_09s.jpg	8	-1	1	0	dart_09s.jpg	0	0	0	401.830341262597	401.880333667912	0.049992405314697
76688	50	531	0	0	handle	748	222	1	stimuli\handle\handle_06s.jpg	5	-1	1	0	handle_06s.jpg	0	0	0	401.930355330376	401.980323110969	0.0499677805928513
76788	50	532	0	0	blouse	144	223	1	stimuli\blouse\blouse_11s.jpg	10	-1	1	0	blouse_11s.jpg	0	0	0	402.03035769533	402.08032523212	0.0499675367900636
76888	50	533	0	0	snail	1476	224	1	stimuli\snail\snail_08s.jpg	7	-1	1	0	snail_08s.jpg	0	0	0	402.130361279356	402.180330766598	0.0499694872414693
76988	50	534	0	0	baseball	78	225	1	stimuli\baseball\baseball_06s.jpg	5	-1	1	0	baseball_06s.jpg	0	0	0	402.230365350959	402.280343615334	0.0499782643746585
77088	50	535	0	0	iceskate	823	226	1	stimuli\iceskate\iceskate_08s.jpg	7	-1	1	0	iceskate_08s.jpg	0	0	0	402.330366740673	402.380334277434	0.0499675367609598
77188	50	536	0	0	cigar	343	227	1	stimuli\cigar\cigar_03s.jpg	2	-1	1	0	cigar_03s.jpg	0	0	0	402.430371787545	402.480335179542	0.0499633919971529
77288	50	537	0	0	baton1	92	228	1	stimuli\baton1\baton1_11s.jpg	10	-1	1	0	baton1_11s.jpg	0	0	0	402.530373908667	402.580339494976	0.0499655863095541
77388	50	538	0	0	pipe2	1187	229	1	stimuli\pipe2\pipe2_03s.jpg	2	-1	1	0	pipe2_03s.jpg	0	0	0	402.630373104097	402.680353806587	0.0499807024898473
77488	50	539	0	0	antenna	27	230	1	stimuli\antenna\antenna_04n.jpg	3	-1	1	0	antenna_04n.jpg	0	0	0	402.730378882377	402.780356171541	0.0499772891635075
77588	50	540	0	0	camel	245	231	1	stimuli\camel\camel_01b.jpg	0	-1	1	0	camel_01b.jpg	0	0	0	402.830381734966	402.880351953616	0.0499702186498325
77688	50	541	0	0	basket	82	232	1	stimuli\basket\basket_05s.jpg	4	-1	1	0	basket_05s.jpg	0	0	0	402.930384831328	402.980363095732	0.0499782644037623
77788	50	542	0	0	insole	831	233	1	stimuli\insole\insole_02s.jpg	1	-1	1	0	insole_02s.jpg	0	0	0	403.030388171523	403.080367654969	0.0499794834468048
77888	50	543	0	0	lion	933	234	1	stimuli\lion\lion_02s.jpg	1	-1	1	0	lion_02s.jpg	0	0	0	403.130390048871	403.180357829435	0.0499677805637475
77988	50	544	0	0	brass_knuckles	193	235	1	stimuli\brass_knuckles\brass_knuckles_03s.jpg	2	-1	1	0	brass_knuckles_03s.jpg	0	0	0	403.230382173817	403.280358487711	0.0499763138941489
78088	50	545	0	0	grenade	713	236	1	stimuli\grenade\grenade_07s.jpg	6	-1	1	0	grenade_07s.jpg	0	0	0	403.330398435908	403.380372799351	0.0499743634427432
78188	50	546	0	0	lock	940	237	1	stimuli\lock\lock_08s.jpg	7	-1	1	0	lock_08s.jpg	0	0	0	403.430399094184	403.480375408108	0.0499763139232527
78288	50	547	0	0	rocking_horse	1322	238	1	stimuli\rocking_horse\rocking_horse_02s.jpg	1	-1	1	0	rocking_horse_02s.jpg	0	0	0	403.530403897254	403.580366801616	0.0499629043624736
78388	50	548	0	0	microscope	999	239	1	stimuli\microscope\microscope_09s.jpg	8	-1	1	0	microscope_09s.jpg	0	0	0	403.630407725053	403.680383307539	0.0499755824857857
78488	50	549	0	0	clothespin	363	240	1	stimuli\clothespin\clothespin_02s.jpg	1	-1	1	0	clothespin_02s.jpg	0	0	0	403.730404970003	403.780386403902	0.0499814338982105
78588	50	550	0	0	lanyard	896	241	1	stimuli\lanyard\lanyard_01b.jpg	0	-1	1	0	lanyard_01b.jpg	0	0	0	403.830406115914	403.880387549812	0.0499814338982105
78688	50	551	0	0	saw	1366	242	1	stimuli\saw\saw_10s.jpg	9	-1	1	0	saw_10s.jpg	0	0	0	403.930412869435	403.980376992869	0.04996412343462
78788	50	552	0	0	cane	258	243	1	stimuli\cane\cane_02s.jpg	1	-1	1	0	cane_02s.jpg	0	0	0	404.030412796303	404.080381552107	0.0499687558040023
78888	50	553	0	0	popcorn	1223	244	1	stimuli\popcorn\popcorn_09s.jpg	8	-1	1	0	popcorn_09s.jpg	0	0	0	404.13043052124	404.18038294182	0.0499524205806665
78988	50	554	0	0	icemaker	821	245	1	stimuli\icemaker\icemaker_12s.jpg	11	-1	1	0	icemaker_12s.jpg	0	0	0	404.230417526182	404.280387013423	0.0499694872414693
79088	50	555	0	0	potato	1231	246	1	stimuli\potato\potato_09s.jpg	8	-1	1	0	potato_09s.jpg	1	0	0	404.330421110179	404.380393523141	0.0499724129622336
79188	50	556	0	0	notebook	1064	247	1	stimuli\notebook\notebook_01b.jpg	0	-1	1	0	notebook_01b.jpg	0	0	0	404.430424938007	404.480390768091	0.049965830083238
79288	50	557	0	0	nail	1046	248	1	stimuli\nail\nail_10s.jpg	9	-1	1	0	nail_10s.jpg	0	0	0	404.53042900961	404.58039557116	0.0499665615498088
79388	50	558	0	0	oyster	1092	249	1	stimuli\oyster\oyster_02n.jpg	1	-1	1	0	oyster_02n.jpg	0	0	0	404.630431374564	404.680403299921	0.0499719253566582
79488	50	559	0	0	tadpole	1614	250	1	stimuli\tadpole\tadpole_08s.jpg	7	-1	1	0	tadpole_08s.jpg	0	0	0	404.730430813797	404.78039298678	0.0499621729832143
79588	50	560	0	0	coffee_bean	378	251	1	stimuli\coffee_bean\coffee_bean_09s.jpg	8	-1	1	0	coffee_bean_09s.jpg	0	0	0	404.830418062571	404.880410711718	0.0499926491465885
79688	50	561	0	0	soup	1499	252	1	stimuli\soup\soup_10s.jpg	9	-1	1	0	soup_10s.jpg	0	0	0	404.930436762748	404.980431362375	0.0499945996270981
79788	50	562	0	0	hatbox	758	253	1	stimuli\hatbox\hatbox_03s.jpg	2	-1	1	0	hatbox_03s.jpg	0	0	0	405.030436202011	405.080413491145	0.0499772891344037
79888	50	563	0	0	wrist	1842	254	1	stimuli\wrist\wrist_09s.jpg	8	-1	1	0	wrist_09s.jpg	0	0	0	405.13044368694	405.180417562777	0.0499738758371677
79988	50	564	0	0	handkerchief	747	255	1	stimuli\handkerchief\handkerchief_07s.jpg	6	-1	1	0	handkerchief_07s.jpg	0	0	0	405.230434592871	405.280419927702	0.0499853348301258
80088	50	565	0	0	cream	436	256	1	stimuli\cream\cream_11s.jpg	10	-1	1	0	cream_11s.jpg	0	0	0	405.330445491156	405.380414978397	0.0499694872414693
80188	50	566	0	0	lobster	939	257	1	stimuli\lobster\lobster_04s.jpg	3	-1	1	0	lobster_04s.jpg	0	0	0	405.430450537999	405.48041344239	0.0499629043915775
80288	50	567	0	0	scale	1371	258	1	stimuli\scale\scale_11s.jpg	10	-1	1	0	scale_11s.jpg	0	0	0	405.530450221035	405.580427510198	0.0499772891635075
80388	50	568	0	0	kite	874	259	1	stimuli\kite\kite_07s.jpg	6	-1	1	0	kite_07s.jpg	0	0	0	405.63045648695	405.680419635144	0.0499631481943652
80488	50	569	0	0	burner	224	260	1	stimuli\burner\burner_04s.jpg	3	-1	1	0	burner_04s.jpg	0	0	0	405.730444954766	405.780423706776	0.0499787520093378
80588	50	570	0	0	hopscotch	796	261	1	stimuli\hopscotch\hopscotch_07s.jpg	6	-1	1	0	hopscotch_07s.jpg	0	0	0	405.830461216858	405.880437286949	0.0499760700913612
80688	50	571	0	0	drain	515	262	1	stimuli\drain\drain_04s.jpg	3	-1	1	0	drain_04s.jpg	0	0	0	405.930462362769	405.980425023328	0.0499626605596859
80788	50	572	0	0	parrot	1121	263	1	stimuli\parrot\parrot_05s.jpg	4	-1	1	0	parrot_05s.jpg	0	0	0	406.03046350865	406.0804432359	0.0499797272495925
80888	50	573	0	0	mole	1014	264	1	stimuli\mole\mole_12s.jpg	11	-1	1	0	mole_12s.jpg	0	0	0	406.130466361239	406.180432435154	0.0499660739151295
80988	50	574	0	0	tongs	1674	265	1	stimuli\tongs\tongs_02s.jpg	1	-1	1	0	tongs_02s.jpg	0	0	0	406.230471651914	406.280437481997	0.049965830083238
81088	50	575	0	0	wolf	1831	266	1	stimuli\wolf\wolf_08n.jpg	7	-1	1	0	wolf_08n.jpg	0	0	0	406.330473529233	406.380452525045	0.0499789958121255
81188	50	576	0	0	shaving_cream	1410	267	1	stimuli\shaving_cream\shaving_cream_10s.jpg	9	-1	1	0	shaving_cream_10s.jpg	0	0	0	406.430475406552	406.480442211905	0.0499668053525966
81288	50	577	0	0	lamppost	892	268	1	stimuli\lamppost\lamppost_10s.jpg	9	-1	1	0	lamppost_10s.jpg	0	0	0	406.530478990579	406.580442626378	0.0499636357999407
81388	50	578	0	0	stew	1551	269	1	stimuli\stew\stew_02s.jpg	1	-1	1	0	stew_02s.jpg	0	0	0	406.630476479331	406.680457669427	0.0499811900954228
81488	50	579	0	0	wheelbarrow	1807	270	1	stimuli\wheelbarrow\wheelbarrow_06s.jpg	5	-1	1	0	wheelbarrow_06s.jpg	0	0	0	406.730483476655	406.7804580839	0.0499746072455309
81588	50	580	0	0	camper	249	271	1	stimuli\camper\camper_11s.jpg	10	-1	1	0	camper_11s.jpg	0	0	0	406.830486329243	406.880450696481	0.0499643672374077
81688	50	581	0	0	shredder	1437	272	1	stimuli\shredder\shredder_09s.jpg	8	-1	1	0	shredder_09s.jpg	0	0	0	406.930490400846	406.980464520486	0.0499741196399555
81788	50	582	0	0	waterwheel	1794	273	1	stimuli\waterwheel\waterwheel_12s.jpg	11	-1	1	0	waterwheel_12s.jpg	0	0	0	407.030493497237	407.080467373045	0.0499738758080639
81888	50	583	0	0	engine	557	274	1	stimuli\engine\engine_10s.jpg	9	-1	1	0	engine_10s.jpg	0	0	0	407.1304965936	407.180459497991	0.0499629043915775
81988	50	584	0	0	coyote	427	275	1	stimuli\coyote\coyote_09s.jpg	8	-1	1	0	coyote_09s.jpg	0	0	0	407.230498470948	407.280462594383	0.04996412343462
82088	50	585	0	0	hook1	793	276	1	stimuli\hook1\hook1_07s.jpg	6	-1	1	0	hook1_07s.jpg	0	0	0	407.330499373027	407.380478368839	0.0499789958121255
82188	50	586	0	0	throne	1652	277	1	stimuli\throne\throne_01b.jpg	0	-1	1	0	throne_01b.jpg	0	0	0	407.430506614182	407.480467568093	0.0499609539110679
82288	50	587	0	0	locker	941	278	1	stimuli\locker\locker_11n.jpg	10	-1	1	0	locker_11n.jpg	0	0	0	407.530507272459	407.580470420653	0.0499631481943652
82388	50	588	0	0	praying_mantis	1238	279	1	stimuli\praying_mantis\praying_mantis_01b.jpg	0	-1	1	0	praying_mantis_01b.jpg	0	0	0	407.630506955524	407.680473517044	0.049966561520705
82488	50	589	0	0	ironing_board	833	280	1	stimuli\ironing_board\ironing_board_02s.jpg	1	-1	1	0	ironing_board_02s.jpg	0	0	0	407.730499324272	407.780474175321	0.0499748510483187
82588	50	590	0	0	face	569	281	1	stimuli\face\face_08s.jpg	7	-1	1	0	face_08s.jpg	0	0	0	407.830502176861	407.880492631695	0.0499904548341874
82688	50	591	0	0	punching_bag	1256	282	1	stimuli\punching_bag\punching_bag_06s.jpg	5	-1	1	0	punching_bag_06s.jpg	0	0	0	407.930513075145	407.980481343315	0.049968268169323
82788	50	592	0	0	hyena	815	283	1	stimuli\hyena\hyena_10s.jpg	9	-1	1	1	hyena_10s.jpg	0	0	0	408.030519097229	408.080484439706	0.0499653424776625
82888	50	593	0	0	shield	1420	284	1	stimuli\shield\shield_04s.jpg	3	-1	1	0	shield_04s.jpg	0	0	0	408.130522681226	408.180486560857	0.0499638796318322
82988	50	594	0	0	salad	1348	285	1	stimuli\salad\salad_08s.jpg	7	-1	1	0	salad_08s.jpg	0	0	0	408.230511392845	408.280489169614	0.049977776769083
83088	50	595	0	0	wheelchair	1808	286	1	stimuli\wheelchair\wheelchair_01b.jpg	0	-1	1	0	wheelchair_01b.jpg	1	0.341903805936454	1	408.330511075881	408.380504456465	0.0499933805840556
83188	50	596	0	0	pear	1133	287	1	stimuli\pear\pear_01b.jpg	0	-1	1	0	pear_01b.jpg	0	0	0	408.430516366556	408.480496581411	0.049980214855168
83288	50	597	0	0	wax_paper	1796	288	1	stimuli\wax_paper\wax_paper_08s.jpg	7	-1	1	0	wax_paper_08s.jpg	0	0	0	408.530523851514	408.580509430176	0.0499855786620174
83388	50	598	0	0	floss	617	289	1	stimuli\floss\floss_06s.jpg	5	-1	1	0	floss_06s.jpg	0	0	0	408.630526704073	408.68051179513	0.0499850910564419
83488	50	599	0	0	collar	387	290	1	stimuli\collar\collar_09s.jpg	8	-1	1	0	collar_09s.jpg	0	0	0	408.730524436658	408.780513672478	0.0499892358202487
83588	50	600	0	0	frog	644	291	1	stimuli\frog\frog_12s.jpg	11	-1	1	0	frog_12s.jpg	0	0	0	408.830528264458	408.880519450759	0.0499911863007583
83688	50	601	0	0	omelet	1076	292	1	stimuli\omelet\omelet_01b.jpg	0	-1	1	0	omelet_01b.jpg	0	0	0	408.93053331133	408.980507430941	0.0499741196108516
83788	50	602	0	0	surfboard	1587	293	1	stimuli\surfboard\surfboard_04s.jpg	3	-1	1	0	surfboard_04s.jpg	0	0	0	409.030543478177	409.080511502572	0.0499680243956391
83888	50	603	0	0	stuffing	1575	294	1	stimuli\stuffing\stuffing_02s.jpg	1	-1	1	0	stuffing_02s.jpg	0	0	0	409.130549744092	409.180513379892	0.0499636357999407
83988	50	604	0	0	chicken1	322	295	1	stimuli\chicken1\chicken1_07s.jpg	6	-1	1	0	chicken1_07s.jpg	0	0	0	409.230550402368	409.280515501043	0.0499650986748748
84088	50	605	0	0	chest2	320	296	1	stimuli\chest2\chest2_11s.jpg	10	-1	1	0	chest2_11s.jpg	0	0	0	409.330553498759	409.380530300288	0.0499768015288282
84188	50	606	0	0	keyhole	871	297	1	stimuli\keyhole\keyhole_09s.jpg	8	-1	1	0	keyhole_09s.jpg	0	0	0	409.430557570362	409.48053242141	0.0499748510483187
84288	50	607	0	0	pecan	1135	298	1	stimuli\pecan\pecan_09s.jpg	8	-1	1	0	pecan_09s.jpg	0	0	0	409.530557984835	409.580524058751	0.0499660739151295
84388	50	608	0	0	coral	406	299	1	stimuli\coral\coral_11s.jpg	10	-1	1	0	coral_11s.jpg	0	0	0	409.630564738356	409.680541539885	0.0499768015288282
84488	50	609	0	0	potpie	1234	300	1	stimuli\potpie\potpie_03s.jpg	2	-1	1	0	potpie_03s.jpg	0	0	0	409.730554669019	409.780533421028	0.0499787520093378
84588	50	610	0	0	bone	161	301	1	stimuli\bone\bone_12s.jpg	11	-1	1	0	bone_12s.jpg	0	0	0	409.830567273981	409.880544563115	0.0499772891344037
84688	50	611	0	0	watermelon	1793	302	1	stimuli\watermelon\watermelon_12s.jpg	11	-1	1	0	watermelon_12s.jpg	0	0	0	409.930556717038	409.980534249975	0.0499775329371914
84788	50	612	0	0	rhubarb	1307	303	1	stimuli\rhubarb\rhubarb_07n.jpg	6	-1	1	0	rhubarb_07n.jpg	0	0	0	410.030572247691	410.080553437787	0.0499811900954228
84888	50	613	0	0	mattress	985	304	1	stimuli\mattress\mattress_10s.jpg	9	-1	1	0	mattress_10s.jpg	0	0	0	410.130577294563	410.180545075127	0.0499677805637475
84988	50	614	0	0	gearshift	668	305	1	stimuli\gearshift\gearshift_04n.jpg	3	-1	1	0	gearshift_04n.jpg	0	0	0	410.230567469029	410.280555485806	0.0499880167772062
85088	50	615	0	0	nightshirt	1058	306	1	stimuli\nightshirt\nightshirt_12s.jpg	11	-1	1	0	nightshirt_12s.jpg	0	0	0	410.330580073991	410.380558825971	0.0499787519802339
85188	50	616	0	0	sailboat	1347	307	1	stimuli\sailboat\sailboat_04s.jpg	3	-1	1	0	sailboat_04s.jpg	0	0	0	410.430584145593	410.480548269028	0.04996412343462
85288	50	617	0	0	scoop	1381	308	1	stimuli\scoop\scoop_11s.jpg	10	-1	1	0	scoop_11s.jpg	0	0	0	410.530584072461	410.58055234066	0.0499682681984268
95188	50	618	0	0	wall	1775	0	2	stimuli\wall\wall_09s.jpg	8	-1	2	0	wall_09s.jpg	0	0	0	420.430851604615	420.48082523662	0.0499736320052762
95288	50	619	0	0	money	1015	1	2	stimuli\money\money_01b.jpg	0	-1	2	0	money_01b.jpg	0	0	0	420.530848849565	420.580827845377	0.0499789958121255
95388	50	620	0	0	pulpit	1251	2	2	stimuli\pulpit\pulpit_07s.jpg	6	-1	2	0	pulpit_07s.jpg	0	0	0	420.630855846888	420.680835574138	0.0499797272495925
95488	50	621	0	0	wreck	1840	3	2	stimuli\wreck\wreck_05s.jpg	4	-1	2	0	wreck_05s.jpg	0	0	0	420.73085431091	420.780831843847	0.0499775329371914
95588	50	622	0	0	computer_screen	395	4	2	stimuli\computer_screen\computer_screen_12s.jpg	11	-1	2	0	computer_screen_12s.jpg	0	0	0	420.830860332993	420.880838353565	0.0499780205718707
95688	50	623	0	0	trap	1702	5	2	stimuli\trap\trap_09s.jpg	8	-1	2	0	trap_09s.jpg	0	0	0	420.930883665569	420.980837305193	0.049953639623709
95788	50	624	0	0	book	165	6	2	stimuli\book\book_08s.jpg	7	-1	2	0	book_08s.jpg	0	0	0	421.030862624815	421.08084088919	0.0499782643746585
95888	50	625	0	0	vending_machine	1757	7	2	stimuli\vending_machine\vending_machine_01b.jpg	0	-1	2	0	vending_machine_01b.jpg	0	0	0	421.130865477375	421.180842035101	0.0499765577260405
95988	50	626	0	0	noose	1062	8	2	stimuli\noose\noose_12s.jpg	11	-1	2	0	noose_12s.jpg	0	0	0	421.230866867088	421.280844156223	0.0499772891344037
96088	50	627	0	0	makeup	961	9	2	stimuli\makeup\makeup_03s.jpg	2	-1	2	0	makeup_03s.jpg	0	0	0	421.330871670129	421.380849934532	0.0499782644037623
96188	50	628	0	0	trapdoor	1703	10	2	stimuli\trapdoor\trapdoor_10s.jpg	9	-1	2	0	trapdoor_10s.jpg	0	0	0	421.430871596996	421.480871072796	0.0499994757992681
96288	50	629	0	0	cash_machine	279	11	2	stimuli\cash_machine\cash_machine_10s.jpg	9	-1	2	0	cash_machine_10s.jpg	0	0	0	421.530887615285	421.580870024423	0.0499824091384653
96388	50	630	0	0	wafer	1769	12	2	stimuli\wafer\wafer_11s.jpg	10	-1	2	0	wafer_11s.jpg	0	0	0	421.630904608814	421.680870926531	0.0499663177179173
96488	50	631	0	0	chute	342	13	2	stimuli\chute\chute_12s.jpg	11	-1	2	0	chute_12s.jpg	0	0	0	421.73090624233	421.780890845752	0.0499846034217626
96588	50	632	0	0	hole	785	14	2	stimuli\hole\hole_11s.jpg	10	-1	2	0	hole_11s.jpg	0	0	0	421.83090909489	421.880875412608	0.0499663177179173
96688	50	633	0	0	garbage	655	15	2	stimuli\garbage\garbage_06s.jpg	5	-1	2	0	garbage_06s.jpg	0	0	0	421.930895856029	421.98089557566	0.0499997196311597
96788	50	634	0	0	piano	1165	16	2	stimuli\piano\piano_03n.jpg	2	-1	2	0	piano_03n.jpg	0	0	0	422.030914312432	422.08089379585	0.049979483417701
96888	50	635	0	0	vise	1765	17	2	stimuli\vise\vise_04s.jpg	3	-1	2	0	vise_04s.jpg	0	0	0	422.130916921189	422.180898842693	0.049981921503786
96988	50	636	0	0	seatbelt	1399	18	2	stimuli\seatbelt\seatbelt_03s.jpg	2	-1	2	0	seatbelt_03s.jpg	0	0	0	422.230904657568	422.280904621002	0.0499999634339474
97088	50	637	0	0	hovercraft	808	19	2	stimuli\hovercraft\hovercraft_02s.jpg	1	-1	2	0	hovercraft_02s.jpg	0	0	0	422.330909216806	422.380905766884	0.0499965500785038
97188	50	638	0	0	fondue	626	20	2	stimuli\fondue\fondue_08n.jpg	7	-1	2	0	fondue_08n.jpg	0	0	0	422.430929867463	422.480903743271	0.0499738758080639
97288	50	639	0	0	hard_disk	752	21	2	stimuli\hard_disk\hard_disk_07s.jpg	6	-1	2	0	hard_disk_07s.jpg	0	0	0	422.530928575259	422.580895136809	0.0499665615498088
97388	50	640	0	0	pedometer	1137	22	2	stimuli\pedometer\pedometer_02s.jpg	1	-1	2	0	pedometer_02s.jpg	0	0	0	422.630932159285	422.680900427455	0.049968268169323
97488	50	641	0	0	shoe	1423	23	2	stimuli\shoe\shoe_07s.jpg	6	-1	2	0	shoe_07s.jpg	0	0	0	422.730936230888	422.780914495263	0.0499782643746585
97588	50	642	0	0	scuba	1392	24	2	stimuli\scuba\scuba_03s.jpg	2	-1	2	0	scuba_03s.jpg	0	0	0	422.830936645361	422.880920273572	0.0499836282106116
97688	50	643	0	0	barrel	76	25	2	stimuli\barrel\barrel_07s.jpg	6	-1	2	0	barrel_07s.jpg	0	0	0	422.93094047319	422.980920444214	0.0499799710232764
97788	50	644	0	0	card	271	26	2	stimuli\card\card_08s.jpg	7	-1	2	0	card_08s.jpg	0	0	0	423.030941375269	423.080924759648	0.0499833843787201
97888	50	645	0	0	stamp2	1536	27	2	stimuli\stamp2\stamp2_11s.jpg	10	-1	2	0	stamp2_11s.jpg	0	0	0	423.130947884987	423.180927368405	0.049979483417701
97988	50	646	0	0	breadstick	196	28	2	stimuli\breadstick\breadstick_09s.jpg	8	-1	2	0	breadstick_09s.jpg	0	0	0	423.230931720405	423.280931683839	0.0499999634339474
98088	50	647	0	0	guardrail	720	29	2	stimuli\guardrail\guardrail_03s.jpg	2	-1	2	0	guardrail_03s.jpg	0	0	0	423.330951883458	423.38093087927	0.0499789958121255
98188	50	648	0	0	firewood	597	30	2	stimuli\firewood\firewood_05s.jpg	4	-1	2	0	firewood_05s.jpg	0	0	0	423.430952054128	423.480929587095	0.0499775329662953
98288	50	649	0	0	ice-cream_cone	817	31	2	stimuli\ice-cream_cone\ice-cream_cone_12s.jpg	11	-1	2	0	ice-cream_cone_12s.jpg	0	0	0	423.530951980996	423.5809339025	0.049981921503786
98388	50	650	0	0	maggot	955	32	2	stimuli\maggot\maggot_03s.jpg	2	-1	2	0	maggot_03s.jpg	0	0	0	423.630954589753	423.680935779848	0.0499811900954228
98488	50	651	0	0	tablecloth	1609	33	2	stimuli\tablecloth\tablecloth_04s.jpg	3	-1	2	0	tablecloth_04s.jpg	0	0	0	423.730957686115	423.780942533369	0.0499848472536542
98588	50	652	0	0	mandolin	965	34	2	stimuli\mandolin\mandolin_08s.jpg	7	-1	2	0	mandolin_08s.jpg	0	0	0	423.830959075829	423.880940753559	0.0499816777301021
98688	50	653	0	0	garlic	658	35	2	stimuli\garlic\garlic_10n.jpg	9	-1	2	0	garlic_10n.jpg	0	0	0	423.930963635066	423.9809504328	0.0499867977341637
98788	50	654	0	0	stake	1533	36	2	stimuli\stake\stake_06s.jpg	5	-1	2	0	stake_06s.jpg	0	0	0	424.030968925741	424.080949384399	0.0499804586579558
98888	50	655	0	0	beanbag	103	37	2	stimuli\beanbag\beanbag_10s.jpg	9	-1	2	0	beanbag_10s.jpg	0	0	0	424.130966170691	424.180953699833	0.0499875291425269
98988	50	656	0	0	snack	1475	38	2	stimuli\snack\snack_10s.jpg	9	-1	2	0	snack_10s.jpg	0	0	0	424.230973899452	424.280951676221	0.049977776769083
99088	50	657	0	0	flatiron	613	39	2	stimuli\flatiron\flatiron_12s.jpg	11	-1	2	0	flatiron_12s.jpg	0	0	0	424.330972607277	424.380953797372	0.0499811900954228
