onset	duration	eventnumber	objectnumber	object	sequencenumber	presentationnumber	blocksequencenumber	withinsequencenumber	stimnumber	stim	istarget	stimname	response	rt	correct	time_stimon	time_stimoff	stimdur
10724	50	0	275	carousel	0	0	0	0	10	stimuli\carousel\carousel_11s.jpg	0	carousel_11s.jpg	0	0	0	61.5525595974177	61.6025400562212	0.0499804588034749
10824	50	1	1165	piano	0	1	0	0	4	stimuli\piano\piano_05n.jpg	0	piano_05n.jpg	0	0	0	61.6525602557231	61.702537545003	0.0499772892799228
10924	50	2	1735	turntable	0	2	0	0	11	stimuli\turntable\turntable_12s.jpg	0	turntable_12s.jpg	0	0	0	61.7525611578021	61.8025447861291	0.049983628327027
11024	50	3	1643	tent	0	3	0	0	7	stimuli\tent\tent_08n.jpg	0	tent_08n.jpg	0	0	0	61.85256425431	61.9025156996213	0.0499514453113079
11124	50	4	1564	stove2	0	4	0	0	8	stimuli\stove2\stove2_09s.jpg	0	stove2_09s.jpg	0	0	0	61.952542481944	62.0025163579267	0.0499738759826869
11224	50	5	129	birdbath	0	5	0	0	7	stimuli\birdbath\birdbath_08s.jpg	0	birdbath_08s.jpg	0	0	0	62.0525394831784	62.1031604295131	0.050620946334675
11324	50	6	522	drum	0	6	0	0	9	stimuli\drum\drum_10n.jpg	0	drum_10n.jpg	0	0	0	62.1525484309532	62.2025223069359	0.0499738759826869
11424	50	7	241	calf1	0	7	0	0	7	stimuli\calf1\calf1_08s.jpg	0	calf1_08s.jpg	0	0	0	62.2525520150084	62.3025312547106	0.0499792397022247
11524	50	8	1014	mole	0	8	0	0	4	stimuli\mole\mole_05s.jpg	0	mole_05s.jpg	0	0	0	62.352556086611	62.4025219166651	0.0499658300541341
11624	50	9	1558	stirrup	0	9	0	0	5	stimuli\stirrup\stirrup_06s.jpg	0	stirrup_06s.jpg	0	0	0	62.4525799069088	62.5025303768925	0.0499504699837416
11724	50	10	920	lettuce	0	10	0	0	6	stimuli\lettuce\lettuce_07n.jpg	0	lettuce_07n.jpg	0	0	0	62.5525576469954	62.6025388371199	0.0499811901245266
11824	50	11	967	manhole	0	11	0	0	10	stimuli\manhole\manhole_11s.jpg	0	manhole_11s.jpg	0	0	0	62.6525553795509	62.7025402267464	0.0499848471954465
11924	50	12	1334	rose	0	12	0	0	0	stimuli\rose\rose_01b.jpg	0	rose_01b.jpg	0	0	0	62.7525596949272	62.8025467365514	0.0499870416242629
12024	50	13	777	highchair	0	13	0	0	3	stimuli\highchair\highchair_04s.jpg	0	highchair_04s.jpg	0	0	0	62.8525618161075	62.9025464195292	0.0499846034217626
12124	50	14	1615	taffy	0	14	0	0	5	stimuli\taffy\taffy_06s.jpg	0	taffy_06s.jpg	0	0	0	62.9525683259126	63.002550978912	0.0499826529994607
12224	50	15	429	cracker	0	15	0	0	10	stimuli\cracker\cracker_11s.jpg	0	cracker_11s.jpg	0	0	0	63.0525719099678	63.1025482236873	0.0499763137195259
12324	50	16	192	branch	0	16	0	0	3	stimuli\branch\branch_04s.jpg	0	branch_04s.jpg	0	0	0	63.152569886297	63.2025547334924	0.0499848471954465
12424	50	17	999	microscope	0	17	0	0	0	stimuli\microscope\microscope_01b.jpg	0	microscope_01b.jpg	0	0	0	63.2525754207745	63.3025522222742	0.0499768014997244
12524	50	18	58	balance_beam	0	18	0	0	8	stimuli\balance_beam\balance_beam_09s.jpg	0	balance_beam_09s.jpg	0	0	0	63.3525811990257	63.4025753110182	0.0499941119924188
12624	50	19	1829	wire_cutters	0	19	0	0	2	stimuli\wire_cutters\wire_cutters_03s.jpg	0	wire_cutters_03s.jpg	0	0	0	63.4525835639797	63.5025559768546	0.0499724128749222
12724	50	20	1711	tricycle	0	20	0	0	3	stimuli\tricycle\tricycle_04s.jpg	0	tricycle_04s.jpg	0	0	0	63.5525817840826	63.6025651686359	0.0499833845533431
12824	50	21	798	horse	0	21	0	0	4	stimuli\horse\horse_05s.jpg	0	horse_05s.jpg	0	0	0	63.6525856119115	63.7025707031135	0.049985091201961
12924	50	22	886	ladder	0	22	0	0	5	stimuli\ladder\ladder_06s.jpg	0	ladder_06s.jpg	0	0	0	63.7525894397404	63.80256916699	0.0499797272495925
13024	50	23	1244	prune	0	23	0	0	8	stimuli\prune\prune_09s.jpg	0	prune_09s.jpg	0	0	0	63.8525937551167	63.9025732385926	0.0499794834759086
13124	50	24	1561	stool	0	24	0	0	9	stimuli\stool\stool_10s.jpg	0	stool_10s.jpg	0	0	0	63.9525951449759	64.0025704836007	0.0499753386247903
13224	50	25	1571	streetlight	0	25	0	0	0	stimuli\streetlight\streetlight_01b.jpg	0	streetlight_01b.jpg	0	0	0	64.0525965346023	64.1025804067031	0.0499838721007109
13324	50	26	4	air_conditioner	0	26	0	0	7	stimuli\air_conditioner\air_conditioner_08s.jpg	0	air_conditioner_08s.jpg	0	0	0	64.1526013377588	64.2025835029781	0.0499821652192622
13424	50	27	1425	shoehorn	0	27	0	0	3	stimuli\shoehorn\shoehorn_04s.jpg	0	shoehorn_04s.jpg	0	0	0	64.2526017520577	64.3025848926045	0.0499831405468285
13524	50	28	912	leggings	0	28	0	0	4	stimuli\leggings\leggings_05s.jpg	0	leggings_05s.jpg	0	0	0	64.3526107000653	64.4025809185114	0.0499702184461057
13624	50	29	545	eel	0	29	0	0	7	stimuli\eel\eel_08s.jpg	0	eel_08s.jpg	0	0	0	64.4526050190907	64.5025862092152	0.0499811901245266
13724	50	30	1477	snake	0	30	0	0	4	stimuli\snake\snake_05s.jpg	0	snake_05s.jpg	0	0	0	64.5526166488416	64.602592231473	0.0499755826313049
13824	50	31	1642	tennis_ball	0	31	0	0	7	stimuli\tennis_ball\tennis_ball_08s.jpg	0	tennis_ball_08s.jpg	0	0	0	64.6526143813971	64.7025941086467	0.0499797272495925
13924	50	32	468	cymbal	0	32	0	0	4	stimuli\cymbal\cymbal_05s.jpg	0	cymbal_05s.jpg	0	0	0	64.7526113826316	64.8025915974285	0.0499802147969604
14024	50	33	1210	poker	0	33	0	0	2	stimuli\poker\poker_03s.jpg	0	poker_03s.jpg	0	0	0	64.8526232561562	64.9026010329835	0.0499777768272907
14124	50	34	209	bucket	0	34	0	0	3	stimuli\bucket\bucket_04s.jpg	0	bucket_04s.jpg	0	0	0	64.9526224515866	65.0026048608124	0.0499824092257768
14224	50	35	650	fur_coat	0	35	0	0	5	stimuli\fur_coat\fur_coat_06s.jpg	0	fur_coat_06s.jpg	0	0	0	65.0526243289933	65.102603324689	0.0499789956957102
14324	50	36	62	bamboo	0	36	0	0	8	stimuli\bamboo\bamboo_09s.jpg	0	bamboo_09s.jpg	0	0	0	65.1526257186197	65.2026037392206	0.0499780206009746
14424	50	37	45	axe	0	37	0	0	10	stimuli\axe\axe_11n.jpg	0	axe_11n.jpg	0	0	0	65.2526271082461	65.3026073232759	0.049980215029791
14524	50	38	52	badge	0	38	0	0	1	stimuli\badge\badge_02s.jpg	0	badge_02s.jpg	0	0	0	65.3526277665514	65.4026172461454	0.0499894795939326
14624	50	39	1330	rooster	0	39	0	0	0	stimuli\rooster\rooster_01b.jpg	0	rooster_01b.jpg	0	0	0	65.4526340325829	65.5026108340826	0.0499768014997244
14724	50	40	1108	pants	0	40	0	0	1	stimuli\pants\pants_02s.jpg	0	pants_02s.jpg	0	0	0	65.5526376164053	65.6026180752087	0.0499804588034749
14824	50	41	18	amber	0	41	0	0	5	stimuli\amber\amber_06s.jpg	0	amber_06s.jpg	0	0	0	65.6526392500382	65.7026214154903	0.0499821654520929
14924	50	42	1804	whale	0	42	0	0	4	stimuli\whale\whale_05s.jpg	0	whale_05s.jpg	0	0	0	65.7526423463132	65.8026218297891	0.0499794834759086
15024	50	43	780	hip	0	43	0	0	8	stimuli\hip\hip_09s.jpg	0	hip_09s.jpg	0	0	0	65.8526476370171	65.9026293149218	0.0499816779047251
15124	50	44	1405	sewage	0	44	0	0	9	stimuli\sewage\sewage_10s.jpg	0	sewage_10s.jpg	0	0	0	65.9526451257989	66.0026248530485	0.0499797272495925
15224	50	45	443	cross	0	45	0	0	8	stimuli\cross\cross_09s.jpg	0	cross_09s.jpg	0	0	0	66.0526535860263	66.1026318504009	0.0499782643746585
15324	50	46	864	kazoo	0	46	0	0	4	stimuli\kazoo\kazoo_05s.jpg	0	kazoo_05s.jpg	0	0	0	66.1526515623555	66.2026600590907	0.050008496735245
15424	50	47	1486	snowsuit	0	47	0	0	1	stimuli\snowsuit\snowsuit_02s.jpg	0	snowsuit_02s.jpg	0	0	0	66.2526514893398	66.3026387745049	0.0499872851651162
15524	50	48	59	ball	0	48	0	0	9	stimuli\ball\ball_10s.jpg	0	ball_10s.jpg	0	0	0	66.3526555609424	66.4026396768168	0.0499841158743948
15624	50	49	1080	orangutan	0	49	0	0	11	stimuli\orangutan\orangutan_12s.jpg	0	orangutan_12s.jpg	0	0	0	66.4526601200923	66.5026391160209	0.0499789959285408
15724	50	50	454	crystal2	0	50	0	0	7	stimuli\crystal2\crystal2_08s.jpg	0	crystal2_08s.jpg	0	0	0	66.5526637041476	66.6026446504984	0.0499809463508427
15824	50	51	1849	yoke	0	51	0	0	4	stimuli\yoke\yoke_05s.jpg	0	yoke_05s.jpg	0	0	0	66.6526648500003	66.7026460401248	0.0499811901245266
15924	50	52	896	lanyard	0	52	0	0	11	stimuli\lanyard\lanyard_12s.jpg	0	lanyard_12s.jpg	0	0	0	66.7526689216029	66.8026515746024	0.0499826529994607
16024	50	53	1015	money	0	53	0	0	10	stimuli\money\money_11s.jpg	0	money_11s.jpg	0	0	0	66.8526729932055	66.9026505262591	0.0499775330536067
16124	50	54	1132	peanut_butter	0	54	0	0	9	stimuli\peanut_butter\peanut_butter_10s.jpg	0	peanut_butter_10s.jpg	0	0	0	66.952668531565	67.0026533787604	0.0499848471954465
16224	50	55	477	defibrillator	0	55	0	0	6	stimuli\defibrillator\defibrillator_07s.jpg	0	defibrillator_07s.jpg	0	0	0	67.0526735784952	67.1026562312618	0.0499826527666301
16324	50	56	707	grate	0	56	0	0	11	stimuli\grate\grate_12s.jpg	0	grate_12s.jpg	0	0	0	67.1526796005201	67.2026571335737	0.0499775330536067
16424	50	57	472	dandelion	0	57	0	0	5	stimuli\dandelion\dandelion_06s.jpg	0	dandelion_06s.jpg	0	0	0	67.2526797712781	67.3026641306933	0.049984359415248
16524	50	58	1386	scrambled_egg	0	58	0	0	0	stimuli\scrambled_egg\scrambled_egg_01b.jpg	0	scrambled_egg_01b.jpg	0	0	0	67.3526838428807	67.4026677147485	0.0499838718678802
16624	50	59	448	crown	0	59	0	0	9	stimuli\crown\crown_10s.jpg	0	crown_10s.jpg	0	0	0	67.4526874267031	67.5026608149055	0.0499733882024884
16724	50	60	1844	yacht	0	60	0	0	2	stimuli\yacht\yacht_03s.jpg	0	yacht_03s.jpg	0	0	0	67.5526939365081	67.6026717133354	0.0499777768272907
16824	50	61	941	locker	0	61	0	0	4	stimuli\locker\locker_05s.jpg	0	locker_05s.jpg	0	0	0	67.6526936194859	67.7026674954686	0.0499738759826869
16924	50	62	593	fire_pit	0	62	0	0	0	stimuli\fire_pit\fire_pit_01b.jpg	0	fire_pit_01b.jpg	0	0	0	67.7526952531189	67.8026740050409	0.0499787519220263
17024	50	63	44	awning	0	63	0	0	8	stimuli\awning\awning_09s.jpg	0	awning_09s.jpg	0	0	0	67.8527007875964	67.9026758824475	0.0499750948511064
17124	50	64	852	joystick	0	64	0	0	9	stimuli\joystick\joystick_10s.jpg	0	joystick_10s.jpg	0	0	0	67.9526997392531	68.0026765407529	0.0499768014997244
17224	50	65	1715	trolley	0	65	0	0	10	stimuli\trolley\trolley_11s.jpg	0	trolley_11s.jpg	0	0	0	68.052705761278	68.1026808561292	0.0499750948511064
17324	50	66	1139	peg	0	66	0	0	3	stimuli\peg\peg_04s.jpg	0	peg_04s.jpg	0	0	0	68.1527064195834	68.2026854152791	0.0499789956957102
17424	50	67	1315	road_sign	0	67	0	0	8	stimuli\road_sign\road_sign_09s.jpg	0	road_sign_09s.jpg	0	0	0	68.2527085407637	68.3026887555607	0.0499802147969604
17524	50	68	204	brownie	0	68	0	0	10	stimuli\brownie\brownie_11s.jpg	0	brownie_11s.jpg	0	0	0	68.352713587461	68.4026896576397	0.0499760701786727
17624	50	69	380	coffee_pot	0	69	0	0	8	stimuli\coffee_pot\coffee_pot_09s.jpg	0	coffee_pot_09s.jpg	0	0	0	68.4527132706717	68.5026908034924	0.0499775328207761
17724	50	70	1288	rattlesnake	0	70	0	0	4	stimuli\rattlesnake\rattlesnake_05s.jpg	0	rattlesnake_05s.jpg	0	0	0	68.5527168544941	68.6026975570712	0.0499807025771588
17824	50	71	1482	snowman	0	71	0	0	8	stimuli\snowman\snowman_09s.jpg	0	snowman_09s.jpg	0	0	0	68.6527194634546	68.7027016286738	0.0499821652192622
17924	50	72	1761	videocassette	0	72	0	0	6	stimuli\videocassette\videocassette_07n.jpg	0	videocassette_07n.jpg	0	0	0	68.752726460807	68.8027044811752	0.0499780203681439
18024	50	73	607	flamethrower	0	73	0	0	9	stimuli\flamethrower\flamethrower_10s.jpg	0	flamethrower_10s.jpg	0	0	0	68.8527271188796	68.9027044081595	0.0499772892799228
18124	50	74	247	camera2	0	74	0	0	9	stimuli\camera2\camera2_10s.jpg	0	camera2_10s.jpg	0	0	0	68.9527275334112	69.0027036035899	0.0499760701786727
18224	50	75	1521	spring_roll	0	75	0	0	2	stimuli\spring_roll\spring_roll_03s.jpg	0	spring_roll_03s.jpg	0	0	0	69.0527284354903	69.1027106009424	0.0499821654520929
18324	50	76	681	glue	0	76	0	0	10	stimuli\glue\glue_11s.jpg	0	glue_11s.jpg	0	0	0	69.1527322633192	69.2027110154741	0.0499787521548569
18424	50	77	1823	wine	0	77	0	0	8	stimuli\wine\wine_09s.jpg	0	wine_09s.jpg	0	0	0	69.2527373102494	69.3027153308503	0.0499780206009746
18524	50	78	1456	skin	0	78	0	0	6	stimuli\skin\skin_07s.jpg	0	skin_07s.jpg	0	0	0	69.3527386998758	69.4027184271254	0.0499797272495925
18624	50	79	1025	motorcycle	0	79	0	0	9	stimuli\motorcycle\motorcycle_10s.jpg	0	motorcycle_10s.jpg	0	0	0	69.4527386268601	69.5027139654849	0.0499753386247903
18724	50	80	1807	wheelbarrow	0	80	0	0	0	stimuli\wheelbarrow\wheelbarrow_01b.jpg	0	wheelbarrow_01b.jpg	0	0	0	69.5527568394318	69.6027380295563	0.0499811901245266
18824	50	81	1039	mullet	0	81	0	0	4	stimuli\mullet\mullet_05s.jpg	0	mullet_05s.jpg	0	0	0	69.6527557910886	69.702733567683	0.04997777659446
18924	50	82	1699	train_car	0	82	0	0	5	stimuli\train_car\train_car_06s.jpg	0	train_car_06s.jpg	0	0	0	69.7527598626912	69.8027456849813	0.0499858222901821
19024	50	83	1372	scallion	0	83	0	0	9	stimuli\scallion\scallion_10s.jpg	0	scallion_10s.jpg	0	0	0	69.8527644218411	69.9027412233409	0.0499768014997244
19124	50	84	388	column	0	84	0	0	4	stimuli\column\column_05s.jpg	0	column_05s.jpg	0	0	0	69.9527648363728	70.0027448073961	0.0499799710232764
19224	50	85	621	fly	0	85	0	0	1	stimuli\fly\fly_02s.jpg	0	fly_02s.jpg	0	0	0	70.0527681764215	70.1027471723501	0.0499789959285408
19324	50	86	581	fig	0	86	0	0	11	stimuli\fig\fig_12s.jpg	0	fig_12s.jpg	0	0	0	70.1527685909532	70.2027488057502	0.0499802147969604
19424	50	87	1203	plum	0	87	0	0	9	stimuli\plum\plum_10s.jpg	0	plum_10s.jpg	0	0	0	70.2527685179375	70.3027565346565	0.0499880167189986
19524	50	88	1022	moss	0	88	0	0	11	stimuli\moss\moss_12s.jpg	0	moss_12s.jpg	0	0	0	70.352796970401	70.4027630442288	0.049966073827818
19624	50	89	1733	turkey	0	89	0	0	10	stimuli\turkey\turkey_11s.jpg	0	turkey_11s.jpg	0	0	0	70.4527976287063	70.5027661407366	0.0499685120303184
19724	50	90	1034	muff	0	90	0	0	4	stimuli\muff\muff_05s.jpg	0	muff_05s.jpg	0	0	0	70.5527826831676	70.6027570466977	0.0499743635300547
19824	50	91	805	hotdog	0	91	0	0	2	stimuli\hotdog\hotdog_03s.jpg	0	hotdog_03s.jpg	0	0	0	70.6527777337469	70.702762093395	0.0499843596480787
19924	50	92	1206	pocket_watch	0	92	0	0	3	stimuli\pocket_watch\pocket_watch_04s.jpg	0	pocket_watch_04s.jpg	0	0	0	70.7527871693019	70.802764458349	0.0499772890470922
20024	50	93	1747	uniform	0	93	0	0	0	stimuli\uniform\uniform_01b.jpg	0	uniform_01b.jpg	0	0	0	70.8527892904822	70.902789497748	0.050000207265839
20124	50	94	70	banner	0	94	0	0	8	stimuli\banner\banner_09s.jpg	0	banner_09s.jpg	0	0	0	70.9527950687334	71.0027774777263	0.0499824089929461
20224	50	95	983	match	0	95	0	0	8	stimuli\match\match_09s.jpg	0	match_09s.jpg	0	0	0	71.0528132813051	71.1027934961021	0.0499802147969604
20324	50	96	497	doghouse	0	96	0	0	3	stimuli\doghouse\doghouse_04s.jpg	0	doghouse_04s.jpg	0	0	0	71.1528158900328	71.2028002496809	0.0499843596480787
20424	50	97	1523	sprinkler	0	97	0	0	4	stimuli\sprinkler\sprinkler_05s.jpg	0	sprinkler_05s.jpg	0	0	0	71.252819474088	71.3027994451113	0.0499799710232764
20524	50	98	1633	teacup	0	98	0	0	2	stimuli\teacup\teacup_03s.jpg	0	teacup_03s.jpg	0	0	0	71.3528225703631	71.4028015662916	0.0499789959285408
20624	50	99	827	incubator	0	99	0	0	1	stimuli\incubator\incubator_02s.jpg	0	incubator_02s.jpg	0	0	0	71.4528083563782	71.5028068569954	0.049998500617221
20724	50	100	848	jetski	0	100	0	0	3	stimuli\jetski\jetski_04s.jpg	0	jetski_04s.jpg	0	0	0	71.5528280318249	71.6028104408178	0.0499824089929461
20824	50	101	1361	satellite_dish	0	101	0	0	4	stimuli\satellite_dish\satellite_dish_05s.jpg	0	satellite_dish_05s.jpg	0	0	0	71.6528279585764	71.7028118306771	0.0499838721007109
20924	50	102	354	cleaver	0	102	0	0	1	stimuli\cleaver\cleaver_02s.jpg	0	cleaver_02s.jpg	0	0	0	71.7528364188038	71.8028166336007	0.0499802147969604
21024	50	103	751	hanger	0	103	0	0	6	stimuli\hanger\hanger_07s.jpg	0	hanger_07s.jpg	0	0	0	71.8528407341801	71.9028146099299	0.0499738757498562
21124	50	104	1123	pasta	0	104	0	0	4	stimuli\pasta\pasta_05s.jpg	0	pasta_05s.jpg	0	0	0	71.9528211562429	72.002820388414	0.0499992321711034
21224	50	105	1439	shuffleboard	0	105	0	0	11	stimuli\shuffleboard\shuffleboard_12s.jpg	0	shuffleboard_12s.jpg	0	0	0	72.0528288851492	72.1027981285006	0.0499692433513701
21324	50	106	1588	sushi	0	106	0	0	10	stimuli\sushi\sushi_11s.jpg	0	sushi_11s.jpg	0	0	0	72.152822960401	72.2028026876505	0.0499797272495925
21424	50	107	1381	scoop	0	107	0	0	11	stimuli\scoop\scoop_12s.jpg	0	scoop_12s.jpg	0	0	0	72.2528294702061	72.3028072470333	0.0499777768272907
21524	50	108	1511	speedboat	0	108	0	0	1	stimuli\speedboat\speedboat_02s.jpg	0	speedboat_02s.jpg	0	0	0	72.3528257398866	72.4028035167139	0.0499777768272907
21624	50	109	767	headrest	0	109	0	0	8	stimuli\headrest\headrest_09s.jpg	0	headrest_09s.jpg	0	0	0	72.4528254228644	72.5028083196376	0.0499828967731446
21724	50	110	177	bowl	0	110	0	0	9	stimuli\bowl\bowl_10n.jpg	1	bowl_10n.jpg	0	0	0	72.5528275440447	72.6028126352467	0.049985091201961
21824	50	111	898	lasagna	0	111	0	0	10	stimuli\lasagna\lasagna_11s.jpg	0	lasagna_11s.jpg	0	0	0	72.6528325909749	72.7028067104984	0.0499741195235401
21924	50	112	1359	sardine	0	112	0	0	9	stimuli\sardine\sardine_10s.jpg	0	sardine_10s.jpg	0	0	0	72.7528344683815	72.8028268737253	0.0499924053438008
22025	50	113	1041	music_box	0	113	0	0	11	stimuli\music_box\music_box_12s.jpg	0	music_box_12s.jpg	0	0	0	72.852878524689	72.9028411852196	0.0499626605305821
22124	50	114	221	bungee	0	114	0	0	7	stimuli\bungee\bungee_08s.jpg	0	bungee_08s.jpg	1	0.392384805483744	1	72.9528452935629	73.0028259959072	0.0499807023443282
22224	50	115	1594	sweeper	0	115	0	0	11	stimuli\sweeper\sweeper_12s.jpg	0	sweeper_12s.jpg	0	0	0	73.052844732767	73.1028261666652	0.0499814338982105
22324	50	116	335	chips	0	116	0	0	3	stimuli\chips\chips_04s.jpg	0	chips_04s.jpg	0	0	0	73.1528495356906	73.2028338953387	0.0499843596480787
22424	50	117	1066	nut	0	117	0	0	3	stimuli\nut\nut_04s.jpg	0	nut_04s.jpg	0	0	0	73.2528538510669	73.3028330907691	0.0499792397022247
22524	50	118	1720	truck	0	118	0	0	10	stimuli\truck\truck_11s.jpg	0	truck_11s.jpg	0	0	0	73.3528528027236	73.4028364310507	0.049983628327027
22624	50	119	1762	videogame	0	119	0	0	8	stimuli\videogame\videogame_09s.jpg	0	videogame_09s.jpg	0	0	0	73.4528522419278	73.5028329445049	0.0499807025771588
22725	50	120	758	hatbox	0	120	0	0	9	stimuli\hatbox\hatbox_10s.jpg	0	hatbox_10s.jpg	0	0	0	73.5528753306717	73.6028613969684	0.0499860662966967
22825	50	121	1002	milkshake	0	121	0	0	6	stimuli\milkshake\milkshake_07s.jpg	0	milkshake_07s.jpg	0	0	0	73.6528794025071	73.702854009578	0.049974607070908
22925	50	122	1500	soy_sauce	0	122	0	0	3	stimuli\soy_sauce\soy_sauce_04s.jpg	0	soy_sauce_04s.jpg	0	0	0	73.7528790854849	73.8028663708828	0.0499872853979468
23025	50	123	60	balloon	0	123	0	0	8	stimuli\balloon\balloon_09s.jpg	0	balloon_09s.jpg	0	0	0	73.8528875457123	73.9028614214621	0.0499738757498562
23125	50	124	961	makeup	0	124	0	0	11	stimuli\makeup\makeup_12s.jpg	0	makeup_12s.jpg	0	0	0	73.9528884477913	74.0028669559397	0.0499785081483424
23224	50	125	89	bathmat	0	125	0	0	7	stimuli\bathmat\bathmat_08s.jpg	0	bathmat_08s.jpg	0	0	0	74.0528654565569	74.1028454275802	0.0499799710232764
23324	50	126	631	footbath	0	126	0	0	0	stimuli\footbath\footbath_01s.jpg	0	footbath_01s.jpg	0	0	0	74.1528614824638	74.2028416972607	0.0499802147969604
23424	50	127	1440	shutter	0	127	0	0	0	stimuli\shutter\shutter_01b.jpg	0	shutter_01b.jpg	0	0	0	74.2528648225125	74.3028508888092	0.0499860662966967
23524	50	128	1259	purse	0	128	0	0	11	stimuli\purse\purse_12s.jpg	0	purse_12s.jpg	0	0	0	74.3528720636386	74.4028522786684	0.049980215029791
23624	50	129	1214	police_car	0	129	0	0	6	stimuli\police_car\police_car_07s.jpg	0	police_car_07s.jpg	0	0	0	74.4528717468493	74.5028546436224	0.0499828967731446
23724	50	130	1184	ping-pong_table	0	130	0	0	4	stimuli\ping-pong_table\ping-pong_table_05s.jpg	0	ping-pong_table_05s.jpg	0	0	0	74.5528753306717	74.6028553019278	0.0499799712561071
23824	50	131	806	hotplate	0	131	0	0	7	stimuli\hotplate\hotplate_08s.jpg	0	hotplate_08s.jpg	0	0	0	74.6528776956256	74.7028583982028	0.0499807025771588
23924	50	132	1325	roller_coaster	0	132	0	0	11	stimuli\roller_coaster\roller_coaster_12s.jpg	0	roller_coaster_12s.jpg	0	0	0	74.7528822550084	74.8028649080079	0.0499826529994607
24025	50	133	348	cinnamon	0	133	0	0	5	stimuli\cinnamon\cinnamon_06s.jpg	0	cinnamon_06s.jpg	0	0	0	74.8528865703847	74.9028653223068	0.0499787519220263
24125	50	134	345	cigarette_butt	0	134	0	0	4	stimuli\cigarette_butt\cigarette_butt_05s.jpg	0	cigarette_butt_05s.jpg	0	0	0	74.9528813771904	75.0028615922201	0.049980215029791
24225	50	135	1028	mousepad	0	135	0	0	11	stimuli\mousepad\mousepad_12s.jpg	0	mousepad_12s.jpg	0	0	0	75.0528847174719	75.1028717588633	0.0499870413914323
24325	50	136	464	curry	0	136	0	0	6	stimuli\curry\curry_07s.jpg	0	curry_07s.jpg	0	0	0	75.1528875699732	75.2028685163241	0.0499809463508427
24425	50	137	25	anteater	0	137	0	0	8	stimuli\anteater\anteater_09s.jpg	0	anteater_09s.jpg	0	0	0	75.2528913978022	75.3028767327778	0.0499853349756449
24524	50	138	1578	subway	0	138	0	0	7	stimuli\subway\subway_08s.jpg	0	subway_08s.jpg	0	0	0	75.352896688506	75.4028766595293	0.0499799710232764
24624	50	139	408	cordon_bleu	0	139	0	0	10	stimuli\cordon_bleu\cordon_bleu_11s.jpg	1	cordon_bleu_11s.jpg	0	0	0	75.4528953963891	75.5028736607637	0.0499782643746585
24725	50	140	1105	panda	0	140	0	0	8	stimuli\panda\panda_09s.jpg	0	panda_09s.jpg	0	0	0	75.5529172660317	75.6028896789066	0.0499724128749222
24825	50	141	1122	parsley	0	141	0	0	7	stimuli\parsley\parsley_08s.jpg	0	parsley_08s.jpg	0	0	0	75.6529191434383	75.7028991144616	0.0499799710232764
24925	50	142	475	dashboard	0	142	0	0	10	stimuli\dashboard\dashboard_11s.jpg	0	dashboard_11s.jpg	0	0	0	75.7529244339094	75.8029009916354	0.0499765577260405
25025	50	143	828	inhaler	0	143	0	0	1	stimuli\inhaler\inhaler_02s.jpg	0	inhaler_02s.jpg	0	0	0	75.852922654245	75.9029238366056	0.0500011823605746
25125	50	144	1052	navel	0	144	0	0	2	stimuli\navel\navel_03s.jpg	0	navel_03s.jpg	1	0.542022150941193	1	75.9529235563241	76.0029057215434	0.0499821652192622
25225	50	145	704	grapevine	0	145	0	0	0	stimuli\grapevine\grapevine_01b.jpg	0	grapevine_01b.jpg	0	0	0	76.0529327478725	76.1029012599029	0.0499685120303184
25325	50	146	1183	pinecone	0	146	0	0	0	stimuli\pinecone\pinecone_01b.jpg	0	pinecone_01b.jpg	0	0	0	76.1529285300057	76.2029067943804	0.0499782643746585
25425	50	147	723	guitar	0	147	0	0	1	stimuli\guitar\guitar_02s.jpg	0	guitar_02s.jpg	0	0	0	76.2529338207096	76.3029274451546	0.049993624445051
25525	50	148	940	lock	0	148	0	0	10	stimuli\lock\lock_11s.jpg	0	lock_11s.jpg	0	0	0	76.3529391114134	76.4029159129132	0.0499768014997244
25625	50	149	551	eggshell	0	149	0	0	8	stimuli\eggshell\eggshell_09s.jpg	0	eggshell_09s.jpg	0	0	0	76.4529368439689	76.5029114510398	0.049974607070908
25725	50	150	1350	saltshaker	0	150	0	0	2	stimuli\saltshaker\saltshaker_03s.jpg	0	saltshaker_03s.jpg	0	0	0	76.5529423784465	76.6029133284464	0.0499709499999881
25825	50	151	1712	trident	0	151	0	0	4	stimuli\trident\trident_05s.jpg	0	trident_05s.jpg	0	0	0	76.6529357223772	76.7029117925558	0.0499760701786727
25925	50	152	1247	puddle	0	152	0	0	2	stimuli\puddle\puddle_03s.jpg	0	puddle_03s.jpg	0	0	0	76.7529344302602	76.8029048927128	0.0499704624526203
26025	50	153	1493	solar_panel	0	153	0	0	10	stimuli\solar_panel\solar_panel_11s.jpg	0	solar_panel_11s.jpg	0	0	0	76.8529370389879	76.9029157909099	0.0499787519220263
26125	50	154	11	album	0	154	0	0	0	stimuli\album\album_01s.jpg	0	album_01s.jpg	0	0	0	76.9529450114351	77.0029157178942	0.0499707064591348
26225	50	155	785	hole	0	155	0	0	0	stimuli\hole\hole_01b.jpg	0	hole_01b.jpg	0	0	0	77.0529485954903	77.1029317360371	0.0499831405468285
26325	50	156	1604	syringe	0	156	0	0	11	stimuli\syringe\syringe_12s.jpg	0	syringe_12s.jpg	0	0	0	77.1529575432651	77.2029380020685	0.0499804588034749
26425	50	157	1680	toothpaste	0	157	0	0	9	stimuli\toothpaste\toothpaste_10s.jpg	0	toothpaste_10s.jpg	0	0	0	77.2529579577968	77.3029523135629	0.0499943557661027
26525	50	158	1516	splinter	0	158	0	0	10	stimuli\splinter\splinter_11s.jpg	0	splinter_11s.jpg	0	0	0	77.352961541852	77.4029422441963	0.0499807023443282
26625	50	159	1049	nail_polish	0	159	0	0	5	stimuli\nail_polish\nail_polish_06s.jpg	0	nail_polish_06s.jpg	0	0	0	77.4529597619548	77.5029368072283	0.0499770452734083
26725	50	160	1657	ticktacktoe	0	160	0	0	2	stimuli\ticktacktoe\ticktacktoe_03s.jpg	0	ticktacktoe_03s.jpg	0	0	0	77.5529409155715	77.6029496560805	0.0500087405089289
26825	50	161	264	canvas	0	161	0	0	6	stimuli\canvas\canvas_07s.jpg	0	canvas_07s.jpg	0	0	0	77.6529659547377	77.7029505581595	0.0499846034217626
26925	50	162	1062	noose	0	162	0	0	9	stimuli\noose\noose_10s.jpg	0	noose_10s.jpg	0	0	0	77.7529744149651	77.8029219594318	0.0499475444667041
27025	50	163	1592	sweater	0	163	0	0	6	stimuli\sweater\sweater_07s.jpg	0	sweater_07s.jpg	0	0	0	77.8529770236928	77.9029613833409	0.0499843596480787
27125	50	164	1149	pepper1	0	164	0	0	8	stimuli\pepper1\pepper1_09s.jpg	0	pepper1_09s.jpg	0	0	0	77.9529784133192	78.0029596034437	0.0499811901245266
27225	50	165	420	cot	0	165	0	0	4	stimuli\cot\cot_05s.jpg	0	cot_05s.jpg	0	0	0	78.052985166898	78.1029585551005	0.0499733882024884
27325	50	166	872	kilt	0	166	0	0	6	stimuli\kilt\kilt_07s.jpg	0	kilt_07s.jpg	0	0	0	78.1529828994535	78.2029896895401	0.050006790086627
27425	50	167	114	beet	0	167	0	0	5	stimuli\beet\beet_06s.jpg	0	beet_06s.jpg	0	0	0	78.2529813635629	78.3029657232109	0.0499843596480787
27525	50	168	985	mattress	0	168	0	0	3	stimuli\mattress\mattress_04s.jpg	0	mattress_04s.jpg	0	0	0	78.352990067564	78.4029741834383	0.0499841158743948
27625	50	169	746	handcuff	0	169	0	0	9	stimuli\handcuff\handcuff_10s.jpg	0	handcuff_10s.jpg	0	0	0	78.4529929200653	78.5029702093452	0.0499772892799228
27725	50	170	1167	pickle	0	170	0	0	5	stimuli\pickle\pickle_06n.jpg	0	pickle_06n.jpg	0	0	0	78.5529945536982	78.6029745247215	0.0499799710232764
27825	50	171	1135	pecan	0	171	0	0	9	stimuli\pecan\pecan_10s.jpg	0	pecan_10s.jpg	0	0	0	78.6529976499733	78.7029764018953	0.0499787519220263
27925	50	172	409	cork	0	172	0	0	4	stimuli\cork\cork_05s.jpg	0	cork_05s.jpg	0	0	0	78.7529936758801	78.802976816427	0.0499831405468285
28025	50	173	1033	mud	0	173	0	0	4	stimuli\mud\mud_05s.jpg	0	mud_05s.jpg	0	0	0	78.8530026236549	78.9029843013268	0.0499816776718944
28125	50	174	846	jersey	0	174	0	0	1	stimuli\jersey\jersey_02s.jpg	0	jersey_02s.jpg	0	0	0	78.9530037695076	79.0029837407637	0.0499799712561071
28225	50	175	993	megaphone	0	175	0	0	10	stimuli\megaphone\megaphone_11s.jpg	1	megaphone_11s.jpg	0	0	0	79.0530034527183	79.1029826921877	0.0499792394693941
28325	50	176	1665	toast	0	176	0	0	4	stimuli\toast\toast_05s.jpg	0	toast_05s.jpg	0	0	0	79.1530080118682	79.2029879828915	0.0499799710232764
28425	50	177	730	gyro	0	177	0	0	5	stimuli\gyro\gyro_06s.jpg	0	gyro_06s.jpg	0	0	0	79.2530135463458	79.3029954677913	0.0499819214455783
28525	50	178	1753	vase	0	178	0	0	7	stimuli\vase\vase_08s.jpg	0	vase_08s.jpg	0	0	0	79.3530161550734	79.4029868615326	0.0499707064591348
28625	50	179	708	grater	0	179	0	0	3	stimuli\grater\grater_04s.jpg	0	grater_04s.jpg	1	0.400181101635098	1	79.4530073048081	79.5029780110344	0.0499707062263042
28725	50	180	3	acorn	0	180	0	0	8	stimuli\acorn\acorn_09s.jpg	0	acorn_09s.jpg	0	0	0	79.5530211287551	79.6030157285277	0.0499945997726172
28825	50	181	1102	palm_tree	0	181	0	0	1	stimuli\palm_tree\palm_tree_02s.jpg	0	palm_tree_02s.jpg	0	0	0	79.653022762388	79.7030039525125	0.0499811901245266
28925	50	182	1106	panther	0	182	0	0	5	stimuli\panther\panther_06s.jpg	0	panther_06s.jpg	0	0	0	79.7530073293019	79.8030082678888	0.0500009385868907
29025	50	183	1276	rag	0	183	0	0	1	stimuli\rag\rag_02s.jpg	0	rag_02s.jpg	0	0	0	79.8530384637415	79.9029996613972	0.049961197655648
29125	50	184	1610	tablet	0	184	0	0	10	stimuli\tablet\tablet_11s.jpg	0	tablet_11s.jpg	0	0	0	79.9530369276181	80.0030139731243	0.0499770455062389
29225	50	185	1254	punch1	0	185	0	0	1	stimuli\punch1\punch1_02s.jpg	0	punch1_02s.jpg	0	0	0	80.0530327097513	80.1030148752034	0.0499821654520929
29325	50	186	678	glasses	0	186	0	0	7	stimuli\glasses\glasses_08s.jpg	0	glasses_08s.jpg	0	0	0	80.1530377566814	80.2030206534546	0.0499828967731446
29425	50	187	938	llama	0	187	0	0	5	stimuli\llama\llama_06s.jpg	0	llama_06s.jpg	0	0	0	80.2530359767843	80.3030166793615	0.0499807025771588
29525	50	188	1228	possum	0	188	0	0	8	stimuli\possum\possum_09s.jpg	0	possum_09s.jpg	0	0	0	80.3530395608395	80.4030261146836	0.0499865538440645
29625	50	189	57	baklava	0	189	0	0	7	stimuli\baklava\baklava_08s.jpg	0	baklava_08s.jpg	0	0	0	80.4530448515434	80.5030250663403	0.0499802147969604
29725	50	190	1647	thermos	0	190	0	0	2	stimuli\thermos\thermos_03s.jpg	0	thermos_03s.jpg	0	0	0	80.5530438032001	80.6030128027778	0.0499689995776862
29825	50	191	470	daisy	0	191	0	0	2	stimuli\daisy\daisy_03s.jpg	0	daisy_03s.jpg	0	0	0	80.6530364158098	80.7030195563566	0.0499831405468285
29925	50	192	1301	reindeer	0	192	0	0	8	stimuli\reindeer\reindeer_09s.jpg	0	reindeer_09s.jpg	0	0	0	80.7530919311102	80.8030675135087	0.0499755823984742
30025	50	193	362	clothesline	0	193	0	0	1	stimuli\clothesline\clothesline_02s.jpg	0	clothesline_02s.jpg	0	0	0	80.8530379761942	80.9030576881487	0.0500197119545192
30125	50	194	1127	payphone	0	194	0	0	5	stimuli\payphone\payphone_06s.jpg	0	payphone_06s.jpg	0	0	0	80.9530708172824	81.0030381102115	0.0499672929290682
30225	50	195	1196	plastic_film	0	195	0	0	10	stimuli\plastic_film\plastic_film_11s.jpg	0	plastic_film_11s.jpg	0	0	0	81.0530761079863	81.1030507150572	0.049974607070908
30325	50	196	370	coat_rack	0	196	0	0	8	stimuli\coat_rack\coat_rack_09s.jpg	0	coat_rack_09s.jpg	0	0	0	81.1530477527995	81.2030296744779	0.049981921678409
30425	50	197	187	bracelet1	0	197	0	0	8	stimuli\bracelet1\bracelet1_09s.jpg	0	bracelet1_09s.jpg	0	0	0	81.2530652340502	81.3030459363945	0.0499807023443282
30525	50	198	1635	teddy_bear	0	198	0	0	10	stimuli\teddy_bear\teddy_bear_11s.jpg	0	teddy_bear_11s.jpg	0	0	0	81.353064917028	81.4030465946998	0.0499816776718944
30625	50	199	1128	pea	0	199	0	0	0	stimuli\pea\pea_01s.jpg	0	pea_01s.jpg	0	0	0	81.4530694761779	81.5030462779105	0.049976801732555
30725	50	200	1632	teabag	0	200	0	0	11	stimuli\teabag\teabag_12s.jpg	0	teabag_12s.jpg	0	0	0	81.5530793992803	81.6030498617329	0.0499704624526203
30825	50	201	1847	yo-yo	0	201	0	0	10	stimuli\yo-yo\yo-yo_11s.jpg	0	yo-yo_11s.jpg	0	0	0	81.6530751814134	81.7030536895618	0.0499785081483424
30925	50	202	66	bandage	0	202	0	0	6	stimuli\bandage\bandage_07s.jpg	0	bandage_07s.jpg	0	0	0	81.7530697444454	81.803049471695	0.0499797272495925
31025	50	203	1378	school_bus	0	203	0	0	10	stimuli\school_bus\school_bus_11s.jpg	0	school_bus_11s.jpg	0	0	0	81.8530884445645	81.903088164283	0.0499997197184712
31125	50	204	144	blouse	0	204	0	0	1	stimuli\blouse\blouse_02s.jpg	0	blouse_02s.jpg	0	0	0	81.953103243839	82.0030844339635	0.0499811901245266
31225	50	205	170	bottle	0	205	0	0	2	stimuli\bottle\bottle_03s.jpg	0	bottle_03s.jpg	0	0	0	82.0531070716679	82.1030902122147	0.0499831405468285
31325	50	206	34	aquarium	0	206	0	0	6	stimuli\aquarium\aquarium_07s.jpg	0	aquarium_07s.jpg	0	0	0	82.1530921261292	82.2030716096051	0.0499794834759086
31425	50	207	927	lightbulb	0	207	0	0	7	stimuli\lightbulb\lightbulb_08s.jpg	0	lightbulb_08s.jpg	0	0	0	82.2530927844346	82.3030729992315	0.0499802147969604
31525	50	208	29	appetizer	0	208	0	0	7	stimuli\appetizer\appetizer_08s.jpg	0	appetizer_08s.jpg	0	0	0	82.3530936865136	82.403077802388	0.0499841158743948
31625	50	209	1544	steak	0	209	0	0	10	stimuli\steak\steak_11s.jpg	0	steak_11s.jpg	0	0	0	82.4530936134979	82.5030762662645	0.0499826527666301
31725	50	210	1547	stem	0	210	0	0	2	stimuli\stem\stem_03s.jpg	0	stem_03s.jpg	0	0	0	82.5530947593506	82.603082532296	0.0499877729453146
31825	50	211	575	fence	0	211	0	0	8	stimuli\fence\fence_09s.jpg	0	fence_09s.jpg	0	0	0	82.6531071204226	82.7030875792261	0.0499804588034749
31925	50	212	511	doormat	0	212	0	0	3	stimuli\doormat\doormat_04s.jpg	0	doormat_04s.jpg	0	0	0	82.7531014396809	82.8030853117816	0.0499838721007109
32025	50	213	550	eggplant	0	213	0	0	3	stimuli\eggplant\eggplant_04s.jpg	1	eggplant_04s.jpg	0	0	0	82.8531140447594	82.9031098634005	0.0499958186410367
32125	50	214	224	burner	0	214	0	0	6	stimuli\burner\burner_07n.jpg	0	burner_07n.jpg	0	0	0	82.9531571257394	83.0031163729727	0.0499592472333461
32225	50	215	1653	thumb	0	215	0	0	10	stimuli\thumb\thumb_11s.jpg	0	thumb_11s.jpg	0	0	0	83.0531151173636	83.1030824102927	0.0499672929290682
32325	50	216	1279	raincoat	0	216	0	0	3	stimuli\raincoat\raincoat_04s.jpg	0	raincoat_04s.jpg	0	0	0	83.1531282099895	83.2031018419657	0.0499736319761723
32425	50	217	378	coffee_bean	0	217	0	0	1	stimuli\coffee_bean\coffee_bean_02s.jpg	0	coffee_bean_02s.jpg	1	0.441997843096033	1	83.2530813254416	83.3031200545374	0.0500387290958315
32525	50	218	705	grass	0	218	0	0	3	stimuli\grass\grass_04s.jpg	0	grass_04s.jpg	0	0	0	83.3531400102656	83.4030929184519	0.049952908186242
32625	50	219	594	firecracker	0	219	0	0	7	stimuli\firecracker\firecracker_08s.jpg	0	firecracker_08s.jpg	0	0	0	83.4531123866327	83.5031513597351	0.0500389731023461
32725	50	220	142	blindfold	0	220	0	0	3	stimuli\blindfold\blindfold_04s.jpg	0	blindfold_04s.jpg	0	0	0	83.5531413268764	83.603138120845	0.049996793968603
32825	50	221	342	chute	0	221	0	0	2	stimuli\chute\chute_03s.jpg	0	chute_03s.jpg	0	0	0	83.6531310137361	83.7031078152359	0.0499768014997244
32925	50	222	326	chihuahua	0	222	0	0	6	stimuli\chihuahua\chihuahua_07s.jpg	0	chihuahua_07s.jpg	0	0	0	83.7531321595889	83.803114325041	0.0499821654520929
33025	50	223	1652	throne	0	223	0	0	11	stimuli\throne\throne_12s.jpg	0	throne_12s.jpg	0	0	0	83.8531593931839	83.9031298556365	0.0499704624526203
33125	50	224	1811	whisk	0	224	0	0	8	stimuli\whisk\whisk_09s.jpg	0	whisk_09s.jpg	0	0	0	83.9531456667464	84.0031307577156	0.0499850909691304
33225	50	225	344	cigarette	0	225	0	0	1	stimuli\cigarette\cigarette_02s.jpg	0	cigarette_02s.jpg	0	0	0	84.0531536394265	84.1031319038011	0.0499782643746585
33325	50	226	1344	safety_pin	0	226	0	0	6	stimuli\safety_pin\safety_pin_07s.jpg	0	safety_pin_07s.jpg	0	0	0	84.1531716079917	84.2031337809749	0.0499621729832143
33425	50	227	558	envelope	0	227	0	0	4	stimuli\envelope\envelope_05s.jpg	0	envelope_05s.jpg	0	0	0	84.2531588568818	84.3031307822093	0.0499719253275543
33525	50	228	1327	rollerskate	0	228	0	0	5	stimuli\rollerskate\rollerskate_06s.jpg	0	rollerskate_06s.jpg	0	0	0	84.3531729246024	84.4031536271796	0.0499807025771588
33625	50	229	1457	skirt	0	229	0	0	11	stimuli\skirt\skirt_12s.jpg	0	skirt_12s.jpg	0	0	0	84.4531728515867	84.5031520910561	0.0499792394693941
33725	50	230	603	fishing_pole	0	230	0	0	2	stimuli\fishing_pole\fishing_pole_03s.jpg	0	fishing_pole_03s.jpg	0	0	0	84.5531593689229	84.6031576255336	0.0499982566107064
33825	50	231	931	limousine	0	231	0	0	6	stimuli\limousine\limousine_07s.jpg	0	limousine_07s.jpg	0	0	0	84.653160271002	84.7031314647757	0.049971193773672
33925	50	232	1438	shrimp	0	232	0	0	8	stimuli\shrimp\shrimp_09n.jpg	0	shrimp_09n.jpg	0	0	0	84.7531477634329	84.8031287097838	0.0499809463508427
34025	50	233	659	garter	0	233	0	0	1	stimuli\garter\garter_02s.jpg	0	garter_02s.jpg	0	0	0	84.8531503721606	84.9031288805418	0.049978508381173
34125	50	234	1016	mongoose	0	234	0	0	2	stimuli\mongoose\mongoose_03s.jpg	0	mongoose_03s.jpg	0	0	0	84.9531622456852	85.003151725512	0.0499894798267633
34225	50	235	970	map	0	235	0	0	4	stimuli\map\map_05s.jpg	0	map_05s.jpg	0	0	0	85.0531480317004	85.1031723760534	0.0500243443530053
34325	50	236	233	cabinet	0	236	0	0	3	stimuli\cabinet\cabinet_04s.jpg	0	cabinet_04s.jpg	0	0	0	85.1531937946565	85.203168645734	0.0499748510774225
34425	50	237	48	backgammon	0	237	0	0	6	stimuli\backgammon\backgammon_07s.jpg	0	backgammon_07s.jpg	0	0	0	85.2531917712186	85.3031663782895	0.049974607070908
34525	50	238	638	fox	0	238	0	0	3	stimuli\fox\fox_04s.jpg	0	fox_04s.jpg	0	0	0	85.3531885284465	85.403167524375	0.0499789959285408
34625	50	239	791	hood	0	239	0	0	0	stimuli\hood\hood_01b.jpg	1	hood_01b.jpg	0	0	0	85.453188455198	85.5031557483599	0.0499672931618989
34725	50	240	703	grapefruit	0	240	0	0	8	stimuli\grapefruit\grapefruit_09s.jpg	0	grapefruit_09s.jpg	0	0	0	85.5531757040881	85.6031671341043	0.0499914300162345
34825	50	241	862	kangaroo	0	241	0	0	8	stimuli\kangaroo\kangaroo_09n.jpg	0	kangaroo_09n.jpg	0	0	0	85.6531846518628	85.7031619411428	0.0499772892799228
34925	50	242	385	coin	0	242	0	0	2	stimuli\coin\coin_03s.jpg	0	coin_03s.jpg	1	0.342019859468564	1	85.7531857977156	85.8031721077859	0.0499863100703806
35025	50	243	529	duffel_bag	0	243	0	0	8	stimuli\duffel_bag\duffel_bag_09s.jpg	0	duffel_bag_09s.jpg	0	0	0	85.8531869438011	85.9031671585981	0.0499802147969604
35125	50	244	222	bunkbed	0	244	0	0	6	stimuli\bunkbed\bunkbed_07s.jpg	0	bunkbed_07s.jpg	0	0	0	85.9531866267789	86.0031678169034	0.0499811901245266
35225	50	245	519	dresser	0	245	0	0	1	stimuli\dresser\dresser_02s.jpg	0	dresser_02s.jpg	0	0	0	86.0532136163674	86.1031901740935	0.0499765577260405
35325	50	246	1495	sombrero	0	246	0	0	6	stimuli\sombrero\sombrero_07s.jpg	0	sombrero_07s.jpg	0	0	0	86.1532098862808	86.2031898573041	0.0499799710232764
35425	50	247	1044	mustard	0	247	0	0	10	stimuli\mustard\mustard_11s.jpg	0	mustard_11s.jpg	0	0	0	86.2532120072283	86.3031951477751	0.0499831405468285
35525	50	248	428	crab	0	248	0	0	1	stimuli\crab\crab_02s.jpg	0	crab_02s.jpg	0	0	0	86.3531936483923	86.4031677681487	0.0499741197563708
35625	50	249	1240	printer	0	249	0	0	7	stimuli\printer\printer_08s.jpg	0	printer_08s.jpg	0	0	0	86.4531886992045	86.5031659882516	0.0499772890470922
35725	50	250	884	koala	0	250	0	0	1	stimuli\koala\koala_02s.jpg	0	koala_02s.jpg	0	0	0	86.5531910641585	86.6031737169251	0.0499826527666301
35825	50	251	42	asparagus	0	251	0	0	8	stimuli\asparagus\asparagus_09s.jpg	0	asparagus_09s.jpg	0	0	0	86.6531946479809	86.7031777887605	0.0499831407796592
35925	50	252	461	cupcake	0	252	0	0	8	stimuli\cupcake\cupcake_09s.jpg	0	cupcake_09s.jpg	0	0	0	86.753197500715	86.8031906373799	0.0499931366648525
36025	50	253	36	arm	0	253	0	0	8	stimuli\arm\arm_09s.jpg	0	arm_09s.jpg	0	0	0	86.8531986465678	86.9031837375369	0.0499850909691304
36125	50	254	813	humvee	0	254	0	0	8	stimuli\humvee\humvee_09s.jpg	0	humvee_09s.jpg	0	0	0	86.9532058876939	87.0031870778184	0.0499811901245266
36225	50	255	299	chainsaw	0	255	0	0	1	stimuli\chainsaw\chainsaw_02s.jpg	0	chainsaw_02s.jpg	0	0	0	87.053205326898	87.1032157740556	0.0500104471575469
36325	50	256	72	barbell	0	256	0	0	2	stimuli\barbell\barbell_03s.jpg	0	barbell_03s.jpg	0	0	0	87.1532352422364	87.2032103373203	0.049975095083937
36425	50	257	1472	slug	0	257	0	0	0	stimuli\slug\slug_01s.jpg	0	slug_01s.jpg	0	0	0	87.2532407767139	87.3031956355553	0.0499548588413745
36525	50	258	328	chime	0	258	0	0	11	stimuli\chime\chime_12s.jpg	0	chime_12s.jpg	0	0	0	87.3532155912835	87.4032016575802	0.0499860662966967
36625	50	259	1825	wine_cooler	0	259	0	0	6	stimuli\wine_cooler\wine_cooler_07s.jpg	0	wine_cooler_07s.jpg	0	0	0	87.4532208819874	87.5031930510886	0.0499721691012383
36725	50	260	1443	sifter	0	260	0	0	0	stimuli\sifter\sifter_01b.jpg	0	sifter_01b.jpg	0	0	0	87.5532215402927	87.6032098007854	0.0499882604926825
36825	50	261	1036	mug	0	261	0	0	10	stimuli\mug\mug_11s.jpg	0	mug_11s.jpg	0	0	0	87.6532360957935	87.7032126532868	0.0499765574932098
36925	50	262	1388	screen1	0	262	0	0	8	stimuli\screen1\screen1_09s.jpg	0	screen1_09s.jpg	0	0	0	87.753238216741	87.8032167251222	0.049978508381173
37025	50	263	873	kimono	0	263	0	0	7	stimuli\kimono\kimono_08s.jpg	0	kimono_08s.jpg	0	0	0	87.8532381437253	87.9032222595997	0.0499841158743948
37125	50	264	1115	paper_towel	0	264	0	0	1	stimuli\paper_towel\paper_towel_02s.jpg	0	paper_towel_02s.jpg	0	0	0	87.9532427028753	88.0032231616788	0.0499804588034749
37225	50	265	451	crumb	0	265	0	0	8	stimuli\crumb\crumb_09s.jpg	0	crumb_09s.jpg	0	0	0	88.053245311603	88.1032294274773	0.0499841158743948
37325	50	266	1291	razor_blade	0	266	0	0	7	stimuli\razor_blade\razor_blade_08s.jpg	0	razor_blade_08s.jpg	0	0	0	88.1532425566111	88.2032291104551	0.0499865538440645
37425	50	267	1423	shoe	0	267	0	0	10	stimuli\shoe\shoe_11s.jpg	0	shoe_11s.jpg	0	0	0	88.2532456531189	88.3032339136116	0.0499882604926825
37525	50	268	1057	net	0	268	0	0	1	stimuli\net\net_02s.jpg	0	net_02s.jpg	0	0	0	88.3532538693398	88.4032421300653	0.0499882607255131
37625	50	269	923	lid	0	269	0	0	4	stimuli\lid\lid_05s.jpg	0	lid_05s.jpg	0	0	0	88.4532508705743	88.5032320606988	0.0499811901245266
37725	50	270	457	cucumber	0	270	0	0	11	stimuli\cucumber\cucumber_12s.jpg	1	cucumber_12s.jpg	0	0	0	88.5532632316463	88.6032427151222	0.0499794834759086
37825	50	271	1072	oil	0	271	0	0	10	stimuli\oil\oil_11s.jpg	0	oil_11s.jpg	0	0	0	88.6532624270767	88.7032421543263	0.0499797272495925
37925	50	272	1328	rolling_pin	0	272	0	0	8	stimuli\rolling_pin\rolling_pin_09s.jpg	0	rolling_pin_09s.jpg	0	0	0	88.7532589405309	88.8032496392261	0.0499906986951828
38025	50	273	1817	wind_chimes	0	273	0	0	5	stimuli\wind_chimes\wind_chimes_06s.jpg	0	wind_chimes_06s.jpg	1	0.341946228872985	1	88.8532739835791	88.9032390823122	0.0499650987330824
38125	50	274	808	hovercraft	0	274	0	0	5	stimuli\hovercraft\hovercraft_06s.jpg	0	hovercraft_06s.jpg	0	0	0	88.9532602571417	89.0032402281649	0.0499799710232764
38225	50	275	1382	scooter	0	275	0	0	9	stimuli\scooter\scooter_10s.jpg	0	scooter_10s.jpg	0	0	0	89.0532631098758	89.1032428371254	0.0499797272495925
38325	50	276	1179	pincushion	0	276	0	0	2	stimuli\pincushion\pincushion_03s.jpg	0	pincushion_03s.jpg	0	0	0	89.1532635241747	89.2032415447757	0.0499780206009746
38425	50	277	657	gargoyle	0	277	0	0	5	stimuli\gargoyle\gargoyle_06s.jpg	0	gargoyle_06s.jpg	0	0	0	89.2532958777156	89.3032519554254	0.049956077709794
38525	50	278	1351	sand	0	278	0	0	9	stimuli\sand\sand_10s.jpg	0	sand_10s.jpg	0	0	0	89.3532694731839	89.4032496879809	0.0499802147969604
38625	50	279	1292	ready_meal	0	279	0	0	0	stimuli\ready_meal\ready_meal_01b.jpg	0	ready_meal_01b.jpg	0	0	0	89.4532713505905	89.5032459578943	0.0499746073037386
38725	50	280	1590	swab	0	280	0	0	3	stimuli\swab\swab_04s.jpg	0	swab_04s.jpg	0	0	0	89.553271277342	89.6032651455607	0.0499938682187349
38825	50	281	120	bench	0	281	0	0	1	stimuli\bench\bench_02s.jpg	0	bench_02s.jpg	0	0	0	89.6532868081704	89.7032667791937	0.0499799710232764
38925	50	282	1510	spear	0	282	0	0	1	stimuli\spear\spear_02s.jpg	0	spear_02s.jpg	0	0	0	89.7532869786955	89.8032740203198	0.0499870416242629
39025	50	283	611	flashlight	0	283	0	0	0	stimuli\flashlight\flashlight_01b.jpg	0	flashlight_01b.jpg	0	0	0	89.8532949513756	89.9032768728212	0.0499819214455783
39125	50	284	257	candy_cane	0	284	0	0	3	stimuli\candy_cane\candy_cane_04s.jpg	0	candy_cane_04s.jpg	0	0	0	89.9532995105255	90.0032765557989	0.0499770452734083
39225	50	285	434	crayfish	0	285	0	0	7	stimuli\crayfish\crayfish_08s.jpg	0	crayfish_08s.jpg	0	0	0	90.0532984621823	90.1032791645266	0.0499807023443282
39325	50	286	97	battery	0	286	0	0	2	stimuli\battery\battery_03n.jpg	0	battery_03n.jpg	0	0	0	90.1532998518087	90.2032834801357	0.049983628327027
39425	50	287	627	food_processor	0	287	0	0	4	stimuli\food_processor\food_processor_05s.jpg	0	food_processor_05s.jpg	0	0	0	90.2533063616138	90.3032890146133	0.0499826529994607
39525	50	288	1649	thimble	0	288	0	0	3	stimuli\thimble\thimble_04n.jpg	0	thimble_04n.jpg	0	0	0	90.3533111645374	90.4032860156149	0.0499748510774225
39625	50	289	156	bok_choy	0	289	0	0	10	stimuli\bok_choy\bok_choy_11s.jpg	0	bok_choy_11s.jpg	0	0	0	90.453306702897	90.5032844797242	0.0499777768272907
39725	50	290	635	forklift	0	290	0	0	8	stimuli\forklift\forklift_09s.jpg	0	forklift_09s.jpg	0	0	0	90.5533105307259	90.6032839189284	0.0499733882024884
39825	50	291	610	flashbulb	0	291	0	0	0	stimuli\flashbulb\flashbulb_01b.jpg	0	flashbulb_01b.jpg	0	0	0	90.6533028995618	90.7032816514838	0.0499787519220263
39925	50	292	1756	velcro	0	292	0	0	7	stimuli\velcro\velcro_08s.jpg	0	velcro_08s.jpg	0	0	0	90.7533059958369	90.8032896241639	0.049983628327027
40025	50	293	324	chicken_wire	0	293	0	0	11	stimuli\chicken_wire\chicken_wire_12s.jpg	0	chicken_wire_12s.jpg	0	0	0	90.8533056788146	90.9032871127129	0.0499814338982105
40125	50	294	1789	water_filter	0	294	0	0	10	stimuli\water_filter\water_filter_11s.jpg	0	water_filter_11s.jpg	0	0	0	90.9533129201736	91.0032931349706	0.0499802147969604
40225	50	295	1156	pesto	0	295	0	0	9	stimuli\pesto\pesto_10s.jpg	0	pesto_10s.jpg	0	0	0	91.053315772675	91.1032930617221	0.0499772890470922
40325	50	296	516	drawer	0	296	0	0	4	stimuli\drawer\drawer_05s.jpg	0	drawer_05s.jpg	0	0	0	91.1533161872067	91.2032922571525	0.049976069945842
40425	50	297	267	car	0	297	0	0	2	stimuli\car\car_03s.jpg	0	car_03s.jpg	0	0	0	91.2533205025829	91.3033031555824	0.0499826529994607
40525	50	298	17	aluminum_foil	0	298	0	0	7	stimuli\aluminum_foil\aluminum_foil_08s.jpg	0	aluminum_foil_08s.jpg	0	0	0	91.3533248179592	91.4033035698812	0.0499787519220263
40625	50	299	1148	pennant	0	299	0	0	11	stimuli\pennant\pennant_12s.jpg	0	pennant_12s.jpg	0	0	0	91.4533242571633	91.5032978891395	0.0499736319761723
40725	50	300	77	barrette	0	300	0	0	5	stimuli\barrette\barrette_06s.jpg	0	barrette_06s.jpg	0	0	0	91.5533280849922	91.6033082997892	0.0499802147969604
40825	50	301	1209	poinsettia	0	301	0	0	2	stimuli\poinsettia\poinsettia_03s.jpg	0	poinsettia_03s.jpg	0	0	0	91.6533326441422	91.7033106647432	0.0499780206009746
40925	50	302	445	crouton	0	302	0	0	0	stimuli\crouton\crouton_01b.jpg	0	crouton_01b.jpg	0	0	0	91.7533442738932	91.8033220507205	0.0499777768272907
41025	50	303	1683	torch	0	303	0	0	8	stimuli\torch\torch_09s.jpg	0	torch_09s.jpg	0	0	0	91.8533432255499	91.9033236843534	0.0499804588034749
41125	50	304	943	log	0	304	0	0	3	stimuli\log\log_04s.jpg	0	log_04s.jpg	0	0	0	91.9533438838553	92.0033267806284	0.0499828967731446
41225	50	305	351	clasp	0	305	0	0	4	stimuli\clasp\clasp_05s.jpg	0	clasp_05s.jpg	0	0	0	92.0533574640285	92.1033318275586	0.0499743635300547
41325	50	306	1441	sickle	0	306	0	0	2	stimuli\sickle\sickle_03s.jpg	0	sickle_03s.jpg	0	0	0	92.1533486137632	92.2033200515434	0.0499714377801865
41425	50	307	1275	raft	0	307	0	0	1	stimuli\raft\raft_02s.jpg	0	raft_02s.jpg	0	0	0	92.2533517100383	92.3033272926696	0.0499755826313049
41525	50	308	1042	mussel	0	308	0	0	5	stimuli\mussel\mussel_06s.jpg	0	mussel_06s.jpg	0	0	0	92.353349930374	92.4033311204985	0.0499811901245266
47808	50	309	76	barrel	1	0	0	1	4	stimuli\barrel\barrel_05s.jpg	0	barrel_05s.jpg	0	0	0	98.6368633129168	98.6868393830955	0.0499760701786727
47908	50	310	774	hedgehog	1	1	0	1	6	stimuli\hedgehog\hedgehog_07s.jpg	0	hedgehog_07s.jpg	0	0	0	98.7368595825974	98.7868334583472	0.0499738757498562
48008	50	311	410	corkboard	1	2	0	1	0	stimuli\corkboard\corkboard_01s.jpg	0	corkboard_01s.jpg	0	0	0	98.836852195207	98.88683801773	0.0499858225230128
48108	50	312	710	gravestone	1	3	0	1	7	stimuli\gravestone\gravestone_08s.jpg	0	gravestone_08s.jpg	0	0	0	98.9368535848334	98.9868391635828	0.0499855787493289
48208	50	313	202	brooch	1	4	0	1	1	stimuli\brooch\brooch_02s.jpg	0	brooch_02s.jpg	0	0	0	99.036857656436	99.0868378714658	0.049980215029791
48308	50	314	421	cotton_candy	1	5	0	1	2	stimuli\cotton_candy\cotton_candy_03s.jpg	0	cotton_candy_03s.jpg	0	0	0	99.1368646537885	99.1868504763115	0.0499858225230128
48408	50	315	1174	pill	1	6	0	1	2	stimuli\pill\pill_03s.jpg	0	pill_03s.jpg	0	0	0	99.2368714073673	99.2868562545627	0.0499848471954465
48508	50	316	1380	scone	1	7	0	1	11	stimuli\scone\scone_12s.jpg	0	scone_12s.jpg	0	0	0	99.3368723094463	99.3868503300473	0.0499780206009746
48608	50	317	1831	wolf	1	8	0	1	9	stimuli\wolf\wolf_10s.jpg	0	wolf_10s.jpg	0	0	0	99.436870529782	99.4868478188291	0.0499772890470922
48708	50	318	1211	polar_bear	1	9	0	1	11	stimuli\polar_bear\polar_bear_12s.jpg	0	polar_bear_12s.jpg	0	0	0	99.5368748451583	99.5870891171508	0.050214271992445
48808	50	319	397	contact_lens	1	10	0	1	1	stimuli\contact_lens\contact_lens_02s.jpg	0	contact_lens_02s.jpg	0	0	0	99.6368837929331	99.6868647392839	0.0499809463508427
48908	50	320	1008	mitten	1	11	0	1	11	stimuli\mitten\mitten_12s.jpg	0	mitten_12s.jpg	0	0	0	99.7368912778329	99.7868727117311	0.0499814338982105
49008	50	321	213	buggy	1	12	0	1	1	stimuli\buggy\buggy_02s.jpg	0	buggy_02s.jpg	0	0	0	99.8368902294897	99.8868592290673	0.0499689995776862
49108	50	322	1363	saucer	1	13	0	1	7	stimuli\saucer\saucer_08s.jpg	0	saucer_08s.jpg	0	0	0	99.9368867429439	99.9868654950988	0.0499787521548569
49208	50	323	1832	woman	1	14	0	1	0	stimuli\woman\woman_01b.jpg	0	woman_01b.jpg	0	0	0	100.036885694601	100.086868591374	0.0499828967731446
49308	50	324	606	flagpole	1	15	0	1	10	stimuli\flagpole\flagpole_11s.jpg	0	flagpole_11s.jpg	0	0	0	100.136888791109	100.186866811477	0.0499780203681439
49408	50	325	1032	mouthpiece	1	16	0	1	9	stimuli\mouthpiece\mouthpiece_10s.jpg	0	mouthpiece_10s.jpg	0	0	0	100.236895056907	100.286869907985	0.0499748510774225
49508	50	326	1023	moth	1	17	0	1	11	stimuli\moth\moth_12n.jpg	0	moth_12n.jpg	0	0	0	100.336888400838	100.38687641779	0.0499880169518292
49608	50	327	35	arch	1	18	0	1	1	stimuli\arch\arch_02s.jpg	0	arch_02s.jpg	0	0	0	100.436898811487	100.486874881666	0.0499760701786727
49708	50	328	666	gazelle	1	19	0	1	1	stimuli\gazelle\gazelle_02s.jpg	0	gazelle_02s.jpg	0	0	0	100.536899713567	100.586881391471	0.0499816779047251
49808	50	329	1253	pumpkin	1	20	0	1	6	stimuli\pumpkin\pumpkin_07s.jpg	0	pumpkin_07s.jpg	0	0	0	100.63691621949	100.686891314341	0.0499750948511064
49908	50	330	823	iceskate	1	21	0	1	3	stimuli\iceskate\iceskate_04s.jpg	0	iceskate_04s.jpg	0	0	0	100.736917609349	100.786896848818	0.0499792394693941
50008	50	331	576	fencepost	1	22	0	1	9	stimuli\fencepost\fencepost_10s.jpg	0	fencepost_10s.jpg	0	0	0	100.836918755202	100.886900432874	0.0499816776718944
50108	50	332	37	armor	1	23	0	1	7	stimuli\armor\armor_08s.jpg	0	armor_08s.jpg	0	0	0	100.936915024882	100.986903529381	0.049988504499197
50208	50	333	321	chick	1	24	0	1	0	stimuli\chick\chick_01b.jpg	0	chick_01b.jpg	0	0	0	101.036919584265	101.086907113204	0.0499875289388001
50308	50	334	411	corkscrew	1	25	0	1	6	stimuli\corkscrew\corkscrew_07s.jpg	0	corkscrew_07s.jpg	0	0	0	101.136911221547	101.186890461016	0.0499792394693941
50408	50	335	671	generator	1	26	0	1	9	stimuli\generator\generator_10s.jpg	0	generator_10s.jpg	0	0	0	101.236917974893	101.286899165018	0.0499811901245266
50508	50	336	1153	pepperoni	1	27	0	1	10	stimuli\pepperoni\pepperoni_11s.jpg	0	pepperoni_11s.jpg	0	0	0	101.336923021823	101.3869037244	0.0499807025771588
50608	50	337	276	carriage	1	28	0	1	8	stimuli\carriage\carriage_09s.jpg	0	carriage_09s.jpg	0	0	0	101.436919779284	101.486903651152	0.0499838718678802
50708	50	338	694	gopher	1	29	0	1	9	stimuli\gopher\gopher_10s.jpg	0	gopher_10s.jpg	0	0	0	101.536934822332	101.586913574254	0.0499787519220263
50808	50	339	879	knife	1	30	0	1	5	stimuli\knife\knife_06s.jpg	0	knife_06s.jpg	0	0	0	101.636928897584	101.686912282137	0.0499833845533431
50908	50	340	436	cream	1	31	0	1	11	stimuli\cream\cream_12s.jpg	0	cream_12s.jpg	0	0	0	101.736930531217	101.786912940443	0.0499824092257768
51008	50	341	1824	wine_bottle	1	32	0	1	4	stimuli\wine_bottle\wine_bottle_05s.jpg	0	wine_bottle_05s.jpg	0	0	0	101.836931189522	101.886911648093	0.0499804585706443
51108	50	342	1746	unicycle	1	33	0	1	6	stimuli\unicycle\unicycle_07s.jpg	0	unicycle_07s.jpg	0	0	0	101.936934529571	101.986913769273	0.0499792397022247
51208	50	343	197	breakfast	1	34	0	1	8	stimuli\breakfast\breakfast_09s.jpg	0	breakfast_09s.jpg	0	0	0	102.036934944103	102.086922960822	0.0499880167189986
51308	50	344	776	helmet	1	35	0	1	1	stimuli\helmet\helmet_02s.jpg	0	helmet_02s.jpg	0	0	0	102.136943160556	102.186920449603	0.0499772890470922
51408	50	345	1121	parrot	1	36	0	1	4	stimuli\parrot\parrot_05s.jpg	0	parrot_05s.jpg	0	0	0	102.236946744611	102.286927203182	0.0499804585706443
51508	50	346	1708	tree	1	37	0	1	5	stimuli\tree\tree_06s.jpg	0	tree_06s.jpg	0	0	0	102.336950328434	102.386924935738	0.0499746073037386
51608	50	347	1407	sewing_machine	1	38	0	1	11	stimuli\sewing_machine\sewing_machine_12s.jpg	0	sewing_machine_12s.jpg	0	0	0	102.43694854877	102.486927544465	0.0499789956957102
51708	50	348	1094	paddle	1	39	0	1	11	stimuli\paddle\paddle_12s.jpg	0	paddle_12s.jpg	0	0	0	102.536949938396	102.586933566723	0.049983628327027
51808	50	349	992	meerkat	1	40	0	1	0	stimuli\meerkat\meerkat_01b.jpg	0	meerkat_01b.jpg	0	0	0	102.636960836826	102.686940320069	0.049979483243078
51908	50	350	1090	overalls	1	41	0	1	6	stimuli\overalls\overalls_07s.jpg	0	overalls_07s.jpg	0	0	0	102.736958325375	102.786945854547	0.0499875291716307
52008	50	351	480	desk	1	42	0	1	1	stimuli\desk\desk_02s.jpg	0	desk_02s.jpg	0	0	0	102.836969223805	102.886947975727	0.0499787519220263
52108	50	352	133	biscuit	1	43	0	1	10	stimuli\biscuit\biscuit_11s.jpg	0	biscuit_11s.jpg	0	0	0	102.936966712587	102.986947171157	0.0499804585706443
52208	50	353	1485	snowshoe	1	44	0	1	2	stimuli\snowshoe\snowshoe_03s.jpg	0	snowshoe_03s.jpg	0	0	0	103.036967858439	103.086944903713	0.0499770452734083
52308	50	354	82	basket	1	45	0	1	6	stimuli\basket\basket_07s.jpg	0	basket_07s.jpg	0	0	0	103.136968029197	103.186946781119	0.0499787519220263
52408	50	355	173	bouquet	1	46	0	1	1	stimuli\bouquet\bouquet_02s.jpg	0	bouquet_02s.jpg	0	0	0	103.236971369246	103.286954997573	0.049983628327027
52508	50	356	272	cardboard	1	47	0	1	8	stimuli\cardboard\cardboard_09s.jpg	0	cardboard_09s.jpg	0	0	0	103.336977635277	103.386956874747	0.0499792394693941
52608	50	357	347	cilantro	1	48	0	1	8	stimuli\cilantro\cilantro_09s.jpg	0	cilantro_09s.jpg	0	0	0	103.436977074482	103.48695850838	0.0499814338982105
52709	50	358	341	christmas_tree	1	49	0	1	4	stimuli\christmas_tree\christmas_tree_05s.jpg	0	christmas_tree_05s.jpg	0	0	0	103.536989923101	103.58696306753	0.0499731444288045
52808	50	359	1672	tomato	1	50	0	1	4	stimuli\tomato\tomato_05s.jpg	0	tomato_05s.jpg	0	0	0	103.636981072836	103.686974697281	0.049993624445051
52909	50	360	1513	spider	1	51	0	1	11	stimuli\spider\spider_12n.jpg	0	spider_12n.jpg	0	0	0	103.736996115884	103.78697852511	0.0499824092257768
53009	50	361	548	eggbeater	1	52	0	1	5	stimuli\eggbeater\eggbeater_06s.jpg	0	eggbeater_06s.jpg	0	0	0	103.83699799329	103.886982109165	0.0499841158743948
53109	50	362	680	glove	1	53	0	1	2	stimuli\glove\glove_03s.jpg	0	glove_03s.jpg	0	0	0	103.937001821119	103.986984717892	0.0499828967731446
53209	50	363	1229	poster	1	54	0	1	5	stimuli\poster\poster_06s.jpg	0	poster_06s.jpg	0	0	0	104.037002966972	104.086992202792	0.0499892358202487
53309	50	364	1690	toucan	1	55	0	1	8	stimuli\toucan\toucan_09s.jpg	0	toucan_09s.jpg	0	0	0	104.137009720551	104.186984571628	0.0499748510774225
53409	50	365	1630	taxi	1	56	0	1	6	stimuli\taxi\taxi_07s.jpg	0	taxi_07s.jpg	0	0	0	104.23700769688	104.2869969327	0.0499892358202487
53509	50	366	753	harmonica	1	57	0	1	10	stimuli\harmonica\harmonica_11s.jpg	0	harmonica_11s.jpg	0	0	0	104.337010549381	104.386991251959	0.0499807025771588
53609	50	367	693	goose	1	58	0	1	11	stimuli\goose\goose_12s.jpg	0	goose_12s.jpg	0	0	0	104.437015352538	104.486995567335	0.0499802147969604
53709	50	368	696	gourd	1	59	0	1	0	stimuli\gourd\gourd_01b.jpg	0	gourd_01b.jpg	0	0	0	104.537013816414	104.586997444741	0.049983628327027
53809	50	369	1617	taillight	1	60	0	1	4	stimuli\taillight\taillight_05s.jpg	0	taillight_05s.jpg	0	0	0	104.637020569993	104.687000053469	0.0499794834759086
53909	50	370	596	firetruck	1	61	0	1	0	stimuli\firetruck\firetruck_01b.jpg	0	firetruck_01b.jpg	0	0	0	104.737024397822	104.787005100399	0.0499807025771588
54009	50	371	481	dessert	1	62	0	1	2	stimuli\dessert\dessert_03s.jpg	0	dessert_03s.jpg	0	0	0	104.837027981877	104.887007709127	0.0499797272495925
54109	50	372	1236	powder	1	63	0	1	5	stimuli\powder\powder_06s.jpg	0	powder_06s.jpg	0	0	0	104.937030346831	104.987008367432	0.0499780206009746
54209	50	373	1464	slide	1	64	0	1	2	stimuli\slide\slide_03s.jpg	0	slide_03s.jpg	0	0	0	105.037033199333	105.087015364785	0.0499821654520929
54309	50	374	1001	milk	1	65	0	1	0	stimuli\milk\milk_01b.jpg	0	milk_01b.jpg	0	0	0	105.137032150989	105.187002613442	0.0499704624526203
54409	50	375	277	carrot	1	66	0	1	3	stimuli\carrot\carrot_04n.jpg	0	carrot_04n.jpg	0	0	0	105.237026714021	105.287016437389	0.0499897233676165
54509	50	376	1187	pipe2	1	67	0	1	6	stimuli\pipe2\pipe2_07s.jpg	0	pipe2_07s.jpg	0	0	0	105.337040294195	105.387014657725	0.0499743635300547
54609	50	377	1654	thumbtack	1	68	0	1	10	stimuli\thumbtack\thumbtack_11s.jpg	0	thumbtack_11s.jpg	0	0	0	105.437036320101	105.487018973101	0.0499826529994607
54709	50	378	1532	stair	1	69	0	1	11	stimuli\stair\stair_12s.jpg	0	stair_12s.jpg	0	0	0	105.537039660383	105.587023288477	0.0499836280941963
54809	50	379	656	garbage_truck	1	70	0	1	2	stimuli\garbage_truck\garbage_truck_03s.jpg	0	garbage_truck_03s.jpg	0	0	0	105.637041781563	105.687023703009	0.0499819214455783
54909	50	380	80	baseball_glove	1	71	0	1	6	stimuli\baseball_glove\baseball_glove_07s.jpg	0	baseball_glove_07s.jpg	0	0	0	105.737033662619	105.787020948017	0.0499872853979468
55009	50	381	832	iron	1	72	0	1	0	stimuli\iron\iron_01b.jpg	0	iron_01b.jpg	0	0	0	105.837041635299	105.887024531839	0.049982896540314
55109	50	382	149	blueberry	1	73	0	1	9	stimuli\blueberry\blueberry_10s.jpg	0	blueberry_10s.jpg	0	0	0	105.937040586723	105.987033479847	0.0499928931239992
55209	50	383	778	highlighter	1	74	0	1	1	stimuli\highlighter\highlighter_02s.jpg	0	highlighter_02s.jpg	0	0	0	106.037043195451	106.087023898028	0.0499807025771588
55309	50	384	301	chalice	1	75	0	1	3	stimuli\chalice\chalice_04s.jpg	0	chalice_04s.jpg	0	0	0	106.137045804411	106.187027725857	0.0499819214455783
55409	50	385	256	candy_bar	1	76	0	1	3	stimuli\candy_bar\candy_bar_04s.jpg	0	candy_bar_04s.jpg	0	0	0	106.23704914446	106.287030090811	0.0499809463508427
55509	50	386	698	grain	1	77	0	1	11	stimuli\grain\grain_12s.jpg	0	grain_12s.jpg	0	0	0	106.33705126564	106.387035869062	0.0499846034217626
55609	50	387	234	cable	1	78	0	1	11	stimuli\cable\cable_12s.jpg	0	cable_12s.jpg	0	0	0	106.437058262993	106.487037746469	0.0499794834759086
55709	50	388	1725	tugboat	1	79	0	1	3	stimuli\tugboat\tugboat_04s.jpg	0	tugboat_04s.jpg	0	0	0	106.537059896626	106.587038404774	0.0499785081483424
55809	50	389	1766	visor	1	80	0	1	2	stimuli\visor\visor_03s.jpg	0	visor_03s.jpg	0	0	0	106.637058848049	106.687042476377	0.049983628327027
55909	50	390	1543	statue	1	81	0	1	11	stimuli\statue\statue_12s.jpg	0	statue_12s.jpg	0	0	0	106.737062919652	106.78704776708	0.0499848474282771
56009	50	391	1802	weed	1	82	0	1	6	stimuli\weed\weed_07s.jpg	0	weed_07s.jpg	0	0	0	106.83706601616	106.887053545332	0.0499875291716307
56109	50	392	1168	pie	1	83	0	1	5	stimuli\pie\pie_06s.jpg	0	pie_06s.jpg	0	0	0	106.937069112435	106.987051277887	0.0499821654520929
56209	50	393	1126	patty	1	84	0	1	7	stimuli\patty\patty_08s.jpg	0	patty_08s.jpg	0	0	0	107.037070746068	107.087050473318	0.0499797272495925
56309	50	394	458	cufflink	1	85	0	1	6	stimuli\cufflink\cufflink_07s.jpg	0	cufflink_07s.jpg	0	0	0	107.137070672819	107.187052594498	0.049981921678409
56409	50	395	1159	petri_dish	1	86	0	1	11	stimuli\petri_dish\petri_dish_12s.jpg	0	petri_dish_12s.jpg	0	0	0	107.237077426398	107.287072757492	0.0499953310936689
56509	50	396	167	bookshelf	1	87	0	1	10	stimuli\bookshelf\bookshelf_11s.jpg	0	bookshelf_11s.jpg	0	0	0	107.337106854189	107.387089994736	0.0499831405468285
56609	50	397	546	egg	1	88	0	1	1	stimuli\egg\egg_02s.jpg	0	egg_02s.jpg	0	0	0	107.437110925792	107.487092115916	0.0499811901245266
56709	50	398	747	handkerchief	1	89	0	1	4	stimuli\handkerchief\handkerchief_05s.jpg	0	handkerchief_05s.jpg	0	0	0	107.537110364996	107.587093017995	0.0499826529994607
56809	50	399	605	flag	1	90	0	1	2	stimuli\flag\flag_03s.jpg	0	flag_03s.jpg	0	0	0	107.637111511081	107.68709904002	0.0499875289388001
56909	50	400	1155	periscope	1	91	0	1	7	stimuli\periscope\periscope_08s.jpg	0	periscope_08s.jpg	0	0	0	107.737115582684	107.787104574498	0.0499889918137342
57009	50	401	1505	spareribs	1	92	0	1	5	stimuli\spareribs\spareribs_06s.jpg	0	spareribs_06s.jpg	0	0	0	107.837120629381	107.887077682419	0.0499570530373603
57109	50	402	1466	sling	1	93	0	1	3	stimuli\sling\sling_04s.jpg	0	sling_04s.jpg	0	0	0	107.937107878271	107.987084192224	0.0499763139523566
57209	50	403	937	lizard	1	94	0	1	6	stimuli\lizard\lizard_07n.jpg	0	lizard_07n.jpg	0	0	0	108.037104879273	108.08708558185	0.0499807025771588
57309	50	404	567	eyeliner	1	95	0	1	9	stimuli\eyeliner\eyeliner_10s.jpg	0	eyeliner_10s.jpg	0	0	0	108.13710383093	108.187077462906	0.0499736319761723
57409	50	405	220	bun	1	96	0	1	10	stimuli\bun\bun_11s.jpg	0	bun_11s.jpg	0	0	0	108.237099613063	108.287085191812	0.0499855787493289
57509	50	406	93	baton2	1	97	0	1	10	stimuli\baton2\baton2_11s.jpg	0	baton2_11s.jpg	0	0	0	108.337106854189	108.387088775635	0.0499819214455783
57609	50	407	1454	ski_lift	1	98	0	1	6	stimuli\ski_lift\ski_lift_07s.jpg	0	ski_lift_07s.jpg	0	0	0	108.437108487822	108.487091140589	0.0499826527666301
57709	50	408	1716	trombone	1	99	0	1	2	stimuli\trombone\trombone_03s.jpg	0	trombone_03s.jpg	0	0	0	108.537114509847	108.587092530448	0.0499780206009746
57809	50	409	1256	punching_bag	1	100	0	1	8	stimuli\punching_bag\punching_bag_09s.jpg	0	punching_bag_09s.jpg	0	0	0	108.637112973956	108.687091482105	0.0499785081483424
57909	50	410	1373	scallop	1	101	0	1	3	stimuli\scallop\scallop_04s.jpg	0	scallop_04s.jpg	0	0	0	108.737115826458	108.787102380302	0.0499865538440645
58009	50	411	1645	test_tube	1	102	0	1	2	stimuli\test_tube\test_tube_03s.jpg	0	test_tube_03s.jpg	0	0	0	108.83712233603	108.887097918661	0.0499755826313049
58109	50	412	1656	tick	1	103	0	1	3	stimuli\tick\tick_04s.jpg	0	tick_04s.jpg	0	0	0	108.937120556366	108.987101014936	0.0499804585706443
58209	50	413	1679	toothbrush	1	104	0	1	7	stimuli\toothbrush\toothbrush_08s.jpg	0	toothbrush_08s.jpg	0	0	0	109.037128041266	109.08710337989	0.0499753386247903
58309	50	414	235	cactus	1	105	0	1	4	stimuli\cactus\cactus_05n.jpg	0	cactus_05n.jpg	0	0	0	109.137127236696	109.187103063101	0.0499758264049888
58409	50	415	81	basil	1	106	0	1	1	stimuli\basil\basil_02s.jpg	0	basil_02s.jpg	0	0	0	109.237130089197	109.287109085126	0.0499789959285408
58509	50	416	384	coil	1	107	0	1	4	stimuli\coil\coil_05s.jpg	0	coil_05s.jpg	0	0	0	109.337131235283	109.387112669181	0.0499814338982105
58609	50	417	490	dishrag	1	108	0	1	4	stimuli\dishrag\dishrag_05s.jpg	0	dishrag_05s.jpg	0	0	0	109.437131893355	109.487114058807	0.0499821654520929
58709	50	418	1201	pliers	1	109	0	1	2	stimuli\pliers\pliers_03s.jpg	0	pliers_03s.jpg	0	0	0	109.537135965191	109.58711813041	0.0499821652192622
58809	50	419	1612	tackle	1	110	0	1	0	stimuli\tackle\tackle_01b.jpg	0	tackle_01b.jpg	0	0	0	109.63713637949	109.687123421114	0.0499870416242629
58909	50	420	331	chinaware	1	111	0	1	10	stimuli\chinaware\chinaware_11s.jpg	0	chinaware_11s.jpg	0	0	0	109.737145327264	109.78712481074	0.0499794834759086
59009	50	421	236	cage	1	112	0	1	4	stimuli\cage\cage_05s.jpg	0	cage_05s.jpg	0	0	0	109.837167440914	109.88713229564	0.0499648547265679
59109	50	422	1584	sunflower	1	113	0	1	2	stimuli\sunflower\sunflower_03s.jpg	0	sunflower_03s.jpg	0	0	0	109.937149813399	109.98713075975	0.0499809463508427
59209	50	423	1638	telegraph	1	114	0	1	5	stimuli\telegraph\telegraph_06s.jpg	0	telegraph_06s.jpg	0	0	0	110.037154372782	110.08713288093	0.0499785081483424
59309	50	424	1394	seafood	1	115	0	1	3	stimuli\seafood\seafood_04s.jpg	0	seafood_04s.jpg	0	0	0	110.137150642462	110.187135489658	0.0499848471954465
59409	50	425	494	diving_board	1	116	0	1	11	stimuli\diving_board\diving_board_12s.jpg	0	diving_board_12s.jpg	0	0	0	110.237156420713	110.287142974557	0.0499865538440645
59509	50	426	325	chickpea	1	117	0	1	2	stimuli\chickpea\chickpea_03s.jpg	0	chickpea_03s.jpg	0	0	0	110.337159516988	110.387135343393	0.0499758264049888
59609	50	427	210	buckle	1	118	0	1	7	stimuli\buckle\buckle_08s.jpg	0	buckle_08s.jpg	0	0	0	110.437157981098	110.487139171222	0.0499811901245266
59709	50	428	891	lamp	1	119	0	1	5	stimuli\lamp\lamp_06s.jpg	0	lamp_06s.jpg	0	0	0	110.537165953545	110.587143730372	0.0499777768272907
59809	50	429	1463	slicer	1	120	0	1	9	stimuli\slicer\slicer_10s.jpg	0	slicer_10s.jpg	0	0	0	110.63716661185	110.68714390113	0.0499772892799228
59909	50	430	1111	papaya	1	121	0	1	7	stimuli\papaya\papaya_08s.jpg	0	papaya_08s.jpg	0	0	0	110.737168489257	110.787153824233	0.0499853349756449
60009	50	431	602	fishhook	1	122	0	1	6	stimuli\fishhook\fishhook_07s.jpg	0	fishhook_07s.jpg	0	0	0	110.83720571897	110.88716179668	0.049956077709794
60109	50	432	1460	sled	1	123	0	1	10	stimuli\sled\sled_11s.jpg	0	sled_11s.jpg	0	0	0	110.937184434384	110.987170744454	0.0499863100703806
60209	50	433	518	dress	1	124	0	1	4	stimuli\dress\dress_05s.jpg	0	dress_05s.jpg	0	0	0	111.037186068017	111.087170671439	0.0499846034217626
60309	50	434	976	marmalade	1	125	0	1	10	stimuli\marmalade\marmalade_11s.jpg	0	marmalade_11s.jpg	0	0	0	111.137187701417	111.187174743041	0.0499870416242629
60409	50	435	644	frog	1	126	0	1	11	stimuli\frog\frog_12s.jpg	0	frog_12s.jpg	0	0	0	111.237195674097	111.28717857087	0.0499828967731446
60509	50	436	205	brush	1	127	0	1	3	stimuli\brush\brush_04s.jpg	0	brush_04s.jpg	0	0	0	111.337200477021	111.387181667145	0.0499811901245266
60609	50	437	425	coverall	1	128	0	1	11	stimuli\coverall\coverall_12s.jpg	0	coverall_12s.jpg	0	0	0	111.437200160231	111.48718159413	0.0499814338982105
60709	50	438	1335	roulette_wheel	1	129	0	1	5	stimuli\roulette_wheel\roulette_wheel_06s.jpg	0	roulette_wheel_06s.jpg	0	0	0	111.53720642603	111.587183715077	0.0499772890470922
60809	50	439	1818	window	1	130	0	1	11	stimuli\window\window_12s.jpg	0	window_12s.jpg	0	0	0	111.63718782342	111.68717657146	0.0499887480400503
60909	50	440	1621	tank2	1	131	0	1	7	stimuli\tank2\tank2_08s.jpg	0	tank2_08s.jpg	0	0	0	111.737199453171	111.787174060242	0.049974607070908
61009	50	441	55	bagel	1	132	0	1	9	stimuli\bagel\bagel_10s.jpg	0	bagel_10s.jpg	0	0	0	111.837201574119	111.88718252047	0.0499809463508427
61109	50	442	21	anchor	1	133	0	1	3	stimuli\anchor\anchor_04s.jpg	0	anchor_04s.jpg	0	0	0	111.937206621049	111.987185616978	0.0499789959285408
61209	50	443	1446	sim_card	1	134	0	1	6	stimuli\sim_card\sim_card_07s.jpg	0	sim_card_07s.jpg	0	0	0	112.037208986003	112.087187006604	0.0499780206009746
61309	50	444	1221	poodle	1	135	0	1	6	stimuli\poodle\poodle_07s.jpg	0	poodle_07s.jpg	0	0	0	112.137213545153	112.18719961145	0.0499860662966967
61409	50	445	655	garbage	1	136	0	1	4	stimuli\garbage\garbage_05s.jpg	0	garbage_05s.jpg	0	0	0	112.237217860762	112.287202707957	0.0499848471954465
61509	50	446	921	license_plate	1	137	0	1	9	stimuli\license_plate\license_plate_10s.jpg	0	license_plate_10s.jpg	0	0	0	112.33722339524	112.387202878483	0.049979483243078
61609	50	447	801	hot-air_balloon	1	138	0	1	6	stimuli\hot-air_balloon\hot-air_balloon_07s.jpg	0	hot-air_balloon_07s.jpg	0	0	0	112.437226003967	112.487209144514	0.0499831405468285
61709	50	448	641	french_fries	1	139	0	1	5	stimuli\french_fries\french_fries_06s.jpg	0	french_fries_06s.jpg	0	0	0	112.537228856469	112.587212728569	0.0499838721007109
61809	50	449	816	ice	1	140	0	1	4	stimuli\ice\ice_05s.jpg	0	ice_05s.jpg	0	0	0	112.63723463472	112.687212655321	0.0499780206009746
61909	50	450	128	bird	1	141	0	1	8	stimuli\bird\bird_09s.jpg	0	bird_09s.jpg	0	0	0	112.737237731228	112.787218921352	0.0499811901245266
62009	50	451	131	birdhouse	1	142	0	1	11	stimuli\birdhouse\birdhouse_12s.jpg	0	birdhouse_12s.jpg	0	0	0	112.837239608401	112.887222992955	0.0499833845533431
62109	50	452	649	funnel	1	143	0	1	2	stimuli\funnel\funnel_03s.jpg	0	funnel_03s.jpg	0	0	0	112.937239291612	112.987217312213	0.0499780206009746
62209	50	453	1231	potato	1	144	0	1	1	stimuli\potato\potato_02n.jpg	0	potato_02n.jpg	0	0	0	113.037231172668	113.087214069441	0.0499828967731446
62309	50	454	933	lion	1	145	0	1	0	stimuli\lion\lion_01b.jpg	0	lion_01b.jpg	0	0	0	113.137234269176	113.187221066793	0.0499867976177484
62409	50	455	228	butter	1	146	0	1	0	stimuli\butter\butter_01b.jpg	0	butter_01b.jpg	0	0	0	113.237235171255	113.287215873599	0.0499807023443282
62509	50	456	512	doorstop	1	147	0	1	10	stimuli\doorstop\doorstop_11s.jpg	0	doorstop_11s.jpg	0	0	0	113.337260210421	113.387231648201	0.0499714377801865
62609	50	457	440	crepe	1	148	0	1	9	stimuli\crepe\crepe_10s.jpg	0	crepe_10s.jpg	0	0	0	113.437254529679	113.487236207351	0.0499816776718944
62709	50	458	1265	rabbit	1	149	0	1	7	stimuli\rabbit\rabbit_08s.jpg	0	rabbit_08s.jpg	0	0	0	113.537257625954	113.587238328531	0.0499807025771588
62809	50	459	1586	sunroof	1	150	0	1	5	stimuli\sunroof\sunroof_06s.jpg	0	sunroof_06s.jpg	0	0	0	113.637252676766	113.687240205938	0.0499875291716307
62909	50	460	960	mailbox	1	151	0	1	6	stimuli\mailbox\mailbox_07s.jpg	0	mailbox_07s.jpg	0	0	0	113.73726333119	113.787237938493	0.0499746073037386
63009	50	461	1355	sandcastle	1	152	0	1	9	stimuli\sandcastle\sandcastle_10s.jpg	0	sandcastle_10s.jpg	0	0	0	113.837264477042	113.887234695721	0.0499702186789364
63109	50	462	728	gurney	1	153	0	1	0	stimuli\gurney\gurney_01b.jpg	0	gurney_01b.jpg	0	0	0	113.937260502949	113.98723852355	0.0499780206009746
63209	50	463	530	dumbbell	1	154	0	1	5	stimuli\dumbbell\dumbbell_06s.jpg	0	dumbbell_06s.jpg	0	0	0	114.037259454606	114.087241619825	0.0499821652192622
63309	50	464	375	coconut	1	155	0	1	5	stimuli\coconut\coconut_06s.jpg	0	coconut_06s.jpg	0	0	0	114.137260600459	114.187236670638	0.0499760701786727
63409	50	465	1109	pantsuit	1	156	0	1	3	stimuli\pantsuit\pantsuit_04s.jpg	0	pantsuit_04s.jpg	0	0	0	114.237263209186	114.28724366799	0.0499804588034749
63509	50	466	1416	shelf	1	157	0	1	6	stimuli\shelf\shelf_07s.jpg	0	shelf_07s.jpg	0	0	0	114.337264599046	114.387247983366	0.0499833843205124
63609	50	467	629	football	1	158	0	1	4	stimuli\football\football_05s.jpg	0	football_05s.jpg	0	0	0	114.437265013345	114.487247666344	0.0499826529994607
63709	50	468	407	cord	1	159	0	1	0	stimuli\cord\cord_01b.jpg	0	cord_01b.jpg	0	0	0	114.537271766923	114.587251006626	0.0499792397022247
63809	50	469	504	donkey	1	160	0	1	4	stimuli\donkey\donkey_05n.jpg	0	donkey_05n.jpg	0	0	0	114.637273888104	114.687256297329	0.0499824092257768
63909	50	470	738	hairspray	1	161	0	1	7	stimuli\hairspray\hairspray_08s.jpg	0	hairspray_08s.jpg	0	0	0	114.73727527773	114.787254517432	0.0499792397022247
64009	50	471	166	bookmark	1	162	0	1	2	stimuli\bookmark\bookmark_03s.jpg	0	bookmark_03s.jpg	0	0	0	114.837281543761	114.887257857714	0.0499763139523566
64109	50	472	1822	windsock	1	163	0	1	6	stimuli\windsock\windsock_07s.jpg	0	windsock_07s.jpg	0	0	0	114.937279520091	114.987262660637	0.0499831405468285
64209	50	473	183	boxing_gloves	1	164	0	1	9	stimuli\boxing_gloves\boxing_gloves_10s.jpg	0	boxing_gloves_10s.jpg	0	0	0	115.037285786122	115.087268438889	0.0499826527666301
64309	50	474	917	leopard	1	165	0	1	6	stimuli\leopard\leopard_07s.jpg	0	leopard_07s.jpg	0	0	0	115.137288638623	115.187261295272	0.0499726566486061
64409	50	475	185	bra	1	166	0	1	2	stimuli\bra\bra_03s.jpg	0	bra_03s.jpg	0	0	0	115.237286371179	115.287274631672	0.0499882604926825
64509	50	476	1415	sheet	1	167	0	1	4	stimuli\sheet\sheet_05s.jpg	0	sheet_05s.jpg	0	0	0	115.337297269376	115.387271632906	0.0499743635300547
64609	50	477	1176	pillow	1	168	0	1	2	stimuli\pillow\pillow_03s.jpg	0	pillow_03s.jpg	0	0	0	115.437295245705	115.487278386485	0.0499831407796592
64709	50	478	1317	robe	1	169	0	1	5	stimuli\robe\robe_06s.jpg	0	robe_06s.jpg	0	0	0	115.537300536409	115.587275875267	0.049975338857621
64809	50	479	1515	spinach	1	170	0	1	10	stimuli\spinach\spinach_11s.jpg	0	spinach_11s.jpg	0	0	0	115.63730021962	115.687311885878	0.050011666258797
64909	50	480	465	curtain	1	171	0	1	10	stimuli\curtain\curtain_11s.jpg	0	curtain_11s.jpg	0	0	0	115.737338180654	115.787321808748	0.0499836280941963
65009	50	481	799	horseshoe	1	172	0	1	6	stimuli\horseshoe\horseshoe_07s.jpg	0	horseshoe_07s.jpg	0	0	0	115.837337619858	115.887310764287	0.0499731444288045
65109	50	482	628	foot	1	173	0	1	8	stimuli\foot\foot_09s.jpg	0	foot_09s.jpg	0	0	0	115.937319261022	115.987316298764	0.0499970377422869
65209	50	483	84	basketball_hoop	1	174	0	1	7	stimuli\basketball_hoop\basketball_hoop_08s.jpg	0	basketball_hoop_08s.jpg	0	0	0	116.037337717367	116.087326709414	0.0499889920465648
65309	50	484	670	gem	1	175	0	1	5	stimuli\gem\gem_06s.jpg	0	gem_06s.jpg	0	0	0	116.137342032976	116.187322735321	0.0499807023443282
65409	50	485	382	coffeemaker	1	176	0	1	5	stimuli\coffeemaker\coffeemaker_06s.jpg	0	coffeemaker_06s.jpg	0	0	0	116.237341959728	116.287325587822	0.0499836280941963
65509	50	486	648	fungus	1	177	0	1	10	stimuli\fungus\fungus_11s.jpg	0	fungus_11s.jpg	0	0	0	116.337321162689	116.387298451969	0.0499772892799228
65609	50	487	1185	pinwheel	1	178	0	1	5	stimuli\pinwheel\pinwheel_06s.jpg	0	pinwheel_06s.jpg	0	0	0	116.437323527643	116.487302767346	0.0499792397022247
65709	50	488	620	flute	1	179	0	1	2	stimuli\flute\flute_03s.jpg	0	flute_03s.jpg	0	0	0	116.537332719425	116.587303669425	0.0499709499999881
65809	50	489	503	domino	1	180	0	1	0	stimuli\domino\domino_01b.jpg	0	domino_01b.jpg	0	0	0	116.637329720426	116.687305790605	0.0499760701786727
65909	50	490	684	goat	1	181	0	1	2	stimuli\goat\goat_03s.jpg	0	goat_03s.jpg	0	0	0	116.737325746333	116.787317176582	0.0499914302490652
66009	50	491	206	brussels_sprouts	1	182	0	1	3	stimuli\brussels_sprouts\brussels_sprouts_04s.jpg	0	brussels_sprouts_04s.jpg	0	0	0	116.837335913209	116.887315152911	0.0499792397022247
66109	50	492	1114	paper_plate	1	183	0	1	8	stimuli\paper_plate\paper_plate_09s.jpg	0	paper_plate_09s.jpg	0	0	0	116.937331939116	116.987318005413	0.0499860662966967
66209	50	493	1252	pump	1	184	0	1	5	stimuli\pump\pump_06s.jpg	0	pump_06s.jpg	0	0	0	117.037359904032	117.08732061414	0.0499607101082802
66309	50	494	1366	saw	1	185	0	1	1	stimuli\saw\saw_02s.jpg	0	saw_02s.jpg	0	0	0	117.137337400578	117.187321759993	0.049984359415248
66409	50	495	1220	pony	1	186	0	1	2	stimuli\pony\pony_03s.jpg	0	pony_03s.jpg	0	0	0	117.237338546431	117.287329976447	0.0499914300162345
66509	50	496	188	bracelet2	1	187	0	1	10	stimuli\bracelet2\bracelet2_11s.jpg	0	bracelet2_11s.jpg	0	0	0	117.337351639057	117.387329171877	0.0499775328207761
66609	50	497	501	dolly	1	188	0	1	10	stimuli\dolly\dolly_11s.jpg	0	dolly_11s.jpg	0	0	0	117.437354004011	117.487328611081	0.049974607070908
66709	50	498	450	cruise_ship	1	189	0	1	10	stimuli\cruise_ship\cruise_ship_11s.jpg	0	cruise_ship_11s.jpg	0	0	0	117.537350761238	117.587335120887	0.0499843596480787
66809	50	499	41	ashtray	1	190	0	1	6	stimuli\ashtray\ashtray_07n.jpg	0	ashtray_07n.jpg	0	0	0	117.637354345294	117.687337485841	0.0499831405468285
66909	50	500	499	doll	1	191	0	1	8	stimuli\doll\doll_09s.jpg	0	doll_09s.jpg	0	0	0	117.73735280917	117.787334974622	0.0499821654520929
67009	50	501	822	icepick	1	192	0	1	4	stimuli\icepick\icepick_05s.jpg	0	icepick_05s.jpg	0	0	0	117.837357368553	117.88734294707	0.0499855785164982
67109	50	502	148	blowtorch	1	193	0	1	8	stimuli\blowtorch\blowtorch_09s.jpg	0	blowtorch_09s.jpg	0	0	0	117.937361683929	117.98734263028	0.0499809463508427
67209	50	503	1492	sofa_bed	1	194	0	1	7	stimuli\sofa_bed\sofa_bed_08s.jpg	0	sofa_bed_08s.jpg	0	0	0	118.037363317329	118.087342069484	0.0499787521548569
67309	50	504	1476	snail	1	195	0	1	5	stimuli\snail\snail_06s.jpg	0	snail_06s.jpg	0	0	0	118.13736543851	118.187348091509	0.0499826529994607
67409	50	505	145	blower	1	196	0	1	11	stimuli\blower\blower_12s.jpg	0	blower_12s.jpg	0	0	0	118.237395597855	118.287351188017	0.0499555901624262
67509	50	506	153	board_game	1	197	0	1	11	stimuli\board_game\board_game_12s.jpg	0	board_game_12s.jpg	0	0	0	118.337369193323	118.387350870995	0.0499816776718944
67609	50	507	1790	water_fountain	1	198	0	1	1	stimuli\water_fountain\water_fountain_02s.jpg	0	water_fountain_02s.jpg	0	0	0	118.437370582949	118.487355430145	0.0499848471954465
67709	50	508	1661	timer	1	199	0	1	11	stimuli\timer\timer_12s.jpg	0	timer_12s.jpg	0	0	0	118.537381481146	118.587361452403	0.0499799712561071
67809	50	509	20	amplifier	1	200	0	1	3	stimuli\amplifier\amplifier_04s.jpg	0	amplifier_04s.jpg	0	0	0	118.637384821428	118.687364304904	0.0499794834759086
67909	50	510	595	fireplace	1	201	0	1	8	stimuli\fireplace\fireplace_09s.jpg	0	fireplace_09s.jpg	0	0	0	118.737383285537	118.787364231655	0.0499809461180121
68009	50	511	735	hairdryer	1	202	0	1	2	stimuli\hairdryer\hairdryer_03s.jpg	0	hairdryer_03s.jpg	0	0	0	118.837391014211	118.88737074146	0.0499797272495925
68109	50	512	1010	moccasin	1	203	0	1	6	stimuli\moccasin\moccasin_07s.jpg	0	moccasin_07s.jpg	0	0	0	118.937391184969	118.98736871779	0.0499775328207761
68209	50	513	1393	sea_urchin	1	204	0	1	5	stimuli\sea_urchin\sea_urchin_06s.jpg	0	sea_urchin_06s.jpg	0	0	0	119.037394525018	119.087375958916	0.0499814338982105
68309	50	514	315	cheetah	1	205	0	1	8	stimuli\cheetah\cheetah_09s.jpg	0	cheetah_09s.jpg	0	0	0	119.137394939549	119.187377104769	0.0499821652192622
68409	50	515	1362	sauce	1	206	0	1	5	stimuli\sauce\sauce_06s.jpg	0	sauce_06s.jpg	0	0	0	119.237397792051	119.287378494628	0.0499807025771588
68509	50	516	1026	mouse1	1	207	0	1	10	stimuli\mouse1\mouse1_11s.jpg	0	mouse1_11s.jpg	0	0	0	119.337388210464	119.387394756777	0.0500065463129431
68609	50	517	1518	spool	1	208	0	1	6	stimuli\spool\spool_07s.jpg	0	spool_07s.jpg	0	0	0	119.437429097248	119.487408092944	0.0499789956957102
68709	50	518	157	bolo_tie	1	209	0	1	7	stimuli\bolo_tie\bolo_tie_08s.jpg	0	bolo_tie_08s.jpg	0	0	0	119.537432681303	119.587412408553	0.0499797272495925
68809	50	519	1545	steamroller	1	210	0	1	2	stimuli\steamroller\steamroller_03n.jpg	0	steamroller_03n.jpg	0	0	0	119.637433827156	119.687414041953	0.0499802147969604
68909	50	520	1751	valve	1	211	0	1	4	stimuli\valve\valve_05s.jpg	0	valve_05s.jpg	0	0	0	119.737435216783	119.787420551758	0.0499853349756449
69009	50	521	367	coal	1	212	0	1	2	stimuli\coal\coal_03s.jpg	0	coal_03s.jpg	0	0	0	119.837444408564	119.887423891807	0.049979483243078
69109	50	522	306	chaps	1	213	0	1	7	stimuli\chaps\chaps_08s.jpg	0	chaps_08s.jpg	0	0	0	119.93744287244	119.987427719636	0.0499848471954465
69209	50	523	289	caviar	1	214	0	1	0	stimuli\caviar\caviar_01b.jpg	0	caviar_01b.jpg	0	0	0	120.037444749847	120.0874093608	0.049964610952884
69309	50	524	654	game	1	215	0	1	4	stimuli\game\game_05s.jpg	0	game_05s.jpg	0	0	0	120.137432973832	120.18741148198	0.0499785081483424
69409	50	525	625	folder	1	216	0	1	5	stimuli\folder\folder_06s.jpg	0	folder_06s.jpg	0	0	0	120.237434363458	120.287416285137	0.049981921678409
69509	50	526	218	bulletproof_vest	1	217	0	1	4	stimuli\bulletproof_vest\bulletproof_vest_05s.jpg	0	bulletproof_vest_05s.jpg	0	0	0	120.33743770374	120.387421331834	0.0499836280941963
69609	50	527	1053	neck	1	218	0	1	10	stimuli\neck\neck_11s.jpg	0	neck_11s.jpg	0	0	0	120.437440068694	120.487421258818	0.0499811901245266
69709	50	528	1232	potholder	1	219	0	1	7	stimuli\potholder\potholder_08s.jpg	1	potholder_08s.jpg	0	0	0	120.537446090719	120.587424355093	0.0499782643746585
69809	50	529	601	fishbowl	1	220	0	1	2	stimuli\fishbowl\fishbowl_03s.jpg	0	fishbowl_03s.jpg	0	0	0	120.637448211899	120.687429645797	0.0499814338982105
69909	50	530	258	cane	1	221	0	1	4	stimuli\cane\cane_05n.jpg	0	cane_05n.jpg	0	0	0	120.737453015056	120.787428841228	0.0499758261721581
70009	50	531	423	cougar	1	222	0	1	2	stimuli\cougar\cougar_03s.jpg	0	cougar_03s.jpg	1	0.350166265852749	1	120.837448065635	120.887435351033	0.0499872853979468
70109	50	532	290	cd_player	1	223	0	1	11	stimuli\cd_player\cd_player_12s.jpg	0	cd_player_12s.jpg	0	0	0	120.937449699035	120.987445030129	0.0499953310936689
70209	50	533	1117	paperweight	1	224	0	1	3	stimuli\paperweight\paperweight_04s.jpg	0	paperweight_04s.jpg	0	0	0	121.037457915489	121.087435204769	0.0499772892799228
70309	50	534	65	banana_split	1	225	0	1	1	stimuli\banana_split\banana_split_02s.jpg	0	banana_split_02s.jpg	0	0	0	121.137454916723	121.187435619067	0.0499807023443282
70409	50	535	647	fudge	1	226	0	1	2	stimuli\fudge\fudge_03s.jpg	0	fudge_03s.jpg	0	0	0	121.23745996342	121.287426281255	0.0499663178343326
70509	50	536	1670	toilet	1	227	0	1	2	stimuli\toilet\toilet_03s.jpg	0	toilet_03s.jpg	0	0	0	121.337484759046	121.387449126225	0.0499643671792001
70609	50	537	1799	webcam	1	228	0	1	10	stimuli\webcam\webcam_11s.jpg	0	webcam_11s.jpg	0	0	0	121.437488099094	121.487465144368	0.0499770452734083
70709	50	538	1688	tostada	1	229	0	1	6	stimuli\tostada\tostada_07s.jpg	0	tostada_07s.jpg	0	0	0	121.537492658477	121.587475555018	0.049982896540314
70809	50	539	364	cloud	1	230	0	1	11	stimuli\cloud\cloud_12s.jpg	0	cloud_12s.jpg	0	0	0	121.637492097681	121.687474019127	0.0499819214455783
70909	50	540	612	flask	1	231	0	1	8	stimuli\flask\flask_09s.jpg	0	flask_09s.jpg	0	0	0	121.737477152143	121.787461267784	0.0499841156415641
71009	50	541	1536	stamp2	1	232	0	1	9	stimuli\stamp2\stamp2_10s.jpg	0	stamp2_10s.jpg	0	0	0	121.837500240887	121.887472897535	0.0499726566486061
71109	50	542	1100	palette	1	233	0	1	11	stimuli\palette\palette_12s.jpg	0	palette_12s.jpg	0	0	0	121.937496998115	121.987463072175	0.0499660740606487
71209	50	543	323	chicken2	1	234	0	1	10	stimuli\chicken2\chicken2_11s.jpg	0	chicken2_11s.jpg	0	0	0	122.037499606842	122.087463974254	0.0499643674120307
71309	50	544	99	beachball	1	235	0	1	9	stimuli\beachball\beachball_10s.jpg	0	beachball_10s.jpg	0	0	0	122.137483442435	122.187483893475	0.0500004510395229
71409	50	545	506	door	1	236	0	1	10	stimuli\door\door_11s.jpg	0	door_11s.jpg	0	0	0	122.237506287405	122.28748747753	0.0499811901245266
71509	50	546	517	dreidel	1	237	0	1	10	stimuli\dreidel\dreidel_11s.jpg	0	dreidel_11s.jpg	0	0	0	122.337506701704	122.387486916734	0.049980215029791
71609	50	547	1402	seesaw	1	238	0	1	4	stimuli\seesaw\seesaw_05s.jpg	0	seesaw_05s.jpg	0	0	0	122.43750784779	122.487488793908	0.0499809461180121
71709	50	548	914	lemon	1	239	0	1	8	stimuli\lemon\lemon_09s.jpg	0	lemon_09s.jpg	0	0	0	122.537512650713	122.587495059939	0.0499824092257768
71809	50	549	880	knitting	1	240	0	1	3	stimuli\knitting\knitting_04s.jpg	0	knitting_04s.jpg	0	0	0	122.637513309019	122.687493036268	0.0499797272495925
71909	50	550	1124	pastry	1	241	0	1	2	stimuli\pastry\pastry_03n.jpg	0	pastry_03n.jpg	0	0	0	122.737514454871	122.787500521168	0.0499860662966967
72009	50	551	1397	seal	1	242	0	1	6	stimuli\seal\seal_07s.jpg	0	seal_07s.jpg	0	0	0	122.837497071363	122.887483868981	0.0499867976177484
72109	50	552	1813	whiteboard	1	243	0	1	4	stimuli\whiteboard\whiteboard_05s.jpg	0	whiteboard_05s.jpg	0	0	0	122.937507482013	122.98747648159	0.0499689995776862
72209	50	553	899	laser_pointer	1	244	0	1	2	stimuli\laser_pointer\laser_pointer_03s.jpg	0	laser_pointer_03s.jpg	0	0	0	123.037519599311	123.087478358997	0.0499587596859783
72309	50	554	1101	pallet	1	245	0	1	10	stimuli\pallet\pallet_11s.jpg	0	pallet_11s.jpg	0	0	0	123.137497583404	123.187486575218	0.0499889918137342
72409	50	555	928	lighter	1	246	0	1	6	stimuli\lighter\lighter_07s.jpg	0	lighter_07s.jpg	0	0	0	123.237499704352	123.287483576452	0.0499838721007109
72509	50	556	22	ankle	1	247	0	1	9	stimuli\ankle\ankle_10s.jpg	0	ankle_10s.jpg	0	0	0	123.337504995055	123.387486428954	0.0499814338982105
72609	50	557	810	hula_hoop	1	248	0	1	8	stimuli\hula_hoop\hula_hoop_09s.jpg	0	hula_hoop_09s.jpg	0	0	0	123.437506872462	123.487486112164	0.0499792397022247
72709	50	558	1806	wheel	1	249	0	1	4	stimuli\wheel\wheel_05s.jpg	0	wheel_05s.jpg	0	0	0	123.537523865933	123.587541627465	0.0500177615322173
72809	50	559	1548	step_stool	1	250	0	1	9	stimuli\step_stool\step_stool_10s.jpg	1	step_stool_10s.jpg	0	0	0	123.637523549143	123.687505470589	0.0499819214455783
72909	50	560	528	duct_tape	1	251	0	1	9	stimuli\duct_tape\duct_tape_10s.jpg	0	duct_tape_10s.jpg	0	0	0	123.737523232121	123.787511005066	0.0499877729453146
73009	50	561	994	melon	1	252	0	1	9	stimuli\melon\melon_10s.jpg	0	melon_10s.jpg	0	0	0	123.837528035045	123.887507762294	0.0499797272495925
73109	50	562	49	backpack	1	253	0	1	7	stimuli\backpack\backpack_08s.jpg	0	backpack_08s.jpg	1	0.34193013724871	1	123.937529668678	123.987513296772	0.0499836280941963
73209	50	563	853	jug	1	254	0	1	9	stimuli\jug\jug_10s.jpg	0	jug_10s.jpg	0	0	0	124.037534227828	124.08751931903	0.049985091201961
73309	50	564	1461	sledgehammer	1	255	0	1	4	stimuli\sledgehammer\sledgehammer_05s.jpg	0	sledgehammer_05s.jpg	0	0	0	124.137539762305	124.187510224758	0.0499704624526203
73409	50	565	38	arrow	1	256	0	1	7	stimuli\arrow\arrow_08s.jpg	0	arrow_08s.jpg	0	0	0	124.237529449165	124.287507957313	0.0499785081483424
73509	50	566	127	binoculars	1	257	0	1	6	stimuli\binoculars\binoculars_07s.jpg	0	binoculars_07s.jpg	0	0	0	124.337528157048	124.387510810047	0.0499826529994607
73609	50	567	726	gumdrop	1	258	0	1	8	stimuli\gumdrop\gumdrop_09s.jpg	0	gumdrop_09s.jpg	0	0	0	124.437536373502	124.487512687221	0.0499763137195259
73709	50	568	1776	wallet	1	259	0	1	5	stimuli\wallet\wallet_06s.jpg	0	wallet_06s.jpg	0	0	0	124.537542151753	124.587522122776	0.0499799710232764
73809	50	569	283	cassette	1	260	0	1	4	stimuli\cassette\cassette_05s.jpg	0	cassette_05s.jpg	0	0	0	124.637545735808	124.687522781081	0.0499770452734083
73909	50	570	1215	polisher	1	261	0	1	10	stimuli\polisher\polisher_11s.jpg	0	polisher_11s.jpg	0	0	0	124.737559315981	124.787520757411	0.0499614414293319
74009	50	571	1468	slipper	1	262	0	1	1	stimuli\slipper\slipper_02s.jpg	0	slipper_02s.jpg	0	0	0	124.837542176014	124.887531411834	0.0499892358202487
74109	50	572	1284	raspberry	1	263	0	1	2	stimuli\raspberry\raspberry_03n.jpg	0	raspberry_03n.jpg	0	0	0	124.93754941714	124.987527193967	0.0499777768272907
74209	50	573	1390	screw	1	264	0	1	6	stimuli\screw\screw_07s.jpg	0	screw_07s.jpg	0	0	0	125.037548125023	125.087537848391	0.0499897233676165
74309	50	574	1449	skateboard	1	265	0	1	10	stimuli\skateboard\skateboard_11s.jpg	0	skateboard_11s.jpg	0	0	0	125.137553415727	125.18753338675	0.0499799710232764
74409	50	575	814	hydrant	1	266	0	1	11	stimuli\hydrant\hydrant_12s.jpg	0	hydrant_12s.jpg	0	0	0	125.237557731103	125.287536239251	0.0499785081483424
74509	50	576	1453	ski_boots	1	267	0	1	10	stimuli\ski_boots\ski_boots_11s.jpg	0	ski_boots_11s.jpg	0	0	0	125.337556438986	125.387540554628	0.0499841156415641
74609	50	577	821	icemaker	1	268	0	1	1	stimuli\icemaker\icemaker_02s.jpg	0	icemaker_02s.jpg	0	0	0	125.437562461011	125.487537799636	0.0499753386247903
74709	50	578	352	clay	1	269	0	1	6	stimuli\clay\clay_07s.jpg	0	clay_07s.jpg	0	0	0	125.537564094644	125.587542602792	0.0499785081483424
74809	50	579	1668	toe	1	270	0	1	6	stimuli\toe\toe_07s.jpg	0	toe_07s.jpg	0	0	0	125.637565728044	125.687546674395	0.0499809463508427
74909	50	580	182	boxer_shorts	1	271	0	1	11	stimuli\boxer_shorts\boxer_shorts_12s.jpg	0	boxer_shorts_12s.jpg	0	0	0	125.737567361677	125.787565618288	0.0499982566107064
75009	50	581	478	denture	1	272	0	1	0	stimuli\denture\denture_01b.jpg	0	denture_01b.jpg	0	0	0	125.837582404725	125.887564569945	0.0499821652192622
75109	50	582	995	memory_stick	1	273	0	1	3	stimuli\memory_stick\memory_stick_04s.jpg	0	memory_stick_04s.jpg	0	0	0	125.937581600156	125.987575224368	0.0499936242122203
75209	50	583	15	alpaca	1	274	0	1	6	stimuli\alpaca\alpaca_07s.jpg	0	alpaca_07s.jpg	0	0	0	126.037585915532	126.087574176025	0.0499882604926825
75309	50	584	363	clothespin	1	275	0	1	4	stimuli\clothespin\clothespin_05s.jpg	0	clothespin_05s.jpg	0	0	0	126.137592912884	126.18757190858	0.0499789956957102
75409	50	585	1082	organ	1	276	0	1	9	stimuli\organ\organ_10s.jpg	0	organ_10s.jpg	0	0	0	126.237598203588	126.287577686831	0.049979483243078
75509	50	586	1401	seed	1	277	0	1	1	stimuli\seed\seed_02s.jpg	0	seed_02s.jpg	0	0	0	126.337594229495	126.387573712738	0.049979483243078
75609	50	587	1774	walker2	1	278	0	1	3	stimuli\walker2\walker2_04s.jpg	0	walker2_04s.jpg	0	0	0	126.437598788645	126.487581929192	0.0499831405468285
75709	50	588	897	laptop	1	279	0	1	7	stimuli\laptop\laptop_08s.jpg	0	laptop_08s.jpg	0	0	0	126.5376023727	126.587579417974	0.0499770452734083
75809	50	589	462	curb	1	280	0	1	6	stimuli\curb\curb_07s.jpg	0	curb_07s.jpg	0	0	0	126.637600592803	126.687582758255	0.0499821654520929
75909	50	590	488	dirt_bike	1	281	0	1	11	stimuli\dirt_bike\dirt_bike_12s.jpg	0	dirt_bike_12s.jpg	0	0	0	126.737608809257	126.787586829858	0.0499780206009746
76009	50	591	640	freezer	1	282	0	1	0	stimuli\freezer\freezer_01b.jpg	0	freezer_01b.jpg	0	0	0	126.837613612181	126.887592364335	0.0499787521548569
76109	50	592	1013	mold2	1	283	0	1	10	stimuli\mold2\mold2_11s.jpg	0	mold2_11s.jpg	0	0	0	126.937613295391	126.987594241509	0.0499809461180121
76209	50	593	980	mask	1	284	0	1	5	stimuli\mask\mask_06s.jpg	0	mask_06s.jpg	0	0	0	127.03761663544	127.087602214189	0.0499855787493289
76309	50	594	460	cup	1	285	0	1	8	stimuli\cup\cup_09s.jpg	0	cup_09s.jpg	0	0	0	127.13762168237	127.187597752549	0.0499760701786727
76409	50	595	844	jelly_bean	1	286	0	1	2	stimuli\jelly_bean\jelly_bean_03s.jpg	0	jelly_bean_03s.jpg	0	0	0	127.237618683605	127.287605724996	0.0499870413914323
76509	50	596	690	golf_club	1	287	0	1	2	stimuli\golf_club\golf_club_03s.jpg	0	golf_club_03s.jpg	0	0	0	127.337622755207	127.387603701325	0.0499809461180121
76609	50	597	1147	penlight	1	288	0	1	3	stimuli\penlight\penlight_04s.jpg	0	penlight_04s.jpg	0	0	0	127.437621950638	127.487605822505	0.0499838718678802
76709	50	598	1251	pulpit	1	289	0	1	4	stimuli\pulpit\pulpit_05s.jpg	0	pulpit_05s.jpg	0	0	0	127.537629923085	127.587613551412	0.049983628327027
76809	50	599	563	extinguisher	1	290	0	1	10	stimuli\extinguisher\extinguisher_11s.jpg	0	extinguisher_11s.jpg	0	0	0	127.63763350714	127.687615184812	0.0499816776718944
76909	50	600	449	crucifix	1	291	0	1	0	stimuli\crucifix\crucifix_01b.jpg	0	crucifix_01b.jpg	0	0	0	127.737636603415	127.787613892695	0.0499772892799228
77009	50	601	98	bazooka	1	292	0	1	0	stimuli\bazooka\bazooka_01b.jpg	0	bazooka_01b.jpg	0	0	0	127.837639943697	127.887623328017	0.0499833843205124
77109	50	602	146	blowfish	1	293	0	1	6	stimuli\blowfish\blowfish_07s.jpg	0	blowfish_07s.jpg	0	0	0	127.937637920026	127.987617891049	0.0499799710232764
77209	50	603	1047	nail_clippers	1	294	0	1	9	stimuli\nail_clippers\nail_clippers_10s.jpg	0	nail_clippers_10s.jpg	0	0	0	128.037624193588	128.087646831293	0.0500226377043873
77309	50	604	755	harp	1	295	0	1	6	stimuli\harp\harp_07s.jpg	0	harp_07s.jpg	0	0	0	128.137649232754	128.187643832527	0.0499945997726172
77409	50	605	1631	tea	1	296	0	1	7	stimuli\tea\tea_08s.jpg	0	tea_08s.jpg	0	0	0	128.237665007357	128.287651317427	0.0499863100703806
77509	50	606	1250	pulley	1	297	0	1	3	stimuli\pulley\pulley_04s.jpg	0	pulley_04s.jpg	0	0	0	128.337668835185	128.387654657476	0.0499858222901821
77609	50	607	417	corsage	1	298	0	1	7	stimuli\corsage\corsage_08s.jpg	0	corsage_08s.jpg	0	0	0	128.437670956366	128.487653852906	0.049982896540314
77709	50	608	1839	wreath	1	299	0	1	11	stimuli\wreath\wreath_12s.jpg	0	wreath_12s.jpg	0	0	0	128.537656742148	128.587634518975	0.0499777768272907
77809	50	609	1570	strawberry	1	300	0	1	1	stimuli\strawberry\strawberry_02n.jpg	0	strawberry_02n.jpg	0	0	0	128.637656425126	128.687639321899	0.0499828967731446
77909	50	610	613	flatiron	1	301	0	1	6	stimuli\flatiron\flatiron_07s.jpg	0	flatiron_07s.jpg	0	0	0	128.737659765407	128.787641443079	0.0499816776718944
78009	50	611	1131	peanut	1	302	0	1	2	stimuli\peanut\peanut_03s.jpg	0	peanut_03s.jpg	0	0	0	128.837660179939	128.88764356426	0.0499833843205124
78109	50	612	761	hay	1	303	0	1	6	stimuli\hay\hay_07s.jpg	0	hay_07s.jpg	0	0	0	128.937662544893	128.987640321488	0.04997777659446
78209	50	613	338	chocolate	1	304	0	1	10	stimuli\chocolate\chocolate_11s.jpg	0	chocolate_11s.jpg	0	0	0	129.037637603004	129.087642198894	0.0500045958906412
78309	50	614	951	macadamia	1	305	0	1	7	stimuli\macadamia\macadamia_08s.jpg	0	macadamia_08s.jpg	0	0	0	129.13765776623	129.187641394325	0.0499836280941963
78409	50	615	1217	polygraph	1	306	0	1	8	stimuli\polygraph\polygraph_09s.jpg	0	polygraph_09s.jpg	0	0	0	129.237661837833	129.287641077302	0.0499792394693941
78509	50	616	174	bow1	1	307	0	1	6	stimuli\bow1\bow1_07s.jpg	0	bow1_07s.jpg	0	0	0	129.337664934108	129.387640516739	0.0499755826313049
78609	50	617	252	candelabra	1	308	0	1	4	stimuli\candelabra\candelabra_05s.jpg	0	candelabra_05s.jpg	0	0	0	129.437667055288	129.487655803561	0.0499887482728809
86376	50	618	1709	tree_trunk	2	0	0	2	6	stimuli\tree_trunk\tree_trunk_07s.jpg	0	tree_trunk_07s.jpg	0	0	0	137.204552264651	137.25452248333	0.0499702186789364
86476	50	619	1169	piecrust	2	1	0	2	6	stimuli\piecrust\piecrust_07s.jpg	0	piecrust_07s.jpg	0	0	0	137.304546340136	137.354525579605	0.0499792394693941
86576	50	620	772	heater	2	2	0	2	4	stimuli\heater\heater_05s.jpg	0	heater_05s.jpg	0	0	0	137.40455163084	137.454528188566	0.0499765577260405
86676	50	621	361	clothes	2	3	0	2	5	stimuli\clothes\clothes_06s.jpg	0	clothes_06s.jpg	0	0	0	137.504549363395	137.554527871544	0.0499785081483424
86776	50	622	319	chest1	2	4	0	2	9	stimuli\chest1\chest1_10s.jpg	0	chest1_10s.jpg	0	0	0	137.604552215897	137.654532918474	0.0499807025771588
86876	50	623	513	dough	2	5	0	2	8	stimuli\dough\dough_09s.jpg	0	dough_09s.jpg	0	0	0	137.704555799952	137.754527725279	0.0499719253275543
86976	50	624	1573	string_cheese	2	6	0	2	11	stimuli\string_cheese\string_cheese_12s.jpg	0	string_cheese_12s.jpg	0	0	0	137.804554751609	137.854535453953	0.0499807023443282
87076	50	625	1551	stew	2	7	0	2	2	stimuli\stew\stew_03s.jpg	0	stew_03s.jpg	0	0	0	137.904581741197	137.954536112258	0.0499543710611761
87176	50	626	1166	pickax	2	8	0	2	3	stimuli\pickax\pickax_04s.jpg	0	pickax_04s.jpg	0	0	0	138.004559481516	138.054541890509	0.0499824089929461
87276	50	627	106	beard	2	9	0	2	2	stimuli\beard\beard_03s.jpg	0	beard_03s.jpg	0	0	0	138.104566234862	138.15476417169	0.0501979368273169
87376	50	628	1261	quesadilla	2	10	0	2	0	stimuli\quesadilla\quesadilla_01b.jpg	0	quesadilla_01b.jpg	0	0	0	138.204570306465	138.254548327066	0.0499780206009746
87476	50	629	1722	trunk	2	11	0	2	8	stimuli\trunk\trunk_09s.jpg	0	trunk_09s.jpg	0	0	0	138.304568770574	138.354548010277	0.0499792397022247
87576	50	630	712	green_beans	2	12	0	2	10	stimuli\green_beans\green_beans_11s.jpg	0	green_beans_11s.jpg	0	0	0	138.404570647981	138.454557201825	0.0499865538440645
87676	50	631	786	holster	2	13	0	2	5	stimuli\holster\holster_06s.jpg	0	holster_06s.jpg	0	0	0	138.504570818506	138.554553959053	0.0499831405468285
87776	50	632	1054	necklace	2	14	0	2	3	stimuli\necklace\necklace_04n.jpg	0	necklace_04n.jpg	0	0	0	138.604575865436	138.654561687959	0.0499858225230128
87876	50	633	337	chive	2	15	0	2	9	stimuli\chive\chive_10s.jpg	0	chive_10s.jpg	0	0	0	138.704582131235	138.754561370937	0.0499792397022247
87976	50	634	1752	van	2	16	0	2	1	stimuli\van\van_02s.jpg	0	van_02s.jpg	0	0	0	138.804584496189	138.854564711219	0.049980215029791
88076	50	635	83	basketball	2	17	0	2	1	stimuli\basketball\basketball_02s.jpg	0	basketball_02s.jpg	0	0	0	138.904590274673	138.954566832399	0.0499765577260405
88176	50	636	1073	oilcan	2	18	0	2	4	stimuli\oilcan\oilcan_05s.jpg	0	oilcan_05s.jpg	0	0	0	139.004585569026	139.054569441127	0.0499838721007109
88276	50	637	1650	thorn	2	19	0	2	2	stimuli\thorn\thorn_03s.jpg	0	thorn_03s.jpg	0	0	0	139.104588665534	139.154582045972	0.0499933804385364
88376	50	638	1488	soccer_ball	2	20	0	2	11	stimuli\soccer_ball\soccer_ball_12s.jpg	0	soccer_ball_12s.jpg	0	0	0	139.204595175106	139.254570513731	0.0499753386247903
88476	50	639	1338	ruby	2	21	0	2	5	stimuli\ruby\ruby_06s.jpg	0	ruby_06s.jpg	0	0	0	139.304593395442	139.354617983568	0.0500245881266892
88576	50	640	547	egg_roll	2	22	0	2	10	stimuli\egg_roll\egg_roll_11s.jpg	0	egg_roll_11s.jpg	0	0	0	139.404614533531	139.45459474856	0.049980215029791
88676	50	641	171	bottle_opener	2	23	0	2	0	stimuli\bottle_opener\bottle_opener_01b.jpg	1	bottle_opener_01b.jpg	0	0	0	139.504605927039	139.554612717126	0.050006790086627
88776	50	642	284	cat	2	24	0	2	7	stimuli\cat\cat_08s.jpg	0	cat_08s.jpg	0	0	0	139.60460561025	139.65458899457	0.0499833843205124
88876	50	643	1624	tape_recorder	2	25	0	2	8	stimuli\tape_recorder\tape_recorder_09s.jpg	0	tape_recorder_09s.jpg	0	0	0	139.704625773244	139.754642315675	0.0500165424309671
88976	50	644	911	leg	2	26	0	2	8	stimuli\leg\leg_09s.jpg	0	leg_09s.jpg	0	0	0	139.8046247249	139.854603233049	0.0499785081483424
89076	50	645	493	diskette	2	27	0	2	1	stimuli\diskette\diskette_02s.jpg	0	diskette_02s.jpg	1	0.392268995987251	1	139.904652689816	139.954611693276	0.0499590034596622
89176	50	646	783	hockey_stick	2	28	0	2	7	stimuli\hockey_stick\hockey_stick_08s.jpg	0	hockey_stick_08s.jpg	0	0	0	140.004627260379	140.054603574332	0.0499763139523566
89276	50	647	1312	rim	2	29	0	2	6	stimuli\rim\rim_07s.jpg	0	rim_07s.jpg	0	0	0	140.104631819762	140.154608621262	0.0499768014997244
89376	50	648	1599	swing_set	2	30	0	2	10	stimuli\swing_set\swing_set_11s.jpg	0	swing_set_11s.jpg	0	0	0	140.204631258966	140.254614887061	0.0499836280941963
89476	50	649	1358	sarcophagus	2	31	0	2	3	stimuli\sarcophagus\sarcophagus_04s.jpg	0	sarcophagus_04s.jpg	0	0	0	140.304633380147	140.354620665312	0.0499872851651162
89576	50	650	1525	spur	2	32	0	2	3	stimuli\spur\spur_04s.jpg	0	spur_04s.jpg	0	0	0	140.404641596368	140.454618154094	0.0499765577260405
89676	50	651	1395	seagull	2	33	0	2	8	stimuli\seagull\seagull_09s.jpg	0	seagull_09s.jpg	0	0	0	140.504640060477	140.554625883	0.0499858225230128
89776	50	652	1323	roll	2	34	0	2	11	stimuli\roll\roll_12s.jpg	0	roll_12s.jpg	0	0	0	140.604639743455	140.65461849561	0.0499787521548569
89876	50	653	1836	worm	2	35	0	2	7	stimuli\worm\worm_08n.jpg	0	worm_08n.jpg	0	0	0	140.704650397878	140.754626468057	0.0499760701786727
89976	50	654	1568	straw1	2	36	0	2	9	stimuli\straw1\straw1_10s.jpg	0	straw1_10s.jpg	0	0	0	140.80464544869	140.854624688393	0.0499792397022247
90076	50	655	244	camcorder	2	37	0	2	5	stimuli\camcorder\camcorder_06s.jpg	0	camcorder_06s.jpg	0	0	0	140.904647326097	140.954623396043	0.049976069945842
90176	50	656	883	knot	2	38	0	2	3	stimuli\knot\knot_04s.jpg	0	knot_04s.jpg	0	0	0	141.004643352004	141.054623323027	0.0499799710232764
90276	50	657	1093	pacifier	2	39	0	2	7	stimuli\pacifier\pacifier_08s.jpg	0	pacifier_08s.jpg	0	0	0	141.104642547434	141.154622274451	0.0499797270167619
90376	50	658	836	jacket	2	40	0	2	3	stimuli\jacket\jacket_04s.jpg	0	jacket_04s.jpg	0	0	0	141.204650276108	141.254627808928	0.0499775328207761
90476	50	659	1846	yarn	2	41	0	2	0	stimuli\yarn\yarn_01b.jpg	0	yarn_01b.jpg	0	0	0	141.304654591484	141.354629442561	0.0499748510774225
90576	50	660	1410	shaving_cream	2	42	0	2	0	stimuli\shaving_cream\shaving_cream_01b.jpg	0	shaving_cream_01b.jpg	0	0	0	141.404651592718	141.454629369313	0.04997777659446
90676	50	661	568	eyepiece	2	43	0	2	5	stimuli\eyepiece\eyepiece_06s.jpg	0	eyepiece_06s.jpg	0	0	0	141.504658346064	141.554634416243	0.0499760701786727
90776	50	662	508	doorhandle	2	44	0	2	10	stimuli\doorhandle\doorhandle_11s.jpg	0	doorhandle_11s.jpg	0	0	0	141.604658273049	141.654637024971	0.0499787519220263
90876	50	663	775	helicopter	2	45	0	2	10	stimuli\helicopter\helicopter_11s.jpg	0	helicopter_11s.jpg	0	0	0	141.704665026627	141.754651336698	0.0499863100703806
90976	50	664	1145	penguin	2	46	0	2	8	stimuli\penguin\penguin_09s.jpg	0	penguin_09s.jpg	0	0	0	141.80467202398	141.8546554083	0.0499833843205124
91076	50	665	8	airboat	2	47	0	2	0	stimuli\airboat\airboat_01s.jpg	0	airboat_01s.jpg	0	0	0	141.904675851809	141.9546628932	0.0499870413914323
91176	50	666	1769	wafer	2	48	0	2	0	stimuli\wafer\wafer_01b.jpg	0	wafer_01b.jpg	0	0	0	142.004682117607	142.054662820185	0.0499807025771588
91276	50	667	1268	rack1	2	49	0	2	5	stimuli\rack1\rack1_06s.jpg	0	rack1_06s.jpg	0	0	0	142.104711057851	142.154682007851	0.0499709499999881
91376	50	668	1742	ukulele	2	50	0	2	2	stimuli\ukulele\ukulele_03s.jpg	0	ukulele_03s.jpg	0	0	0	142.204691479914	142.25467388914	0.0499824092257768
91476	50	669	43	avocado	2	51	0	2	0	stimuli\avocado\avocado_01b.jpg	1	avocado_01b.jpg	0	0	0	142.30468994379	142.35466967104	0.0499797272495925
91576	50	670	63	banana	2	52	0	2	2	stimuli\banana\banana_03s.jpg	0	banana_03s.jpg	0	0	0	142.404688651673	142.454669841798	0.0499811901245266
91676	50	671	496	dogfood	2	53	0	2	2	stimuli\dogfood\dogfood_03s.jpg	0	dogfood_03s.jpg	0	0	0	142.504697599448	142.55467927712	0.0499816776718944
91776	50	672	533	dumpster	2	54	0	2	0	stimuli\dumpster\dumpster_01b.jpg	0	dumpster_01b.jpg	1	0.355923583265394	1	142.60472166352	142.654673840385	0.0499521768651903
91876	50	673	1322	rocking_horse	2	55	0	2	0	stimuli\rocking_horse\rocking_horse_01s.jpg	0	rocking_horse_01s.jpg	0	0	0	142.704697940731	142.754696441349	0.049998500617221
91976	50	674	1333	rosary	2	56	0	2	8	stimuli\rosary\rosary_09s.jpg	0	rosary_09s.jpg	0	0	0	142.804700061912	142.854682227364	0.0499821654520929
92076	50	675	583	file1	2	57	0	2	11	stimuli\file1\file1_12s.jpg	0	file1_12s.jpg	0	0	0	142.904700720217	142.954685079865	0.0499843596480787
92176	50	676	303	chalkboard	2	58	0	2	9	stimuli\chalkboard\chalkboard_10s.jpg	0	chalkboard_10s.jpg	0	0	0	143.004710887093	143.054716945859	0.0500060587655753
92276	50	677	1110	pantyhose	2	59	0	2	6	stimuli\pantyhose\pantyhose_07s.jpg	0	pantyhose_07s.jpg	0	0	0	143.104730806313	143.15469322307	0.0499624167568982
92376	50	678	1542	station_wagon	2	60	0	2	7	stimuli\station_wagon\station_wagon_08s.jpg	0	station_wagon_08s.jpg	0	0	0	143.204710253282	143.254693881376	0.0499836280941963
92476	50	679	559	eraser	2	61	0	2	9	stimuli\eraser\eraser_10s.jpg	0	eraser_10s.jpg	0	0	0	143.304718469502	143.354697465431	0.0499789959285408
92576	50	680	637	fountain_pen	2	62	0	2	10	stimuli\fountain_pen\fountain_pen_11s.jpg	0	fountain_pen_11s.jpg	0	0	0	143.404716202058	143.454701780807	0.0499855787493289
