onset	duration	eventnumber	blocksequencenumber	isteststim	object	objectnumber	presentationnumber	sequencenumber	stim	stimnumber	teststimnumber	withinsequencenumber	istarget	stimname	response	rt	correct	time_stimon	time_stimoff	stimdur
6662	50	0	0	0	hip	780	0	0	stimuli\hip\hip_04s.jpg	3	-1	0	0	hip_04s.jpg	0	0	0	97.2825071808184	97.3324973918498	0.0499902110313997
6762	50	1	0	0	glove	680	1	0	stimuli\glove\glove_08s.jpg	7	-1	0	0	glove_08s.jpg	0	0	0	97.382526856265	97.4324907358969	0.0499638796318322
6862	50	2	0	0	dandelion	472	2	0	stimuli\dandelion\dandelion_11s.jpg	10	-1	0	0	dandelion_11s.jpg	0	0	0	97.4825202001957	97.5324913940858	0.0499711938900873
6962	50	3	0	0	christmas_card	340	3	0	stimuli\christmas_card\christmas_card_12s.jpg	11	-1	0	0	christmas_card_12s.jpg	0	0	0	97.5825193956262	97.6324991228757	0.0499797272495925
7062	50	4	0	0	yo-yo	1847	4	0	stimuli\yo-yo\yo-yo_12s.jpg	11	-1	0	0	yo-yo_12s.jpg	0	0	0	97.6825315130409	97.7325109964004	0.0499794833594933
7162	50	5	0	0	honeycomb	789	5	0	stimuli\honeycomb\honeycomb_12s.jpg	11	-1	0	0	honeycomb_12s.jpg	0	0	0	97.7825353407534	97.8329500241671	0.0504146834136918
7262	50	6	0	0	pinecone	1183	6	0	stimuli\pinecone\pinecone_11s.jpg	10	-1	0	0	pinecone_11s.jpg	0	0	0	97.8825350238476	97.9324976843782	0.0499626605305821
7362	50	7	0	0	workbench	1835	7	0	stimuli\workbench\workbench_07s.jpg	6	-1	0	0	workbench_07s.jpg	0	0	0	97.9825393392239	98.032512239879	0.0499729006551206
7462	50	8	0	0	sheath	1413	8	0	stimuli\sheath\sheath_04s.jpg	3	-1	0	0	sheath_04s.jpg	0	0	0	98.0825339023722	98.1325016828487	0.049967780476436
7562	50	9	0	0	ferry	580	9	0	stimuli\ferry\ferry_10s.jpg	9	-1	0	0	ferry_10s.jpg	0	0	0	98.1825343167875	98.2325174573343	0.0499831405468285
7662	50	10	0	0	peanut_butter	1132	10	0	stimuli\peanut_butter\peanut_butter_11s.jpg	10	-1	0	0	peanut_butter_11s.jpg	0	0	0	98.2825478969608	98.3325244546868	0.0499765577260405
7762	50	11	0	0	eyedropper	566	11	0	stimuli\eyedropper\eyedropper_11s.jpg	10	-1	0	0	eyedropper_11s.jpg	0	0	0	98.3825534314383	98.4325414482737	0.0499880168354139
7862	50	12	0	0	hole	785	12	0	stimuli\hole\hole_12s.jpg	11	-1	0	0	hole_12s.jpg	0	0	0	98.4825404364383	98.5325306474697	0.0499902110313997
7962	50	13	0	0	undershirt	1744	13	0	stimuli\undershirt\undershirt_05s.jpg	4	-1	0	0	undershirt_05s.jpg	0	0	0	98.5825449957047	98.632531305775	0.0499863100703806
8062	50	14	0	0	souffle	1498	14	0	stimuli\souffle\souffle_11s.jpg	10	-1	0	0	souffle_11s.jpg	0	0	0	98.6825444349088	98.7325346459402	0.0499902110313997
8162	50	15	0	0	stove1	1563	15	0	stimuli\stove1\stove1_09s.jpg	8	-1	0	0	stove1_09s.jpg	0	0	0	98.7825597217306	98.832526770886	0.0499670491553843
8262	50	16	0	0	pine_needle	1180	16	0	stimuli\pine_needle\pine_needle_12s.jpg	11	-1	0	0	pine_needle_12s.jpg	0	0	0	98.8825591609348	98.9325264539802	0.0499672930454835
8362	50	17	0	0	ambulance	19	17	0	stimuli\ambulance\ambulance_04s.jpg	3	-1	0	0	ambulance_04s.jpg	0	0	0	98.9825646954123	99.0325427160133	0.0499780206009746
8462	50	18	0	0	swing_set	1599	18	0	stimuli\swing_set\swing_set_12s.jpg	11	-1	0	0	swing_set_12s.jpg	0	0	0	99.082565109944	99.1325355723966	0.0499704624526203
8562	50	19	0	0	doorknocker	510	19	0	stimuli\doorknocker\doorknocker_09s.jpg	8	-1	0	0	doorknocker_09s.jpg	0	0	0	99.1825730825076	99.2325484211324	0.0499753386247903
8662	50	20	0	0	sandbox	1354	20	0	stimuli\sandbox\sandbox_05s.jpg	4	-1	0	0	sandbox_05s.jpg	0	0	0	99.2825720341643	99.3325505423127	0.0499785081483424
8762	50	21	0	0	trough	1718	21	0	stimuli\trough\trough_11s.jpg	10	-1	0	0	trough_11s.jpg	0	0	0	99.382574642892	99.4325546139153	0.0499799710232764
8862	50	22	0	0	armor	37	22	0	stimuli\armor\armor_03s.jpg	2	-1	0	0	armor_03s.jpg	0	0	0	99.4825801773695	99.5325501522748	0.0499699749052525
8962	50	23	0	0	laser_pointer	899	23	0	stimuli\laser_pointer\laser_pointer_07s.jpg	6	-1	0	0	laser_pointer_07s.jpg	0	0	0	99.5825793728	99.632559831487	0.0499804586870596
9062	50	24	0	0	chess_piece	317	24	0	stimuli\chess_piece\chess_piece_03s.jpg	2	-1	0	0	chess_piece_03s.jpg	0	0	0	99.6825827129651	99.7325487869093	0.0499660739442334
9162	50	25	0	0	chaps	306	25	0	stimuli\chaps\chaps_12s.jpg	11	-1	0	0	chaps_12s.jpg	0	0	0	99.7825867845677	99.8325533461757	0.0499665616080165
9262	50	26	0	0	snowboard	1481	26	0	stimuli\snowboard\snowboard_11s.jpg	10	-1	0	0	snowboard_11s.jpg	0	0	0	99.8825908561703	99.9325688767713	0.0499780206009746
9362	50	27	0	0	gallows	653	27	0	stimuli\gallows\gallows_01b.jpg	0	-1	0	0	gallows_01b.jpg	0	0	0	99.9825927335769	100.032559295068	0.0499665614916012
9462	50	28	0	0	cigar	343	28	0	stimuli\cigar\cigar_09n.jpg	8	-1	0	0	cigar_09n.jpg	0	0	0	100.082593391882	100.132572143804	0.0499787519220263
9562	50	29	0	0	duct	527	29	0	stimuli\duct\duct_01b.jpg	0	-1	0	0	duct_01b.jpg	0	0	0	100.182595756836	100.232574508758	0.0499787519220263
9662	50	30	0	0	rug	1340	30	0	stimuli\rug\rug_04s.jpg	3	-1	0	0	rug_04s.jpg	0	0	0	100.282601047424	100.332577361376	0.0499763139523566
9762	50	31	0	0	sheet	1415	31	0	stimuli\sheet\sheet_12s.jpg	11	-1	0	0	sheet_12s.jpg	0	0	0	100.382600730518	100.432580213877	0.0499794833594933
9862	50	32	0	0	radar	1271	32	0	stimuli\radar\radar_08s.jpg	7	-1	0	0	radar_08s.jpg	0	0	0	100.482605777332	100.532584773144	0.0499789958121255
9962	50	33	0	0	plaster_cast	1195	33	0	stimuli\plaster_cast\plaster_cast_01b.jpg	0	-1	0	0	plaster_cast_01b.jpg	0	0	0	100.582608142286	100.632585675223	0.0499775329371914
10062	50	34	0	0	berry	121	34	0	stimuli\berry\berry_05s.jpg	4	-1	0	0	berry_05s.jpg	0	0	0	100.682608556817	100.732592185028	0.0499836282106116
10162	50	35	0	0	camel	245	35	0	stimuli\camel\camel_03s.jpg	2	-1	0	0	camel_03s.jpg	0	0	0	100.782611409319	100.832590892795	0.0499794834759086
10262	50	36	0	0	t-shirt	1606	36	0	stimuli\t-shirt\t-shirt_02s.jpg	1	-1	0	0	t-shirt_02s.jpg	0	0	0	100.88261450571	100.932593257749	0.0499787520384416
10362	50	37	0	0	plum	1203	37	0	stimuli\plum\plum_04s.jpg	3	-1	0	0	plum_04s.jpg	0	0	0	100.982617114554	101.03259927989	0.0499821653356776
10462	50	38	0	0	bandanna	67	38	0	stimuli\bandanna\bandanna_05s.jpg	4	-1	0	0	bandanna_05s.jpg	0	0	0	101.082619967056	101.132599694305	0.0499797272495925
10562	50	39	0	0	lab_coat	885	39	0	stimuli\lab_coat\lab_coat_04s.jpg	3	-1	0	0	lab_coat_04s.jpg	0	0	0	101.182621113025	101.232603765908	0.0499826528830454
10662	50	40	0	0	wall	1775	40	0	stimuli\wall\wall_09s.jpg	8	-1	0	0	wall_09s.jpg	0	0	0	101.282625184627	101.332593452767	0.0499682681402192
10762	50	41	0	0	fern	577	41	0	stimuli\fern\fern_01b.jpg	0	-1	0	0	fern_01b.jpg	0	0	0	101.382611945737	101.432604351081	0.0499924053438008
10862	50	42	0	0	trunk	1722	42	0	stimuli\trunk\trunk_04s.jpg	3	-1	0	0	trunk_04s.jpg	0	0	0	101.482626013574	101.532601839863	0.0499758262885734
10962	50	43	0	0	spam	1504	43	0	stimuli\spam\spam_08s.jpg	7	-1	0	0	spam_08s.jpg	0	0	0	101.582628134638	101.632595915231	0.0499677805928513
11062	50	44	0	0	croissant	442	44	0	stimuli\croissant\croissant_05s.jpg	4	-1	0	0	croissant_05s.jpg	0	0	0	101.682632206357	101.732598036411	0.0499658300541341
11162	50	45	0	0	blowtorch	148	45	0	stimuli\blowtorch\blowtorch_07s.jpg	6	-1	0	0	blowtorch_07s.jpg	0	0	0	101.782623112202	101.832613079459	0.0499899672577158
11262	50	46	0	0	soap	1487	46	0	stimuli\soap\soap_09s.jpg	8	-1	0	0	soap_09s.jpg	0	0	0	101.882635960937	101.932603253983	0.0499672930454835
11362	50	47	0	0	hairpin	737	47	0	stimuli\hairpin\hairpin_02s.jpg	1	-1	0	0	hairpin_02s.jpg	0	0	0	101.982630280196	102.032617321704	0.0499870415078476
11462	50	48	0	0	soup	1499	48	0	stimuli\soup\soup_12s.jpg	11	-1	0	0	soup_12s.jpg	0	0	0	102.082644104259	102.132622124744	0.0499780204845592
11562	50	49	0	0	margarita	973	49	0	stimuli\margarita\margarita_10s.jpg	9	-1	0	0	margarita_10s.jpg	0	0	0	102.182645006338	102.232625465025	0.0499804586870596
11662	50	50	0	0	candy_bar	256	50	0	stimuli\candy_bar\candy_bar_12s.jpg	11	-1	0	0	candy_bar_12s.jpg	0	0	0	102.282650053152	102.332628317527	0.0499782643746585
11762	50	51	0	0	pedometer	1137	51	0	stimuli\pedometer\pedometer_08s.jpg	7	-1	0	0	pedometer_08s.jpg	0	0	0	102.382653393317	102.432630682481	0.0499772891635075
11862	50	52	0	0	scallion	1372	52	0	stimuli\scallion\scallion_10s.jpg	9	-1	0	0	scallion_10s.jpg	0	0	0	102.482641129754	102.532629877911	0.0499887481564656
11962	50	53	0	0	wolf	1831	53	0	stimuli\wolf\wolf_12n.jpg	11	-1	0	0	wolf_12n.jpg	0	0	0	102.582654953701	102.632636143826	0.0499811901245266
12062	50	54	0	0	candle	253	54	0	stimuli\candle\candle_07n.jpg	6	-1	0	0	candle_07n.jpg	0	0	0	102.682662194828	102.732627537334	0.0499653425067663
12162	50	55	0	0	brooch	202	55	0	stimuli\brooch\brooch_03s.jpg	2	-1	0	0	brooch_03s.jpg	0	0	0	102.782650662703	102.83264038607	0.0499897233676165
12262	50	56	0	0	cement_mixer	294	56	0	stimuli\cement_mixer\cement_mixer_02s.jpg	1	-1	0	0	cement_mixer_02s.jpg	0	0	0	102.882655709516	102.932631535805	0.0499758262885734
12362	50	57	0	0	shaving_cream	1410	57	0	stimuli\shaving_cream\shaving_cream_03s.jpg	2	-1	0	0	shaving_cream_03s.jpg	0	0	0	102.982653198298	103.032635607407	0.0499824091093615
12462	50	58	0	0	cloud	364	58	0	stimuli\cloud\cloud_08s.jpg	7	-1	0	0	cloud_08s.jpg	0	0	0	103.082667753682	103.132645042846	0.0499772891635075
12562	50	59	0	0	bedpan	109	59	0	stimuli\bedpan\bedpan_09s.jpg	8	-1	0	0	bedpan_09s.jpg	0	0	0	103.182672312949	103.232648139237	0.0499758262885734
12662	50	60	0	0	eel	545	60	0	stimuli\eel\eel_04s.jpg	3	-1	0	0	eel_04s.jpg	0	0	0	103.282677359879	103.332654648926	0.0499772890470922
12762	50	61	0	0	fur_coat	650	61	0	stimuli\fur_coat\fur_coat_01b.jpg	0	-1	0	0	fur_coat_01b.jpg	0	0	0	103.382678993396	103.432657745318	0.0499787519220263
12862	50	62	0	0	cupcake	461	62	0	stimuli\cupcake\cupcake_03s.jpg	2	-1	0	0	cupcake_03s.jpg	0	0	0	103.482667948818	103.532646213192	0.0499782643746585
12962	50	63	0	0	rack2	1269	63	0	stimuli\rack2\rack2_12s.jpg	11	-1	0	0	rack2_12s.jpg	0	0	0	103.582688355586	103.632660037139	0.0499716815538704
13062	50	64	0	0	badger	53	64	0	stimuli\badger\badger_01b.jpg	0	-1	0	0	badger_01b.jpg	0	0	0	103.682683406281	103.732662402093	0.0499789958121255
13162	50	65	0	0	puck	1245	65	0	stimuli\puck\puck_01b.jpg	0	-1	0	0	puck_01b.jpg	0	0	0	103.782676750328	103.832666229922	0.0499894795939326
13262	50	66	0	0	yoke	1849	66	0	stimuli\yoke\yoke_12s.jpg	11	-1	0	0	yoke_12s.jpg	0	0	0	103.882689599064	103.932657135767	0.0499675367027521
13362	50	67	0	0	cockatoo	372	67	0	stimuli\cockatoo\cockatoo_04s.jpg	3	-1	0	0	cockatoo_04s.jpg	0	0	0	103.982682211674	104.032660963596	0.0499787519220263
13462	50	68	0	0	lamb_chop	890	68	0	stimuli\lamb_chop\lamb_chop_06s.jpg	5	-1	0	0	lamb_chop_06s.jpg	0	0	0	104.082687258488	104.132662841002	0.0499755825148895
13562	50	69	0	0	tea	1631	69	0	stimuli\tea\tea_04s.jpg	3	-1	0	0	tea_04s.jpg	0	0	0	104.182692792965	104.232664230629	0.0499714376637712
13662	50	70	0	0	turkey	1733	70	0	stimuli\turkey\turkey_01s.jpg	0	-1	0	0	turkey_01s.jpg	0	0	0	104.282697352231	104.33267025277	0.0499729005387053
13762	50	71	0	0	bell_pepper	117	71	0	stimuli\bell_pepper\bell_pepper_02s.jpg	1	-1	0	0	bell_pepper_02s.jpg	0	0	0	104.382694109576	104.43267237395	0.0499782643746585
13862	50	72	0	0	floss	617	72	0	stimuli\floss\floss_12s.jpg	11	-1	0	0	floss_12s.jpg	0	0	0	104.482697693515	104.532673032256	0.0499753387412056
13962	50	73	0	0	ice_cream	818	73	0	stimuli\ice_cream\ice_cream_01b.jpg	0	-1	0	0	ice_cream_01b.jpg	0	0	0	104.582698108046	104.632676128531	0.0499780204845592
14062	50	74	0	0	chain	298	74	0	stimuli\chain\chain_03s.jpg	2	-1	0	0	chain_03s.jpg	0	0	0	104.682701204438	104.732679224922	0.0499780204845592
14162	50	75	0	0	bulletproof_vest	218	75	0	stimuli\bulletproof_vest\bulletproof_vest_06s.jpg	5	-1	0	0	bulletproof_vest_06s.jpg	0	0	0	104.782703569392	104.83268207754	0.0499785081483424
14262	50	76	0	0	sawhorse	1367	76	0	stimuli\sawhorse\sawhorse_12s.jpg	11	-1	0	0	sawhorse_12s.jpg	0	0	0	104.882706421893	104.932682004408	0.0499755825148895
14362	50	77	0	0	brake	191	77	0	stimuli\brake\brake_08s.jpg	7	-1	0	0	brake_08s.jpg	0	0	0	104.982711712597	105.032685344573	0.0499736319761723
14462	50	78	0	0	ironing_board	833	78	0	stimuli\ironing_board\ironing_board_12s.jpg	11	-1	0	0	ironing_board_12s.jpg	0	0	0	105.082714077551	105.132690391387	0.0499763138359413
14562	50	79	0	0	awning	44	79	0	stimuli\awning\awning_04s.jpg	3	-1	0	0	awning_04s.jpg	0	0	0	105.182714248192	105.232693487778	0.0499792395858094
14662	50	80	0	0	sarcophagus	1358	80	0	stimuli\sarcophagus\sarcophagus_06s.jpg	5	-1	0	0	sarcophagus_06s.jpg	0	0	0	105.282717344584	105.332696096622	0.0499787520384416
14762	50	81	0	0	safety_pin	1344	81	0	stimuli\safety_pin\safety_pin_11s.jpg	10	-1	0	0	safety_pin_11s.jpg	0	0	0	105.382720197202	105.432699924335	0.0499797271331772
14862	50	82	0	0	moccasin	1010	82	0	stimuli\moccasin\moccasin_03s.jpg	2	-1	0	0	moccasin_03s.jpg	0	0	0	105.482722074492	105.532701070304	0.0499789958121255
14962	50	83	0	0	vial	1760	83	0	stimuli\vial\vial_05s.jpg	4	-1	0	0	vial_05s.jpg	0	0	0	105.582724195672	105.632703191484	0.0499789958121255
15062	50	84	0	0	hovercraft	808	84	0	stimuli\hovercraft\hovercraft_10s.jpg	9	-1	0	0	hovercraft_10s.jpg	0	0	0	105.682728998712	105.732708482072	0.0499794833594933
15162	50	85	0	0	dalmatian	471	85	0	stimuli\dalmatian\dalmatian_07s.jpg	6	-1	0	0	dalmatian_07s.jpg	0	0	0	105.782733557862	105.832713285112	0.0499797272495925
15262	50	86	0	0	walker2	1774	86	0	stimuli\walker2\walker2_06s.jpg	5	-1	0	0	walker2_06s.jpg	0	0	0	105.882735435269	105.932712480542	0.0499770452734083
15362	50	87	0	0	bow2	175	87	0	stimuli\bow2\bow2_09s.jpg	8	-1	0	0	bow2_09s.jpg	0	0	0	105.982736337348	106.032712163636	0.0499758262885734
15462	50	88	0	0	carriage	276	88	0	stimuli\carriage\carriage_01b.jpg	0	-1	0	0	carriage_01b.jpg	0	0	0	106.082740896614	106.132713065716	0.0499721691012383
15562	50	89	0	0	bolt	159	89	0	stimuli\bolt\bolt_01b.jpg	0	-1	0	0	bolt_01b.jpg	0	0	0	106.182742042467	106.232718112529	0.0499760700622573
15662	50	90	0	0	llama	938	90	0	stimuli\llama\llama_01b.jpg	0	-1	0	0	llama_01b.jpg	0	0	0	106.282756597851	106.332723647007	0.0499670491553843
15762	50	91	0	0	soda_fountain	1491	91	0	stimuli\soda_fountain\soda_fountain_06s.jpg	5	-1	0	0	soda_fountain_06s.jpg	0	0	0	106.382747260039	106.432728450047	0.0499811900081113
15862	50	92	0	0	icepick	822	92	0	stimuli\icepick\icepick_08s.jpg	7	-1	0	0	icepick_08s.jpg	0	0	0	106.482748162118	106.532726426492	0.0499782643746585
15962	50	93	0	0	keyhole	871	93	0	stimuli\keyhole\keyhole_04s.jpg	3	-1	0	0	keyhole_04s.jpg	0	0	0	106.58275223372	106.632731473306	0.0499792395858094
16062	50	94	0	0	overalls	1090	94	0	stimuli\overalls\overalls_12s.jpg	11	-1	0	0	overalls_12s.jpg	0	0	0	106.682756305323	106.73273383826	0.0499775329371914
16162	50	95	0	0	sprouts	1524	95	0	stimuli\sprouts\sprouts_09s.jpg	8	-1	0	0	sprouts_09s.jpg	0	0	0	106.782755988417	106.832736447104	0.0499804586870596
16262	50	96	0	0	fast_food	572	96	0	stimuli\fast_food\fast_food_05s.jpg	4	-1	0	0	fast_food_05s.jpg	0	0	0	106.882758840919	106.932750758715	0.049991917796433
16362	50	97	0	0	panda	1105	97	0	stimuli\panda\panda_07s.jpg	6	-1	0	0	panda_07s.jpg	0	0	0	106.982761693536	107.032741420786	0.0499797272495925
16462	50	98	0	0	baklava	57	98	0	stimuli\baklava\baklava_07s.jpg	6	-1	0	1	baklava_07s.jpg	0	0	0	107.082765033701	107.132744760951	0.0499797272495925
16562	50	99	0	0	appetizer	29	99	0	stimuli\appetizer\appetizer_06s.jpg	5	-1	0	0	appetizer_06s.jpg	0	0	0	107.182767154882	107.232745175483	0.0499780206009746
16662	50	100	0	0	ruler	1341	100	0	stimuli\ruler\ruler_03s.jpg	2	-1	0	0	ruler_03s.jpg	0	0	0	107.282772201695	107.332749247085	0.0499770453898236
16762	50	101	0	0	lumber	949	101	0	stimuli\lumber\lumber_03s.jpg	2	-1	0	0	lumber_03s.jpg	0	0	0	107.382772860001	107.432751368149	0.0499785081483424
16862	50	102	0	0	garter	659	102	0	stimuli\garter\garter_12s.jpg	11	-1	0	0	garter_12s.jpg	0	0	0	107.482775224955	107.532751782681	0.0499765577260405
16962	50	103	0	0	clothes	361	103	0	stimuli\clothes\clothes_12s.jpg	11	-1	0	0	clothes_12s.jpg	0	0	0	107.582779052784	107.632755122846	0.0499760700622573
17062	50	104	0	0	cat	284	104	0	stimuli\cat\cat_02s.jpg	1	-1	0	0	cat_02s.jpg	0	0	0	107.682781417738	107.732759438339	0.0499780206009746
17162	50	105	0	0	thumb	1653	105	0	stimuli\thumb\thumb_08s.jpg	7	-1	0	0	thumb_08s.jpg	0	0	0	107.782787195989	107.832763022278	0.0499758262885734
17262	50	106	0	0	bison	134	106	0	stimuli\bison\bison_11s.jpg	10	-1	0	0	bison_11s.jpg	0	0	0	107.882788341958	107.932766362443	0.0499780204845592
17362	50	107	0	0	sling	1466	107	0	stimuli\sling\sling_06s.jpg	5	-1	0	0	sling_06s.jpg	0	0	0	107.982787781162	108.032767752185	0.0499799710232764
17462	50	108	0	0	basil	81	108	0	stimuli\basil\basil_07s.jpg	6	-1	0	0	basil_07s.jpg	0	0	0	108.082794778515	108.132772311452	0.0499775329371914
17562	50	109	0	0	snack	1475	109	0	stimuli\snack\snack_12s.jpg	11	-1	0	0	snack_12s.jpg	0	0	0	108.182793242508	108.232773213531	0.0499799710232764
17662	50	110	0	0	seahorse	1396	110	0	stimuli\seahorse\seahorse_10s.jpg	9	-1	0	0	seahorse_10s.jpg	0	0	0	108.282796095009	108.332785087056	0.0499889920465648
17762	50	111	0	0	staple_gun	1538	111	0	stimuli\staple_gun\staple_gun_08s.jpg	7	-1	0	0	staple_gun_08s.jpg	0	0	0	108.382801629486	108.432779162424	0.0499775329371914
17862	50	112	0	0	trophy	1717	112	0	stimuli\trophy\trophy_05s.jpg	4	-1	0	0	trophy_05s.jpg	0	0	0	108.482804482104	108.532782746479	0.0499782643746585
17962	50	113	0	0	buoy	223	113	0	stimuli\buoy\buoy_09s.jpg	8	-1	0	0	buoy_09s.jpg	0	0	0	108.582803677535	108.632788280956	0.0499846034217626
18062	50	114	0	0	sandal	1352	114	0	stimuli\sandal\sandal_02s.jpg	1	-1	0	0	sandal_02s.jpg	0	0	0	108.682808968239	108.732786257286	0.0499772890470922
18162	50	115	0	0	silicone	1444	115	0	stimuli\silicone\silicone_12s.jpg	11	-1	0	0	silicone_12s.jpg	0	0	0	108.782809870318	108.832787159481	0.0499772891635075
18262	50	116	0	0	cannonball	261	116	0	stimuli\cannonball\cannonball_06s.jpg	5	-1	0	0	cannonball_06s.jpg	0	0	0	108.882812235272	108.932791231084	0.0499789958121255
18362	50	117	0	0	jersey	846	117	0	stimuli\jersey\jersey_09s.jpg	8	-1	0	0	jersey_09s.jpg	0	0	0	108.9828160631	109.032792133163	0.0499760700622573
18462	50	118	0	0	rust	1342	118	0	stimuli\rust\rust_05s.jpg	4	-1	0	0	rust_05s.jpg	0	0	0	109.082817940391	109.132795473328	0.0499775329371914
18562	50	119	0	0	ski_boots	1453	119	0	stimuli\ski_boots\ski_boots_02s.jpg	1	-1	0	0	ski_boots_02s.jpg	0	0	0	109.182821036782	109.232797838282	0.0499768014997244
18662	50	120	0	0	stamp1	1535	120	0	stimuli\stamp1\stamp1_03s.jpg	2	-1	0	0	stamp1_03s.jpg	0	0	0	109.282824133174	109.332806298509	0.0499821653356776
18762	50	121	0	0	bow1	174	121	0	stimuli\bow1\bow1_04s.jpg	3	-1	0	0	bow1_04s.jpg	0	0	0	109.382826254237	109.432803299627	0.0499770453898236
18862	50	122	0	0	puddle	1247	122	0	stimuli\puddle\puddle_11s.jpg	10	-1	0	0	puddle_11s.jpg	0	0	0	109.482827887754	109.532808102667	0.0499802149133757
18962	50	123	0	0	origami	1083	123	0	stimuli\origami\origami_01b.jpg	0	-1	0	0	origami_01b.jpg	0	0	0	109.582833178458	109.632811686606	0.0499785081483424
19062	50	124	0	0	juicer2	856	124	0	stimuli\juicer2\juicer2_10s.jpg	9	-1	0	0	juicer2_10s.jpg	0	0	0	109.682840419584	109.732813564013	0.0499731444288045
19162	50	125	0	0	potato	1231	125	0	stimuli\potato\potato_09s.jpg	8	-1	0	0	potato_09s.jpg	0	0	0	109.78283839603	109.832815197529	0.0499768014997244
19262	50	126	0	0	broom	203	126	0	stimuli\broom\broom_11s.jpg	10	-1	0	0	broom_11s.jpg	0	0	0	109.882841004757	109.932818293921	0.0499772891635075
19362	50	127	0	0	dog	495	127	0	stimuli\dog\dog_12s.jpg	11	-1	0	0	dog_12s.jpg	0	0	0	109.982843125938	110.032824315946	0.0499811900081113
19462	50	128	0	0	crumb	451	128	0	stimuli\crumb\crumb_05s.jpg	4	-1	0	0	crumb_05s.jpg	0	0	0	110.082847685087	110.132825949462	0.0499782643746585
19562	50	129	0	0	lantern	895	129	0	stimuli\lantern\lantern_11s.jpg	10	-1	0	0	lantern_11s.jpg	0	0	0	110.182848099619	110.232824413572	0.0499763139523566
19662	50	130	0	0	hamster	743	130	0	stimuli\hamster\hamster_09s.jpg	8	-1	0	0	hamster_09s.jpg	0	0	0	110.282849976909	110.332828485174	0.0499785082647577
19762	50	131	0	0	spacesuit	1502	131	0	stimuli\spacesuit\spacesuit_09s.jpg	8	-1	0	0	spacesuit_09s.jpg	0	0	0	110.382868433371	110.432832313003	0.0499638796318322
19862	50	132	0	0	locker	941	132	0	stimuli\locker\locker_12s.jpg	11	-1	0	0	locker_12s.jpg	0	0	0	110.482858607778	110.532835409278	0.0499768014997244
19962	50	133	0	0	scuba	1392	133	0	stimuli\scuba\scuba_04s.jpg	3	-1	0	0	scuba_04s.jpg	0	0	0	110.58285902231	110.632842406631	0.0499833843205124
20062	50	134	0	0	snorkel	1478	134	0	stimuli\snorkel\snorkel_08s.jpg	7	-1	0	0	snorkel_08s.jpg	0	0	0	110.682862118701	110.732840383076	0.0499782643746585
20162	50	135	0	0	jar	840	135	0	stimuli\jar\jar_03s.jpg	2	-1	0	0	jar_03s.jpg	0	0	0	110.782863508328	110.832840797491	0.0499772891635075
20262	50	136	0	0	taffy	1615	136	0	stimuli\taffy\taffy_01b.jpg	0	-1	0	0	taffy_01b.jpg	0	0	0	110.882868311368	110.932847063406	0.0499787520384416
20362	50	137	0	0	license_plate	921	137	0	stimuli\license_plate\license_plate_03s.jpg	2	-1	0	0	license_plate_03s.jpg	0	0	0	110.982867994462	111.032846746501	0.0499787520384416
20462	50	138	0	0	boot	169	138	0	stimuli\boot\boot_08s.jpg	7	-1	0	0	boot_08s.jpg	0	0	0	111.082871822291	111.132851305651	0.0499794833594933
20562	50	139	0	0	scaffold	1369	139	0	stimuli\scaffold\scaffold_08s.jpg	7	-1	0	0	scaffold_08s.jpg	0	0	0	111.182875162456	111.23285245162	0.0499772891635075
20662	50	140	0	0	eye_patch	565	140	0	stimuli\eye_patch\eye_patch_05s.jpg	4	-1	0	0	eye_patch_05s.jpg	0	0	0	111.282879234059	111.332855060347	0.0499758262885734
20762	50	141	0	0	pantyhose	1110	141	0	stimuli\pantyhose\pantyhose_09s.jpg	8	-1	0	0	pantyhose_09s.jpg	0	0	0	111.382896959083	111.432858400512	0.0499614414293319
20862	50	142	0	0	crate	433	142	0	stimuli\crate\crate_02s.jpg	1	-1	0	1	crate_02s.jpg	0	0	0	111.482884451631	111.532862472231	0.0499780206009746
20962	50	143	0	0	sewage	1405	143	0	stimuli\sewage\sewage_01b.jpg	0	-1	0	0	sewage_01b.jpg	0	0	0	111.582886085147	111.632865324733	0.0499792395858094
21062	50	144	0	0	doorknob	509	144	0	stimuli\doorknob\doorknob_12s.jpg	11	-1	0	0	doorknob_12s.jpg	0	0	0	111.682888206327	111.732865983038	0.0499777767108753
21162	50	145	0	0	eyeliner	567	145	0	stimuli\eyeliner\eyeliner_03s.jpg	2	-1	0	0	eyeliner_03s.jpg	1	0.341907706810161	1	111.782889108406	111.832870054641	0.0499809462344274
21262	50	146	0	0	heater	772	146	0	stimuli\heater\heater_12s.jpg	11	-1	0	0	heater_12s.jpg	0	0	0	111.882894642884	111.932872175821	0.0499775329371914
21362	50	147	0	0	sickle	1441	147	0	stimuli\sickle\sickle_07s.jpg	6	-1	0	0	sickle_07s.jpg	0	0	0	111.982894082088	112.032874053111	0.0499799710232764
21462	50	148	0	0	gear	667	148	0	stimuli\gear\gear_11s.jpg	10	-1	0	0	gear_11s.jpg	0	0	0	112.082898885128	112.132882269565	0.0499833844369277
21562	50	149	0	0	thumbtack	1654	149	0	stimuli\thumbtack\thumbtack_02s.jpg	1	-1	0	0	thumbtack_02s.jpg	0	0	0	112.18290198152	112.232880002121	0.0499780206009746
21662	50	150	0	0	raft	1275	150	0	stimuli\raft\raft_09s.jpg	8	-1	0	0	raft_09s.jpg	0	0	0	112.282905077911	112.332883342286	0.0499782643746585
21762	50	151	0	0	highchair	777	151	0	stimuli\highchair\highchair_04s.jpg	3	-1	0	0	highchair_04s.jpg	0	0	0	112.382906223764	112.432884244365	0.0499780206009746
21862	50	152	0	0	taco	1613	152	0	stimuli\taco\taco_03s.jpg	2	-1	0	0	taco_03s.jpg	0	0	0	112.482909076381	112.532886121655	0.0499770452734083
21962	50	153	0	0	fishing_pole	603	153	0	stimuli\fishing_pole\fishing_pole_01b.jpg	0	-1	0	0	fishing_pole_01b.jpg	0	0	0	112.582909978461	112.632888974273	0.0499789958121255
22062	50	154	0	0	ukulele	1742	154	0	stimuli\ukulele\ukulele_01b.jpg	0	-1	0	0	ukulele_01b.jpg	0	0	0	112.682913562516	112.732893533539	0.0499799710232764
22162	50	155	0	0	lava	903	155	0	stimuli\lava\lava_07s.jpg	6	-1	0	0	lava_07s.jpg	0	0	0	112.78291568358	112.832899068017	0.0499833844369277
22262	50	156	0	0	wheat	1805	156	0	stimuli\wheat\wheat_02s.jpg	1	-1	0	0	wheat_02s.jpg	0	0	0	112.882921461831	112.932898507221	0.0499770453898236
22362	50	157	0	0	book	165	157	0	stimuli\book\book_01b.jpg	0	-1	0	0	book_01b.jpg	0	0	0	112.982921876363	113.032899896963	0.0499780206009746
22462	50	158	0	0	credit_card	438	158	0	stimuli\credit_card\credit_card_09s.jpg	8	-1	0	0	credit_card_09s.jpg	0	0	0	113.082927167066	113.132905431441	0.0499782643746585
22562	50	159	0	0	peacock	1130	159	0	stimuli\peacock\peacock_03s.jpg	2	-1	0	0	peacock_03s.jpg	0	0	0	113.182930263458	113.232905114419	0.0499748509610072
22662	50	160	0	0	chisel	336	160	0	stimuli\chisel\chisel_06s.jpg	5	-1	0	0	chisel_06s.jpg	0	0	0	113.282930921647	113.332924789866	0.0499938682187349
22762	50	161	0	0	cream_cheese	437	161	0	stimuli\cream_cheese\cream_cheese_07s.jpg	6	-1	0	0	cream_cheese_07s.jpg	0	0	0	113.382915732334	113.43291886535	0.0500031330157071
22862	50	162	0	0	banana	63	162	0	stimuli\banana\banana_09s.jpg	8	-1	0	0	banana_09s.jpg	0	0	0	113.482938089641	113.532914159819	0.0499760701786727
22962	50	163	0	0	water_heater	1791	163	0	stimuli\water_heater\water_heater_11s.jpg	10	-1	0	0	water_heater_11s.jpg	0	0	0	113.582939967047	113.632916768547	0.0499768014997244
23062	50	164	0	0	coat	369	164	0	stimuli\coat\coat_10s.jpg	9	-1	0	0	coat_10s.jpg	0	0	0	113.682942088228	113.732919864939	0.0499777767108753
23162	50	165	0	0	mailbox	960	165	0	stimuli\mailbox\mailbox_02s.jpg	1	-1	0	0	mailbox_02s.jpg	0	0	0	113.78294615983	113.832923205104	0.0499770452734083
23262	50	166	0	0	sausage	1365	166	0	stimuli\sausage\sausage_03s.jpg	2	-1	0	0	sausage_03s.jpg	0	0	0	113.882950475207	113.932924107183	0.0499736319761723
23362	50	167	0	0	diskette	493	167	0	stimuli\diskette\diskette_11s.jpg	10	-1	0	0	diskette_11s.jpg	0	0	0	113.982951133512	114.032928666449	0.0499775329371914
23462	50	168	0	0	birdhouse	131	168	0	stimuli\birdhouse\birdhouse_06s.jpg	5	-1	0	1	birdhouse_06s.jpg	0	0	0	114.082951791817	114.132933469489	0.0499816776718944
23562	50	169	0	0	diaper	485	169	0	stimuli\diaper\diaper_05s.jpg	4	-1	0	0	diaper_05s.jpg	0	0	0	114.18295586342	114.232934859232	0.0499789958121255
23662	50	170	0	0	parrot	1121	170	0	stimuli\parrot\parrot_12s.jpg	11	-1	0	0	parrot_12s.jpg	0	0	0	114.2829579846	114.332933810889	0.0499758262885734
23762	50	171	0	0	phone	1161	171	0	stimuli\phone\phone_06s.jpg	5	-1	0	0	phone_06s.jpg	1	0.341949154506437	1	114.382977172383	114.43293958914	0.0499624167568982
23862	50	172	0	0	trapdoor	1703	172	0	stimuli\trapdoor\trapdoor_11s.jpg	10	-1	0	0	trapdoor_11s.jpg	0	0	0	114.482964177267	114.53294171032	0.0499775330536067
23962	50	173	0	0	wire_cutters	1829	173	0	stimuli\wire_cutters\wire_cutters_12s.jpg	11	-1	0	0	wire_cutters_12s.jpg	0	0	0	114.58296556701	114.632943343837	0.0499777768272907
24062	50	174	0	0	mixer	1009	174	0	stimuli\mixer\mixer_10s.jpg	9	-1	0	0	mixer_10s.jpg	0	0	0	114.68297037005	114.73295692401	0.0499865539604798
24162	50	175	0	0	ginger	673	175	0	stimuli\ginger\ginger_08s.jpg	7	-1	0	0	ginger_08s.jpg	0	0	0	114.782970784581	114.832948073745	0.0499772891635075
24262	50	176	0	0	camper	249	176	0	stimuli\camper\camper_08s.jpg	7	-1	0	0	camper_08s.jpg	0	0	0	114.882971930434	114.932950438699	0.0499785082647577
24362	50	177	0	0	cutting_board	467	177	0	stimuli\cutting_board\cutting_board_02s.jpg	1	-1	0	0	cutting_board_02s.jpg	0	0	0	114.982977952575	115.032953778864	0.0499758262885734
24462	50	178	0	0	holster	786	178	0	stimuli\holster\holster_10s.jpg	9	-1	0	0	holster_10s.jpg	0	0	0	115.082982024178	115.132958581904	0.0499765577260405
24562	50	179	0	0	scorpion	1384	179	0	stimuli\scorpion\scorpion_02s.jpg	1	-1	0	0	scorpion_02s.jpg	0	0	0	115.182983413921	115.232957045897	0.0499736319761723
24662	50	180	0	0	snake	1477	180	0	stimuli\snake\snake_03s.jpg	2	-1	0	0	snake_03s.jpg	0	0	0	115.282985047437	115.332973064156	0.0499880167189986
24762	50	181	0	0	calf2	242	181	0	stimuli\calf2\calf2_05s.jpg	4	-1	0	0	calf2_05s.jpg	0	0	0	115.382990825688	115.432964457665	0.0499736319761723
24862	50	182	0	0	lemonade	915	182	0	stimuli\lemonade\lemonade_02s.jpg	1	-1	0	0	lemonade_02s.jpg	0	0	0	115.482987826806	115.532972186455	0.0499843596480787
24962	50	183	0	0	porcupine	1226	183	0	stimuli\porcupine\porcupine_05s.jpg	4	-1	0	0	porcupine_05s.jpg	0	0	0	115.582994336495	115.63296991901	0.0499755825148895
25062	50	184	0	0	spinach	1515	184	0	stimuli\spinach\spinach_05s.jpg	4	-1	0	0	spinach_05s.jpg	0	0	0	115.683009379543	115.7329717963	0.0499624167568982
25162	50	185	0	0	sled	1460	185	0	stimuli\sled\sled_05s.jpg	4	-1	0	0	sled_05s.jpg	0	0	0	115.782997115981	115.832975136582	0.0499780206009746
25262	50	186	0	0	computer_screen	395	186	0	stimuli\computer_screen\computer_screen_08s.jpg	7	-1	0	0	computer_screen_08s.jpg	0	0	0	115.883006307646	115.932980427169	0.0499741195235401
25362	50	187	0	0	peanut	1131	187	0	stimuli\peanut\peanut_07s.jpg	6	-1	0	0	peanut_07s.jpg	0	0	0	115.983004040201	116.03298254835	0.0499785081483424
25462	50	188	0	0	sunflower	1584	188	0	stimuli\sunflower\sunflower_06s.jpg	5	-1	0	0	sunflower_06s.jpg	0	0	0	116.083008843241	116.132985644741	0.0499768014997244
25562	50	189	0	0	mop	1019	189	0	stimuli\mop\mop_09s.jpg	8	-1	0	0	mop_09s.jpg	0	0	0	116.183009257657	116.232984840171	0.0499755825148895
25662	50	190	0	0	hot_tub	804	190	0	stimuli\hot_tub\hot_tub_02s.jpg	1	-1	0	0	hot_tub_02s.jpg	0	0	0	116.283010159736	116.332990374649	0.0499802149133757
25762	50	191	0	0	gyro	730	191	0	stimuli\gyro\gyro_10s.jpg	9	-1	0	0	gyro_10s.jpg	0	0	0	116.383021545713	116.432994690025	0.0499731443123892
25862	50	192	0	0	elephant	554	192	0	stimuli\elephant\elephant_12n.jpg	11	-1	0	0	elephant_12n.jpg	0	0	0	116.48301732773	116.532994860783	0.0499775330536067
25962	50	193	0	0	gum	724	193	0	stimuli\gum\gum_03s.jpg	2	-1	0	0	gum_03s.jpg	0	0	0	116.583019205136	116.632995762862	0.0499765577260405
26062	50	194	0	0	ballot_box	61	194	0	stimuli\ballot_box\ballot_box_06s.jpg	5	-1	0	0	ballot_box_06s.jpg	0	0	0	116.683023520513	116.733000809676	0.0499772891635075
26162	50	195	0	0	clove	365	195	0	stimuli\clove\clove_03s.jpg	2	-1	0	0	clove_03s.jpg	0	0	0	116.783030761639	116.833003906067	0.0499731444288045
26262	50	196	0	0	pocketknife	1207	196	0	stimuli\pocketknife\pocketknife_01b.jpg	0	-1	0	0	pocketknife_01b.jpg	0	0	0	116.883027275209	116.93300505192	0.0499777767108753
26362	50	197	0	0	skeleton	1450	197	0	stimuli\skeleton\skeleton_10s.jpg	9	-1	0	0	skeleton_10s.jpg	0	0	0	116.983027933515	117.033010342624	0.0499824091093615
26462	50	198	0	0	cheetah	315	198	0	stimuli\cheetah\cheetah_02s.jpg	1	-1	0	0	cheetah_02s.jpg	0	0	0	117.083031761344	117.133010025718	0.0499782643746585
26562	50	199	0	0	rhubarb	1307	199	0	stimuli\rhubarb\rhubarb_08s.jpg	7	-1	0	0	rhubarb_08s.jpg	0	0	0	117.183035345282	117.233013853547	0.0499785082647577
26662	50	200	0	0	cheeseburger	313	200	0	stimuli\cheeseburger\cheeseburger_06s.jpg	5	-1	0	0	cheeseburger_06s.jpg	0	0	0	117.283038685448	117.333021338447	0.0499826529994607
26762	50	201	0	0	napkin	1050	201	0	stimuli\napkin\napkin_07s.jpg	6	-1	0	0	napkin_07s.jpg	0	0	0	117.38304300094	117.433019314776	0.0499763138359413
26862	50	202	0	0	noodle	1061	202	0	stimuli\noodle\noodle_08s.jpg	7	-1	0	0	noodle_08s.jpg	0	0	0	117.483050242066	117.533022167394	0.0499719253275543
26962	50	203	0	0	rooster	1330	203	0	stimuli\rooster\rooster_01b.jpg	0	-1	0	0	rooster_01b.jpg	0	0	0	117.583046999411	117.633023313247	0.0499763138359413
27062	50	204	0	0	clothesline	362	204	0	stimuli\clothesline\clothesline_05s.jpg	4	-1	0	0	clothesline_05s.jpg	0	0	0	117.68305082724	117.7330315297	0.0499807024607435
27162	50	205	0	0	jeans	842	205	0	stimuli\jeans\jeans_08s.jpg	7	-1	0	0	jeans_08s.jpg	0	0	0	117.78305270453	117.833029018482	0.0499763139523566
27262	50	206	0	0	soda	1490	206	0	stimuli\soda\soda_06s.jpg	5	-1	0	0	soda_06s.jpg	0	0	0	117.883055313258	117.933039672906	0.0499843596480787
27362	50	207	0	0	syrup	1605	207	0	stimuli\syrup\syrup_03s.jpg	2	-1	0	0	syrup_03s.jpg	0	0	0	117.983058165875	118.03303643025	0.0499782643746585
27462	50	208	0	0	blowfish	146	208	0	stimuli\blowfish\blowfish_02s.jpg	1	-1	0	0	blowfish_02s.jpg	0	0	0	118.083059067954	118.133037088555	0.0499780206009746
27562	50	209	0	0	bassinet	85	209	0	stimuli\bassinet\bassinet_04s.jpg	3	-1	0	0	bassinet_04s.jpg	0	0	0	118.183061189135	118.233040184947	0.0499789958121255
27662	50	210	0	0	mustard	1044	210	0	stimuli\mustard\mustard_01b.jpg	0	-1	0	0	mustard_01b.jpg	0	0	0	118.283066235948	118.333047669847	0.0499814338982105
27762	50	211	0	0	sauerkraut	1364	211	0	stimuli\sauerkraut\sauerkraut_03s.jpg	2	-1	0	0	sauerkraut_03s.jpg	0	0	0	118.383072989527	118.433056861511	0.0499838719842955
27862	50	212	0	0	pomegranate	1219	212	0	stimuli\pomegranate\pomegranate_03s.jpg	2	-1	0	0	pomegranate_03s.jpg	0	0	0	118.483069990645	118.533047035919	0.0499770452734083
27962	50	213	0	0	shield	1420	213	0	stimuli\shield\shield_09s.jpg	8	-1	0	0	shield_09s.jpg	0	0	0	118.583074062248	118.633053301834	0.0499792395858094
28062	50	214	0	0	guardrail	720	214	0	stimuli\guardrail\guardrail_06s.jpg	5	-1	0	1	guardrail_06s.jpg	0	0	0	118.68307813385	118.733052984928	0.0499748510774225
28162	50	215	0	0	tractor	1695	215	0	stimuli\tractor\tractor_04s.jpg	3	-1	0	0	tractor_04s.jpg	0	0	0	118.783079035929	118.833058519405	0.0499794834759086
28262	50	216	0	0	umbrella	1743	216	0	stimuli\umbrella\umbrella_07s.jpg	6	-1	0	0	umbrella_07s.jpg	0	0	0	118.88308115711	118.9330582025	0.0499770453898236
28362	50	217	0	0	ice-cream_cone	817	217	0	stimuli\ice-cream_cone\ice-cream_cone_02s.jpg	1	-1	0	0	ice-cream_cone_02s.jpg	0	0	0	118.983083765837	119.03306007979	0.0499763139523566
28462	50	218	0	0	football_helmet	630	218	0	stimuli\football_helmet\football_helmet_02s.jpg	1	-1	0	0	football_helmet_02s.jpg	1	0.402502899523824	1	119.083087349893	119.133063176181	0.0499758262885734
28562	50	219	0	0	fig	581	219	0	stimuli\fig\fig_01b.jpg	0	-1	0	0	fig_01b.jpg	0	0	0	119.183090933831	119.233068466769	0.0499775329371914
28662	50	220	0	0	checkbook	310	220	0	stimuli\checkbook\checkbook_10s.jpg	9	-1	0	0	checkbook_10s.jpg	0	0	0	119.283093055012	119.333070344175	0.0499772891635075
28763	50	221	0	0	dumbbell	530	221	0	stimuli\dumbbell\dumbbell_01b.jpg	0	-1	0	0	dumbbell_01b.jpg	0	0	0	119.383106878959	119.43307661009	0.0499697311315686
28863	50	222	0	0	trap	1702	222	0	stimuli\trap\trap_02s.jpg	1	-1	0	0	trap_02s.jpg	0	0	0	119.483104123967	119.533079706482	0.0499755825148895
28963	50	223	0	0	pumpkin	1253	223	0	stimuli\pumpkin\pumpkin_06s.jpg	5	-1	0	0	pumpkin_06s.jpg	0	0	0	119.583103563171	119.633082315209	0.0499787520384416
29063	50	224	0	0	zebra	1851	224	0	stimuli\zebra\zebra_04s.jpg	3	-1	0	0	zebra_04s.jpg	0	0	0	119.683105928125	119.733085899148	0.0499799710232764
29163	50	225	0	0	can_opener	251	225	0	stimuli\can_opener\can_opener_06s.jpg	5	-1	0	0	can_opener_06s.jpg	0	0	0	119.783108536969	119.833086557453	0.0499780204845592
29263	50	226	0	0	sink	1447	226	0	stimuli\sink\sink_11s.jpg	10	-1	0	0	sink_11s.jpg	0	0	0	119.883113827556	119.933092823368	0.0499789958121255
29363	50	227	0	0	vending_machine	1757	227	0	stimuli\vending_machine\vending_machine_05s.jpg	4	-1	0	0	vending_machine_05s.jpg	0	0	0	119.983114729635	120.033092750236	0.0499780206009746
29463	50	228	0	0	radio	1273	228	0	stimuli\radio\radio_03s.jpg	2	-1	0	0	radio_03s.jpg	0	0	0	120.083115875605	120.133097309503	0.0499814338982105
29563	50	229	0	0	plug	1202	229	0	stimuli\plug\plug_10s.jpg	9	-1	0	0	plug_10s.jpg	0	0	0	120.183123848168	120.233097723918	0.0499738757498562
29663	50	230	0	0	jug	853	230	0	stimuli\jug\jug_09s.jpg	8	-1	0	0	jug_09s.jpg	0	0	0	120.283120605513	120.333101307973	0.0499807024607435
29763	50	231	0	0	fly	621	231	0	stimuli\fly\fly_09s.jpg	8	-1	0	0	fly_09s.jpg	0	0	0	120.383132722811	120.433103672927	0.0499709501164034
29863	50	232	0	0	iguana	825	232	0	stimuli\iguana\iguana_03s.jpg	2	-1	0	0	iguana_03s.jpg	0	0	0	120.483126798295	120.53310481878	0.0499780204845592
29963	50	233	0	0	missile	1006	233	0	stimuli\missile\missile_04s.jpg	3	-1	0	0	missile_04s.jpg	0	0	0	120.583153788	120.63311254757	0.049958759569563
30063	50	234	0	0	shelf	1416	234	0	stimuli\shelf\shelf_03s.jpg	2	-1	0	0	shelf_03s.jpg	0	0	0	120.683134697727	120.733111986774	0.0499772890470922
30163	50	235	0	0	dish	489	235	0	stimuli\dish\dish_02s.jpg	1	-1	0	0	dish_02s.jpg	0	0	0	120.783135599806	120.833118252689	0.0499826528830454
30263	50	236	0	0	brick	199	236	0	stimuli\brick\brick_11s.jpg	10	-1	0	0	brick_11s.jpg	0	0	0	120.88314064662	120.933118667221	0.0499780206009746
30363	50	237	0	0	motherboard	1024	237	0	stimuli\motherboard\motherboard_05s.jpg	4	-1	0	0	motherboard_05s.jpg	0	0	0	120.983140573488	121.033118594089	0.0499780206009746
30463	50	238	0	0	mallet	962	238	0	stimuli\mallet\mallet_05s.jpg	4	-1	0	0	mallet_05s.jpg	0	0	0	121.083143182215	121.133123153239	0.0499799710232764
30563	50	239	0	0	polo_shirt	1216	239	0	stimuli\polo_shirt\polo_shirt_09s.jpg	8	-1	0	0	polo_shirt_09s.jpg	0	0	0	121.183146766271	121.23312649352	0.0499797272495925
30663	50	240	0	0	train	1698	240	0	stimuli\train\train_02s.jpg	1	-1	0	0	train_02s.jpg	0	0	0	121.283148643561	121.333127395599	0.0499787520384416
30763	50	241	0	0	defibrillator	477	241	0	stimuli\defibrillator\defibrillator_09s.jpg	8	-1	0	0	defibrillator_09s.jpg	0	0	0	121.383153934265	121.433131467202	0.0499775329371914
30863	50	242	0	0	meatloaf	990	242	0	stimuli\meatloaf\meatloaf_07s.jpg	6	-1	0	0	meatloaf_07s.jpg	0	0	0	121.483153861132	121.533131637843	0.0499777767108753
30963	50	243	0	0	cockroach	373	243	0	stimuli\cockroach\cockroach_10n.jpg	9	-1	0	0	cockroach_10n.jpg	0	0	0	121.58315646986	121.633136440883	0.0499799710232764
31063	50	244	0	0	maple_syrup	971	244	0	stimuli\maple_syrup\maple_syrup_06s.jpg	5	-1	0	0	maple_syrup_06s.jpg	0	0	0	121.683163467213	121.733139049727	0.0499755825148895
31163	50	245	0	0	firetruck	596	245	0	stimuli\firetruck\firetruck_06s.jpg	5	-1	0	0	firetruck_06s.jpg	0	0	0	121.783160712104	121.833142389893	0.0499816777883098
31263	50	246	0	0	blowgun	147	246	0	stimuli\blowgun\blowgun_09s.jpg	8	-1	0	0	blowgun_09s.jpg	0	0	0	121.883165759034	121.933145730058	0.0499799710232764
31363	50	247	0	0	donut	505	247	0	stimuli\donut\donut_07s.jpg	6	-1	0	0	donut_07s.jpg	0	0	0	121.983168611536	122.033146144473	0.0499775329371914
31463	50	248	0	0	mole	1014	248	0	stimuli\mole\mole_12s.jpg	11	-1	0	0	mole_12s.jpg	0	0	0	122.083182679373	122.133148997091	0.0499663177179173
31563	50	249	0	0	mandolin	965	249	0	stimuli\mandolin\mandolin_12s.jpg	11	-1	0	0	mandolin_12s.jpg	0	0	0	122.183173341444	122.233152337256	0.0499789958121255
31663	50	250	0	0	piano	1165	250	0	stimuli\piano\piano_02n.jpg	1	-1	0	0	piano_02n.jpg	0	0	0	122.283176681609	122.333168843179	0.0499921615701169
31763	50	251	0	0	headscarf	768	251	0	stimuli\headscarf\headscarf_03s.jpg	2	-1	0	0	headscarf_03s.jpg	0	0	0	122.383181240875	122.433160968125	0.0499797272495925
31863	50	252	0	0	bee	111	252	0	stimuli\bee\bee_08s.jpg	7	-1	0	0	bee_08s.jpg	0	0	0	122.483181655407	122.533160407329	0.0499787519220263
31963	50	253	0	0	pulley	1250	253	0	stimuli\pulley\pulley_05s.jpg	4	-1	0	0	pulley_05s.jpg	0	0	0	122.583186702221	122.633161553298	0.0499748510774225
32063	50	254	0	0	slingshot	1467	254	0	stimuli\slingshot\slingshot_05s.jpg	4	-1	0	0	slingshot_05s.jpg	0	0	0	122.683187360526	122.733164162026	0.0499768014997244
32163	50	255	0	0	tick	1656	255	0	stimuli\tick\tick_11s.jpg	10	-1	0	0	tick_11s.jpg	0	0	0	122.783190700691	122.833169696503	0.0499789958121255
32263	50	256	0	0	padlock	1095	256	0	stimuli\padlock\padlock_12s.jpg	11	-1	0	0	padlock_12s.jpg	0	0	0	122.88319160277	122.933175474755	0.0499838719842955
32363	50	257	0	0	bag	54	257	0	stimuli\bag\bag_06s.jpg	5	-1	0	0	bag_06s.jpg	0	0	0	122.983193967724	123.03317637695	0.0499824092257768
32463	50	258	0	0	stethoscope	1550	258	0	stimuli\stethoscope\stethoscope_04s.jpg	3	-1	0	0	stethoscope_04s.jpg	0	0	0	123.083198770764	123.133175816154	0.0499770453898236
32563	50	259	0	0	stingray	1556	259	0	stimuli\stingray\stingray_04s.jpg	3	-1	0	0	stingray_04s.jpg	0	0	0	123.183199916733	123.233178668772	0.0499787520384416
32663	50	260	0	0	razor_blade	1291	260	0	stimuli\razor_blade\razor_blade_11s.jpg	10	-1	0	0	razor_blade_11s.jpg	0	0	0	123.283201794024	123.333182740374	0.0499809463508427
32763	50	261	0	0	cookie	400	261	0	stimuli\cookie\cookie_10s.jpg	9	-1	0	0	cookie_10s.jpg	0	0	0	123.383207328501	123.433215093799	0.050007765297778
32863	50	262	0	0	jelly_bean	844	262	0	stimuli\jelly_bean\jelly_bean_01b.jpg	0	-1	0	0	jelly_bean_01b.jpg	0	0	0	123.48321676394	123.533199416939	0.0499826529994607
32963	50	263	0	0	mosquito_net	1021	263	0	stimuli\mosquito_net\mosquito_net_12s.jpg	11	-1	0	0	mosquito_net_12s.jpg	0	0	0	123.583220835542	123.63321641041	0.0499955748673528
33063	50	264	0	0	gas_mask	660	264	0	stimuli\gas_mask\gas_mask_10s.jpg	9	-1	0	0	gas_mask_10s.jpg	0	0	0	123.683245630935	123.733229015372	0.0499833844369277
33163	50	265	0	0	handprint	750	265	0	stimuli\handprint\handprint_12s.jpg	11	-1	0	0	handprint_12s.jpg	0	0	0	123.783244095044	123.833223578404	0.0499794833594933
33263	50	266	0	0	pipe2	1187	266	0	stimuli\pipe2\pipe2_09s.jpg	8	-1	0	0	pipe2_09s.jpg	0	0	0	123.883244021796	123.933224480483	0.0499804586870596
33363	50	267	0	0	clay	352	267	0	stimuli\clay\clay_02s.jpg	1	-1	0	0	clay_02s.jpg	0	0	0	123.98324638675	124.033228064538	0.0499816777883098
33463	50	268	0	0	kitten	875	268	0	stimuli\kitten\kitten_11s.jpg	10	-1	0	0	kitten_11s.jpg	0	0	0	124.083234366961	124.133231648477	0.0499972815159708
33563	50	269	0	0	apron	33	269	0	stimuli\apron\apron_10s.jpg	9	-1	0	0	apron_10s.jpg	0	0	0	124.183253554744	124.233232063008	0.0499785082647577
33663	50	270	0	0	crystal2	454	270	0	stimuli\crystal2\crystal2_10s.jpg	9	-1	0	0	crystal2_10s.jpg	0	0	0	124.283259333111	124.333222968853	0.049963635741733
33763	50	271	0	0	chopsticks	339	271	0	stimuli\chopsticks\chopsticks_09s.jpg	8	-1	0	0	chopsticks_09s.jpg	0	0	0	124.38326023519	124.433238255791	0.0499780206009746
33863	50	272	0	0	quad	1260	272	0	stimuli\quad\quad_01b.jpg	0	-1	0	0	quad_01b.jpg	0	0	0	124.483258699183	124.533239645418	0.0499809462344274
33963	50	273	0	0	navel	1052	273	0	stimuli\navel\navel_06s.jpg	5	-1	0	0	navel_06s.jpg	0	0	0	124.583260820364	124.633239816176	0.0499789958121255
34063	50	274	0	0	ice_pack	820	274	0	stimuli\ice_pack\ice_pack_02s.jpg	1	-1	0	0	ice_pack_02s.jpg	0	0	0	124.683263429091	124.733244375326	0.0499809462344274
34163	50	275	0	0	champagne	304	275	0	stimuli\champagne\champagne_09s.jpg	8	-1	0	0	champagne_09s.jpg	0	0	0	124.783262868295	124.833246008842	0.0499831405468285
34263	50	276	0	0	swimming_pool	1596	276	0	stimuli\swimming_pool\swimming_pool_09s.jpg	8	-1	0	0	swimming_pool_09s.jpg	0	0	0	124.883266939898	124.933249836671	0.0499828967731446
34363	50	277	0	0	vase	1753	277	0	stimuli\vase\vase_05s.jpg	4	-1	0	0	vase_05s.jpg	0	0	0	124.983273693477	125.033252445515	0.0499787520384416
34463	50	278	0	0	pogo_stick	1208	278	0	stimuli\pogo_stick\pogo_stick_01s.jpg	0	-1	0	0	pogo_stick_01s.jpg	0	0	0	125.083276058431	125.133257979993	0.0499819215619937
34563	50	279	0	0	outfit	1087	279	0	stimuli\outfit\outfit_08s.jpg	7	-1	0	0	outfit_08s.jpg	0	0	0	125.183274522424	125.233262783033	0.0499882606090978
34663	50	280	0	0	sword	1602	280	0	stimuli\sword\sword_10s.jpg	9	-1	0	0	sword_10s.jpg	0	0	0	125.283276643604	125.333260027925	0.0499833843205124
34763	50	281	0	0	bagel	55	281	0	stimuli\bagel\bagel_04s.jpg	3	-1	0	0	bagel_04s.jpg	0	0	0	125.38328388473	125.433262149105	0.0499782643746585
34863	50	282	0	0	denture	478	282	0	stimuli\denture\denture_06s.jpg	5	-1	0	0	denture_06s.jpg	0	0	0	125.483284786809	125.533266952145	0.0499821653356776
34963	50	283	0	0	timer	1661	283	0	stimuli\timer\timer_09s.jpg	8	-1	0	0	timer_09s.jpg	0	0	0	125.583288614638	125.633270048536	0.0499814338982105
35063	50	284	0	0	tapestry	1625	284	0	stimuli\tapestry\tapestry_10s.jpg	9	-1	0	0	tapestry_10s.jpg	0	0	0	125.683290491928	125.733276558225	0.0499860662966967
35163	50	285	0	0	backgammon	48	285	0	stimuli\backgammon\backgammon_08s.jpg	7	-1	0	0	backgammon_08s.jpg	0	0	0	125.783292369219	125.833273071796	0.0499807025771588
35263	50	286	0	0	pelican	1140	286	0	stimuli\pelican\pelican_07s.jpg	6	-1	0	0	pelican_07s.jpg	0	0	0	125.883294002851	125.933278362383	0.0499843595316634
35363	50	287	0	0	omelet	1076	287	0	stimuli\omelet\omelet_11s.jpg	10	-1	0	0	omelet_11s.jpg	0	0	0	125.983298318228	126.033280483563	0.0499821653356776
35463	50	288	0	0	sock	1489	288	0	stimuli\sock\sock_09s.jpg	8	-1	0	0	sock_09s.jpg	0	0	0	126.083300195518	126.133287968463	0.0499877729453146
35563	50	289	0	0	donkey	504	289	0	stimuli\donkey\donkey_06s.jpg	5	-1	0	0	donkey_06s.jpg	0	0	0	126.183299634838	126.233283750596	0.0499841157579795
35663	50	290	0	0	honeypot	790	290	0	stimuli\honeypot\honeypot_04s.jpg	3	-1	0	0	honeypot_04s.jpg	0	0	0	126.283303706441	126.333285871777	0.0499821653356776
35763	50	291	0	0	snowsuit	1486	291	0	stimuli\snowsuit\snowsuit_05s.jpg	4	-1	0	0	snowsuit_05s.jpg	0	0	0	126.383310703794	126.433287749067	0.0499770452734083
35863	50	292	0	0	coffee_table	381	292	0	stimuli\coffee_table\coffee_table_02s.jpg	1	-1	0	0	coffee_table_02s.jpg	0	0	0	126.483315750607	126.533291576896	0.0499758262885734
35963	50	293	0	0	bathrobe	90	293	0	stimuli\bathrobe\bathrobe_05s.jpg	4	-1	0	0	bathrobe_05s.jpg	0	0	0	126.583319090772	126.633298086585	0.0499789958121255
36063	50	294	0	0	orange_rind	1079	294	0	stimuli\orange_rind\orange_rind_03s.jpg	2	-1	0	0	orange_rind_03s.jpg	0	0	0	126.683315848117	126.73330167064	0.0499858225230128
36163	50	295	0	0	gem	670	295	0	stimuli\gem\gem_08s.jpg	7	-1	0	0	gem_08s.jpg	0	0	0	126.783319675946	126.833301597508	0.0499819215619937
36263	50	296	0	0	pliers	1201	296	0	stimuli\pliers\pliers_04s.jpg	3	-1	0	0	pliers_04s.jpg	0	0	0	126.883319846587	126.933301524376	0.0499816777883098
36363	50	297	0	0	nacho	1045	297	0	stimuli\nacho\nacho_04s.jpg	3	-1	0	0	nacho_04s.jpg	0	0	0	126.983322699205	127.033304864541	0.0499821653356776
36463	50	298	0	0	shears	1412	298	0	stimuli\shears\shears_03s.jpg	2	-1	0	0	shears_03s.jpg	0	0	0	127.083329452667	127.133308936143	0.0499794834759086
36563	50	299	0	0	coffee	377	299	0	stimuli\coffee\coffee_02s.jpg	1	-1	0	0	coffee_02s.jpg	0	0	0	127.183328891988	127.233312520082	0.0499836280941963
36663	50	300	0	0	milkshake	1002	300	0	stimuli\milkshake\milkshake_10s.jpg	9	-1	0	0	milkshake_10s.jpg	0	0	0	127.283334670239	127.333314153599	0.0499794833594933
36763	50	301	0	0	birdcage	130	301	0	stimuli\birdcage\birdcage_04s.jpg	3	-1	0	0	birdcage_04s.jpg	0	0	0	127.383335328544	127.433315787115	0.0499804585706443
36863	50	302	0	0	phone_booth	1162	302	0	stimuli\phone_booth\phone_booth_07s.jpg	6	-1	0	0	phone_booth_07s.jpg	0	0	0	127.48333866871	127.533319614944	0.0499809462344274
36963	50	303	0	0	pallet	1101	303	0	stimuli\pallet\pallet_04s.jpg	3	-1	0	0	pallet_04s.jpg	0	0	0	127.583339814562	127.633321736124	0.0499819215619937
37063	50	304	0	0	snail	1476	304	0	stimuli\snail\snail_11s.jpg	10	-1	0	0	snail_11s.jpg	0	0	0	127.683344861493	127.733326295391	0.0499814338982105
37163	50	305	0	0	basket	82	305	0	stimuli\basket\basket_06s.jpg	5	-1	0	0	basket_06s.jpg	0	0	0	127.783349420642	127.83332719747	0.0499777768272907
37263	50	306	0	0	column	388	306	0	stimuli\column\column_03s.jpg	2	-1	0	0	column_03s.jpg	0	0	0	127.883347153314	127.933328343323	0.0499811900081113
37363	50	307	0	0	hash	756	307	0	stimuli\hash\hash_01b.jpg	0	-1	0	0	hash_01b.jpg	0	0	0	127.983349762042	128.033329733065	0.0499799710232764
37463	50	308	0	0	totem_pole	1689	308	0	stimuli\totem_pole\totem_pole_11s.jpg	10	-1	0	0	totem_pole_11s.jpg	0	0	0	128.083359928918	128.13333599898	0.0499760700622573
45713	50	309	0	0	wrist	1842	0	1	stimuli\wrist\wrist_09s.jpg	8	-1	1	0	wrist_09s.jpg	0	0	0	136.333579174592	136.383561339928	0.0499821653356776
45813	50	310	0	0	meerkat	992	1	1	stimuli\meerkat\meerkat_04s.jpg	3	-1	1	0	meerkat_04s.jpg	0	0	0	136.433565691928	136.483563704882	0.0499980129534379
45913	50	311	0	0	bowler_hat	178	2	1	stimuli\bowler_hat\bowler_hat_02s.jpg	1	-1	1	0	bowler_hat_02s.jpg	0	0	0	136.533581222524	136.583560949774	0.0499797272495925
46013	50	312	0	0	salami	1349	3	1	stimuli\salami\salami_04s.jpg	3	-1	1	0	salami_04s.jpg	0	0	0	136.633581880829	136.683563314728	0.0499814338982105
46113	50	313	0	0	lasagna	898	4	1	stimuli\lasagna\lasagna_06s.jpg	5	-1	1	0	lasagna_06s.jpg	0	0	0	136.733588390518	136.783567873994	0.0499794834759086
46213	50	314	0	0	aquarium	34	5	1	stimuli\aquarium\aquarium_01b.jpg	0	-1	1	0	aquarium_01b.jpg	0	0	0	136.83358880505	136.883571945596	0.0499831405468285
46313	50	315	0	0	sledgehammer	1461	6	1	stimuli\sledgehammer\sledgehammer_09s.jpg	8	-1	1	0	sledgehammer_09s.jpg	0	0	0	136.933588244254	136.983572360128	0.0499841158743948
46413	50	316	0	0	forklift	635	7	1	stimuli\forklift\forklift_03s.jpg	2	-1	1	0	forklift_03s.jpg	0	0	0	137.033591584419	137.083572774543	0.0499811901245266
46513	50	317	0	0	bulletin_board	217	8	1	stimuli\bulletin_board\bulletin_board_05s.jpg	4	-1	1	0	bulletin_board_05s.jpg	0	0	0	137.13359468081	137.183580990997	0.0499863101867959
46613	50	318	0	0	flyswatter	623	9	1	stimuli\flyswatter\flyswatter_11s.jpg	10	-1	1	0	flyswatter_11s.jpg	0	0	0	137.233600946725	137.283560681622	0.0499597348971292
46713	50	319	0	0	hopscotch	796	10	1	stimuli\hopscotch\hopscotch_07s.jpg	6	-1	1	0	hopscotch_07s.jpg	0	0	0	137.333573810756	137.383555732318	0.0499819215619937
46813	50	320	0	0	blanket	136	11	1	stimuli\blanket\blanket_01b.jpg	0	-1	1	0	blanket_01b.jpg	0	0	0	137.433571543312	137.483556878171	0.0499853348592296
46913	50	321	0	0	paper_towel	1115	12	1	stimuli\paper_towel\paper_towel_06s.jpg	5	-1	1	0	paper_towel_06s.jpg	0	0	0	137.533579515875	137.583560949774	0.0499814338982105
47013	50	322	0	0	fuse	652	13	1	stimuli\fuse\fuse_05s.jpg	4	-1	1	0	fuse_05s.jpg	0	0	0	137.633580174181	137.683563802391	0.0499836282106116
47113	50	323	0	0	scale	1371	14	1	stimuli\scale\scale_03s.jpg	2	-1	1	0	scale_03s.jpg	0	0	0	137.733585220994	137.783567873994	0.0499826529994607
47213	50	324	0	0	star_fruit	1540	15	1	stimuli\star_fruit\star_fruit_04s.jpg	3	-1	1	0	star_fruit_04s.jpg	0	0	0	137.833587342175	137.883571945596	0.0499846034217626
47313	50	325	0	0	slot_machine	1470	16	1	stimuli\slot_machine\slot_machine_05s.jpg	4	-1	1	0	slot_machine_05s.jpg	0	0	0	137.933585806168	137.983573091566	0.0499872853979468
47413	50	326	0	0	headband	762	17	1	stimuli\headband\headband_10s.jpg	9	-1	1	0	headband_10s.jpg	0	0	0	138.033590365434	138.083574481192	0.0499841157579795
47513	50	327	0	0	nail_file	1048	18	1	stimuli\nail_file\nail_file_03s.jpg	2	-1	1	0	nail_file_03s.jpg	0	0	0	138.133598337998	138.183579284232	0.0499809462344274
47613	50	328	0	0	clover	366	19	1	stimuli\clover\clover_11s.jpg	10	-1	1	1	clover_11s.jpg	0	0	0	138.233596314327	138.283580186428	0.0499838721007109
47713	50	329	0	0	turf	1732	20	1	stimuli\turf\turf_03s.jpg	2	-1	1	0	turf_03s.jpg	0	0	0	138.333600386046	138.383585720905	0.0499853348592296
47813	50	330	0	0	tab	1607	21	1	stimuli\tab\tab_04s.jpg	3	-1	1	0	tab_04s.jpg	0	0	0	138.433604701422	138.483588085859	0.0499833844369277
47913	50	331	0	0	hatchet	759	22	1	stimuli\hatchet\hatchet_04s.jpg	3	-1	1	0	hatchet_04s.jpg	0	0	0	138.533604384516	138.583588256501	0.0499838719842955
48013	50	332	0	0	stalagmite	1534	23	1	stimuli\stalagmite\stalagmite_01b.jpg	0	-1	1	0	stalagmite_01b.jpg	0	0	0	138.633608456119	138.683589890017	0.0499814338982105
48113	50	333	0	0	groundhog	718	24	1	stimuli\groundhog\groundhog_03n.jpg	2	-1	1	0	groundhog_03n.jpg	0	0	0	138.733608870534	138.783594449284	0.0499855787493289
48213	50	334	0	0	chime	328	25	1	stimuli\chime\chime_02s.jpg	1	-1	1	0	chime_02s.jpg	1	0.592161085922271	1	138.833615624113	138.883597058011	0.0499814338982105
48313	50	335	0	0	lipstick	936	26	1	stimuli\lipstick\lipstick_12s.jpg	11	-1	1	0	lipstick_12s.jpg	0	0	0	138.933616526192	138.983598691528	0.0499821653356776
48413	50	336	0	0	cleaver	354	27	1	stimuli\cleaver\cleaver_08s.jpg	7	-1	1	0	cleaver_08s.jpg	0	0	0	139.033617428271	139.083602275467	0.0499848471954465
48513	50	337	0	0	earwig	541	28	1	stimuli\earwig\earwig_11s.jpg	10	-1	1	0	earwig_11s.jpg	0	0	0	139.133620036999	139.183607322397	0.0499872853979468
48613	50	338	0	0	chickpea	325	29	1	stimuli\chickpea\chickpea_05s.jpg	4	-1	1	0	chickpea_05s.jpg	0	0	0	139.233620939194	139.283605054952	0.0499841157579795
48713	50	339	0	0	boxing_gloves	183	30	1	stimuli\boxing_gloves\boxing_gloves_04s.jpg	3	-1	1	0	boxing_gloves_04s.jpg	0	0	0	139.333629155532	139.383609370328	0.0499802147969604
48813	50	340	0	0	biscuit	133	31	1	stimuli\biscuit\biscuit_07s.jpg	6	-1	1	0	biscuit_07s.jpg	0	0	0	139.433630789048	139.483613198157	0.0499824091093615
48913	50	341	0	0	vegetable	1754	32	1	stimuli\vegetable\vegetable_11s.jpg	10	-1	1	0	vegetable_11s.jpg	0	0	0	139.533631447353	139.583614100236	0.0499826528830454
49013	50	342	0	0	fruit	645	33	1	stimuli\fruit\fruit_01b.jpg	0	-1	1	0	fruit_01b.jpg	0	0	0	139.63363308087	139.683619634714	0.0499865538440645
49113	50	343	0	0	footbath	631	34	1	stimuli\footbath\footbath_01s.jpg	0	-1	1	0	footbath_01s.jpg	0	0	0	139.733639834332	139.783621024457	0.0499811901245266
49213	50	344	0	0	french_fries	641	35	1	stimuli\french_fries\french_fries_06s.jpg	5	-1	1	0	french_fries_06s.jpg	0	0	0	139.833640248864	139.883622170426	0.0499819215619937
49313	50	345	0	0	gate	662	36	1	stimuli\gate\gate_03s.jpg	2	-1	1	0	gate_03s.jpg	0	0	0	139.933641394717	139.983623803942	0.0499824092257768
49413	50	346	0	0	applesauce	32	37	1	stimuli\applesauce\applesauce_05s.jpg	4	-1	1	0	applesauce_05s.jpg	0	0	0	140.033646197757	140.083631045069	0.0499848473118618
49513	50	347	0	0	cooker	399	38	1	stimuli\cooker\cooker_07s.jpg	6	-1	1	0	cooker_07s.jpg	0	0	0	140.133645880851	140.183629996609	0.0499841157579795
49613	50	348	0	0	beaver	107	39	1	stimuli\beaver\beaver_09s.jpg	8	-1	1	0	beaver_09s.jpg	0	0	0	140.233647758141	140.283634312102	0.0499865539604798
49713	50	349	0	0	ketchup	867	40	1	stimuli\ketchup\ketchup_12s.jpg	11	-1	1	0	ketchup_12s.jpg	0	0	0	140.333654755494	140.383655937971	0.0500011824769899
49813	50	350	0	0	tambourine	1619	41	1	stimuli\tambourine\tambourine_09s.jpg	8	-1	1	0	tambourine_09s.jpg	0	0	0	140.433654926135	140.483640017221	0.0499850910855457
49913	50	351	0	0	tomato	1672	42	1	stimuli\tomato\tomato_10n.jpg	9	-1	1	0	tomato_10n.jpg	0	0	0	140.533657291089	140.583645795472	0.0499885043827817
50013	50	352	0	0	sparkler	1507	43	1	stimuli\sparkler\sparkler_11s.jpg	10	-1	1	0	sparkler_11s.jpg	0	0	0	140.633662825567	140.683644015691	0.0499811901245266
50113	50	353	0	0	chandelier	305	44	1	stimuli\chandelier\chandelier_05s.jpg	4	-1	1	0	chandelier_05s.jpg	0	0	0	140.733664459083	140.783651256817	0.0499867977341637
50213	50	354	0	0	smoothie	1474	45	1	stimuli\smoothie\smoothie_09s.jpg	8	-1	1	0	smoothie_09s.jpg	0	0	0	140.833665361279	140.8836499647	0.0499846034217626
50313	50	355	0	0	eye	564	46	1	stimuli\eye\eye_03s.jpg	2	-1	1	0	eye_03s.jpg	0	0	0	140.93366821378	140.983654036303	0.0499858225230128
50413	50	356	0	0	onion	1077	47	1	stimuli\onion\onion_01b.jpg	0	-1	1	0	onion_01b.jpg	0	0	0	141.033670822508	141.083658595569	0.04998777306173
50513	50	357	0	0	espresso	560	48	1	stimuli\espresso\espresso_04s.jpg	3	-1	1	0	espresso_04s.jpg	0	0	0	141.133674894227	141.183658766211	0.0499838719842955
50613	50	358	0	0	grater	708	49	1	stimuli\grater\grater_03s.jpg	2	-1	1	0	grater_03s.jpg	0	0	0	141.233677502954	141.283663569251	0.0499860662966967
50713	50	359	0	0	cigarette	344	50	1	stimuli\cigarette\cigarette_12s.jpg	11	-1	1	0	cigarette_12s.jpg	0	0	0	141.333681818331	141.383663008455	0.0499811901245266
50813	50	360	0	0	manhole	967	51	1	stimuli\manhole\manhole_09n.jpg	8	-1	1	0	manhole_09n.jpg	0	0	0	141.433682476636	141.483663910534	0.0499814338982105
50913	50	361	0	0	otter	1085	52	1	stimuli\otter\otter_01b.jpg	0	-1	1	0	otter_01b.jpg	0	0	0	141.533684110153	141.583668957464	0.0499848473118618
51013	50	362	0	0	incubator	827	53	1	stimuli\incubator\incubator_01b.jpg	0	-1	1	0	incubator_01b.jpg	0	0	0	141.633686231333	141.683670590981	0.0499843596480787
51113	50	363	0	0	tack	1611	54	1	stimuli\tack\tack_07s.jpg	6	-1	1	0	tack_07s.jpg	0	0	0	141.733688108623	141.783675394021	0.0499872853979468
51213	50	364	0	0	salad	1348	55	1	stimuli\salad\salad_09s.jpg	8	-1	1	0	salad_09s.jpg	0	0	0	141.833692424116	141.883675808436	0.0499833843205124
51313	50	365	0	0	dreidel	517	56	1	stimuli\dreidel\dreidel_02s.jpg	1	-1	1	0	dreidel_02s.jpg	0	0	0	141.933694057632	141.983676710515	0.0499826528830454
51413	50	366	0	0	scaffolding	1370	57	1	stimuli\scaffolding\scaffolding_05s.jpg	4	-1	1	0	scaffolding_05s.jpg	0	0	0	142.033699835883	142.083681757445	0.0499819215619937
51513	50	367	0	0	sequin	1404	58	1	stimuli\sequin\sequin_09s.jpg	8	-1	1	0	sequin_09s.jpg	0	0	0	142.133699031314	142.183684609947	0.0499855786329135
51613	50	368	0	0	quill	1263	59	1	stimuli\quill\quill_05s.jpg	4	-1	1	0	quill_05s.jpg	0	0	0	142.233700908604	142.283690875862	0.0499899672577158
51713	50	369	0	0	vest	1759	60	1	stimuli\vest\vest_08s.jpg	7	-1	1	0	vest_08s.jpg	0	0	0	142.333706443082	142.383692265605	0.0499858225230128
51813	50	370	0	0	showerhead	1436	61	1	stimuli\showerhead\showerhead_11s.jpg	10	-1	1	0	showerhead_11s.jpg	0	0	0	142.433708076598	142.483694142895	0.0499860662966967
51913	50	371	0	0	engine	557	62	1	stimuli\engine\engine_12s.jpg	11	-1	1	0	engine_12s.jpg	0	0	0	142.533712392091	142.583698458388	0.0499860662966967
52013	50	372	0	0	piggy_bank	1172	63	1	stimuli\piggy_bank\piggy_bank_02s.jpg	1	-1	1	0	piggy_bank_02s.jpg	0	0	0	142.633712806506	142.68369960424	0.0499867977341637
52113	50	373	0	0	shell1	1417	64	1	stimuli\shell1\shell1_02s.jpg	1	-1	1	0	shell1_02s.jpg	0	0	0	142.733717121999	142.783701237757	0.0499841157579795
52213	50	374	0	0	chin	330	65	1	stimuli\chin\chin_07s.jpg	6	-1	1	0	chin_07s.jpg	0	0	0	142.833719243179	142.8837026275	0.0499833843205124
52313	50	375	0	0	domino	503	66	1	stimuli\domino\domino_10s.jpg	9	-1	1	0	domino_10s.jpg	0	0	0	142.933723314782	142.983707186766	0.0499838719842955
52413	50	376	0	0	badge	52	67	1	stimuli\badge\badge_04s.jpg	3	-1	1	0	badge_04s.jpg	0	0	0	143.033728361595	143.083711014595	0.0499826529994607
52513	50	377	0	0	wreath	1839	68	1	stimuli\wreath\wreath_06s.jpg	5	-1	1	0	wreath_06s.jpg	0	0	0	143.133726825588	143.18370850326	0.0499816776718944
52613	50	378	0	0	octopus	1070	69	1	stimuli\octopus\octopus_10s.jpg	9	-1	1	0	octopus_10s.jpg	0	0	0	143.23373260384	143.283715013065	0.0499824092257768
52713	50	379	0	0	bed	108	70	1	stimuli\bed\bed_03s.jpg	2	-1	1	0	bed_03s.jpg	0	0	0	143.333738869755	143.383716158918	0.0499772891635075
52813	50	380	0	0	toaster_oven	1667	71	1	stimuli\toaster_oven\toaster_oven_08s.jpg	7	-1	1	0	toaster_oven_08s.jpg	0	0	0	143.433736358536	143.483720230521	0.0499838719842955
52913	50	381	0	0	satellite_dish	1361	72	1	stimuli\satellite_dish\satellite_dish_05s.jpg	4	-1	1	0	satellite_dish_05s.jpg	0	0	0	143.533742136788	143.583725033561	0.0499828967731446
53013	50	382	0	0	garlic	658	73	1	stimuli\garlic\garlic_09s.jpg	8	-1	1	0	garlic_09s.jpg	0	0	0	143.633740844671	143.683724960429	0.0499841157579795
53113	50	383	0	0	fencepost	576	74	1	stimuli\fencepost\fencepost_02s.jpg	1	-1	1	0	fencepost_02s.jpg	0	0	0	143.733749548672	143.783729275921	0.0499797272495925
53213	50	384	0	0	yacht	1844	75	1	stimuli\yacht\yacht_06s.jpg	5	-1	1	0	yacht_06s.jpg	0	0	0	143.833749963087	143.883728958899	0.0499789958121255
53313	50	385	0	0	dough	513	76	1	stimuli\dough\dough_08s.jpg	7	-1	1	0	dough_08s.jpg	0	0	0	143.933750621392	143.983732786728	0.0499821653356776
53413	50	386	0	0	fireworks	598	77	1	stimuli\fireworks\fireworks_11s.jpg	10	-1	1	0	fireworks_11s.jpg	0	0	0	144.033773222589	144.083735395456	0.0499621728667989
53513	50	387	0	0	strawberry	1570	78	1	stimuli\strawberry\strawberry_04n.jpg	3	-1	1	0	strawberry_04n.jpg	0	0	0	144.133755107527	144.1837380043	0.0499828967731446
53613	50	388	0	0	filing_cabinet	585	79	1	stimuli\filing_cabinet\filing_cabinet_09s.jpg	8	-1	1	0	filing_cabinet_09s.jpg	0	0	0	144.233757228591	144.283740856801	0.0499836282106116
53713	50	389	0	0	bracket	189	80	1	stimuli\bracket\bracket_08s.jpg	7	-1	1	0	bracket_08s.jpg	0	0	0	144.333760812646	144.383742734208	0.0499819215619937
53813	50	390	0	0	blazer	137	81	1	stimuli\blazer\blazer_07s.jpg	6	-1	1	0	blazer_07s.jpg	0	0	0	144.433763421373	144.483747781022	0.0499843596480787
53913	50	391	0	0	splinter	1516	82	1	stimuli\splinter\splinter_07s.jpg	6	-1	1	0	splinter_07s.jpg	0	0	0	144.533771637827	144.583753315499	0.0499816776718944
54013	50	392	0	0	wing	1827	83	1	stimuli\wing\wing_01b.jpg	0	-1	1	0	wing_01b.jpg	0	0	0	144.63377278368	144.683758118539	0.0499853348592296
54113	50	393	0	0	folder	625	84	1	stimuli\folder\folder_11s.jpg	10	-1	1	0	folder_11s.jpg	0	0	0	144.733790264814	144.783756826306	0.0499665614916012
54213	50	394	0	0	chest1	319	85	1	stimuli\chest1\chest1_05s.jpg	4	-1	1	0	chest1_05s.jpg	0	0	0	144.833777757362	144.883760898025	0.0499831406632438
54313	50	395	0	0	ink	829	86	1	stimuli\ink\ink_10s.jpg	9	-1	1	0	ink_10s.jpg	0	0	0	144.933780366206	144.983767651487	0.0499872852815315
54413	50	396	0	0	stair	1532	87	1	stimuli\stair\stair_11s.jpg	10	-1	1	0	stair_11s.jpg	0	0	0	145.033785656793	145.083768797456	0.0499831406632438
54513	50	397	0	0	parking_meter	1120	88	1	stimuli\parking_meter\parking_meter_01b.jpg	0	-1	1	0	parking_meter_01b.jpg	0	0	0	145.13378460845	145.183769211872	0.0499846034217626
54613	50	398	0	0	anteater	25	89	1	stimuli\anteater\anteater_12s.jpg	11	-1	1	0	anteater_12s.jpg	0	0	0	145.233787704841	145.283771820599	0.0499841157579795
54713	50	399	0	0	headlight	765	90	1	stimuli\headlight\headlight_11s.jpg	10	-1	1	0	headlight_11s.jpg	0	0	0	145.333792020218	145.383775404654	0.0499833844369277
54813	50	400	0	0	rollerskate	1327	91	1	stimuli\rollerskate\rollerskate_09s.jpg	8	-1	1	0	rollerskate_09s.jpg	0	0	0	145.433794872835	145.483777038171	0.0499821653356776
54913	50	401	0	0	streetlight	1571	92	1	stimuli\streetlight\streetlight_05s.jpg	4	-1	1	0	streetlight_05s.jpg	0	0	0	145.533796994016	145.583778671687	0.0499816776718944
55013	50	402	0	0	ski_lift	1454	93	1	stimuli\ski_lift\ski_lift_11s.jpg	10	-1	1	0	ski_lift_11s.jpg	0	0	0	145.633799602743	145.68378006143	0.0499804586870596
55113	50	403	0	0	jewel	849	94	1	stimuli\jewel\jewel_03s.jpg	2	-1	1	0	jewel_03s.jpg	0	0	0	145.733800748596	145.783788277768	0.0499875291716307
55213	50	404	0	0	possum	1228	95	1	stimuli\possum\possum_03s.jpg	2	-1	1	0	possum_03s.jpg	0	0	0	145.833803601214	145.883787473198	0.0499838719842955
55313	50	405	0	0	satellite	1360	96	1	stimuli\satellite\satellite_01b.jpg	0	-1	1	0	satellite_01b.jpg	0	0	0	145.933806453831	145.983795933425	0.0499894795939326
55413	50	406	0	0	trombone	1716	97	1	stimuli\trombone\trombone_03s.jpg	2	-1	1	0	trombone_03s.jpg	0	0	0	146.033809550107	146.083792934543	0.0499833844369277
55513	50	407	0	0	jumpsuit	859	98	1	stimuli\jumpsuit\jumpsuit_11s.jpg	10	-1	1	0	jumpsuit_11s.jpg	0	0	0	146.133812646498	146.183797006146	0.0499843596480787
55613	50	408	0	0	stump	1576	99	1	stimuli\stump\stump_06s.jpg	5	-1	1	0	stump_06s.jpg	0	0	0	146.233826958109	146.283801321639	0.0499743635300547
55713	50	409	0	0	crutch	452	100	1	stimuli\crutch\crutch_01b.jpg	0	-1	1	0	crutch_01b.jpg	0	0	0	146.333819570718	146.38380124839	0.0499816776718944
55813	50	410	0	0	barrette	77	101	1	stimuli\barrette\barrette_02s.jpg	1	-1	1	0	barrette_02s.jpg	0	0	0	146.433820716687	146.483816779102	0.0499960624147207
55913	50	411	0	0	cornmeal	415	102	1	stimuli\cornmeal\cornmeal_09s.jpg	8	-1	1	0	cornmeal_09s.jpg	0	0	0	146.533826738712	146.583805246977	0.0499785082647577
56013	50	412	0	0	bin	125	103	1	stimuli\bin\bin_07s.jpg	6	-1	1	0	bin_07s.jpg	0	0	0	146.633825202705	146.683809562353	0.0499843596480787
56113	50	413	0	0	flagpole	606	104	1	stimuli\flagpole\flagpole_12s.jpg	11	-1	1	0	flagpole_12s.jpg	0	0	0	146.733829761972	146.783812658745	0.0499828967731446
56213	50	414	0	0	pulpit	1251	105	1	stimuli\pulpit\pulpit_02s.jpg	1	-1	1	0	pulpit_02s.jpg	0	0	0	146.833831639262	146.88381307316	0.0499814338982105
56313	50	415	0	0	steering_wheel	1546	106	1	stimuli\steering_wheel\steering_wheel_02s.jpg	1	-1	1	0	steering_wheel_02s.jpg	0	0	0	146.933833029005	146.983815682004	0.0499826529994607
56413	50	416	0	0	avocado	43	107	1	stimuli\avocado\avocado_10s.jpg	9	-1	1	0	avocado_10s.jpg	0	0	0	147.033838319709	147.083821704029	0.0499833843205124
56513	50	417	0	0	sponge	1517	108	1	stimuli\sponge\sponge_06s.jpg	5	-1	1	0	sponge_06s.jpg	0	0	0	147.133840440772	147.183825775632	0.0499853348592296
56613	50	418	0	0	mold2	1013	109	1	stimuli\mold2\mold2_05s.jpg	4	-1	1	0	mold2_05s.jpg	0	0	0	147.233841830515	147.283831066336	0.0499892358202487
56713	50	419	0	0	kangaroo	862	110	1	stimuli\kangaroo\kangaroo_02s.jpg	1	-1	1	0	kangaroo_02s.jpg	0	0	0	147.33384517068	147.38382782368	0.0499826529994607
56813	50	420	0	0	yak	1845	111	1	stimuli\yak\yak_12s.jpg	11	-1	1	0	yak_12s.jpg	0	0	0	147.433848754736	147.483835064806	0.0499863100703806
56913	50	421	0	0	bowtie	180	112	1	stimuli\bowtie\bowtie_07s.jpg	6	-1	1	0	bowtie_07s.jpg	0	0	0	147.533850875916	147.583832553588	0.0499816776718944
57013	50	422	0	0	tent	1643	113	1	stimuli\tent\tent_03s.jpg	2	-1	1	0	tent_03s.jpg	0	0	0	147.633851777995	147.683834918542	0.0499831405468285
57113	50	423	0	0	petri_dish	1159	114	1	stimuli\petri_dish\petri_dish_11s.jpg	10	-1	1	0	petri_dish_11s.jpg	0	0	0	147.733855605824	147.783838746371	0.0499831405468285
57213	50	424	0	0	pepper1	1149	115	1	stimuli\pepper1\pepper1_02s.jpg	1	-1	1	0	pepper1_02s.jpg	0	0	0	147.833857726888	147.88384233031	0.0499846034217626
57313	50	425	0	0	solar_panel	1493	116	1	stimuli\solar_panel\solar_panel_04s.jpg	3	-1	1	0	solar_panel_04s.jpg	0	0	0	147.933862529928	147.983845914365	0.0499833844369277
57413	50	426	0	0	straw2	1569	117	1	stimuli\straw2\straw2_10s.jpg	9	-1	1	0	straw2_10s.jpg	0	0	0	148.033863188233	148.083847060218	0.0499838719842955
57513	50	427	0	0	battery	97	118	1	stimuli\battery\battery_09n.jpg	8	-1	1	0	battery_09n.jpg	0	0	0	148.133867991273	148.183849425172	0.0499814338982105
57613	50	428	0	0	window	1818	119	1	stimuli\window\window_08s.jpg	7	-1	1	0	window_08s.jpg	0	0	0	148.233869381016	148.283851790125	0.0499824091093615
57713	50	429	0	0	red_carpet	1298	120	1	stimuli\red_carpet\red_carpet_06s.jpg	5	-1	1	0	red_carpet_06s.jpg	0	0	0	148.333871989744	148.383857324603	0.0499853348592296
57813	50	430	0	0	inhaler	828	121	1	stimuli\inhaler\inhaler_10s.jpg	9	-1	1	0	inhaler_10s.jpg	0	0	0	148.433873135713	148.483858714346	0.0499855786329135
57913	50	431	0	0	spool	1518	122	1	stimuli\spool\spool_08s.jpg	7	-1	1	0	spool_08s.jpg	0	0	0	148.533875744441	148.583860104089	0.0499843596480787
58013	50	432	0	0	saffron	1345	123	1	stimuli\saffron\saffron_09s.jpg	8	-1	1	0	saffron_09s.jpg	0	0	0	148.633886886528	148.68386295659	0.0499760700622573
58113	50	433	0	0	boomerang	168	124	1	stimuli\boomerang\boomerang_03s.jpg	2	-1	1	0	boomerang_03s.jpg	0	0	0	148.733883400098	148.783865565434	0.0499821653356776
58213	50	434	0	0	patty	1126	125	1	stimuli\patty\patty_06s.jpg	5	-1	1	0	patty_06s.jpg	0	0	0	148.833885765052	148.883868905599	0.0499831405468285
58313	50	435	0	0	wax_paper	1796	126	1	stimuli\wax_paper\wax_paper_03s.jpg	2	-1	1	0	wax_paper_03s.jpg	0	0	0	148.933887642343	148.983870051452	0.0499824091093615
58413	50	436	0	0	bracelet1	187	127	1	stimuli\bracelet1\bracelet1_08s.jpg	7	-1	1	0	bracelet1_08s.jpg	0	0	0	149.033889763523	149.083871684968	0.0499819214455783
58513	50	437	0	0	toast	1665	128	1	stimuli\toast\toast_05s.jpg	4	-1	1	0	toast_05s.jpg	0	0	0	149.133892372251	149.183877463336	0.0499850910855457
58613	50	438	0	0	bowl	177	129	1	stimuli\bowl\bowl_06n.jpg	5	-1	1	0	bowl_06n.jpg	0	0	0	149.233899369603	149.283884460572	0.0499850909691304
58713	50	439	0	0	seal	1397	130	1	stimuli\seal\seal_02s.jpg	1	-1	1	0	seal_02s.jpg	0	0	0	149.333898808807	149.383881217916	0.0499824091093615
58813	50	440	0	0	stew	1551	131	1	stimuli\stew\stew_10s.jpg	9	-1	1	0	stew_10s.jpg	0	0	0	149.43390019855	149.483884801972	0.0499846034217626
58913	50	441	0	0	exerciser	561	132	1	stimuli\exerciser\exerciser_06s.jpg	5	-1	1	0	exerciser_06s.jpg	0	0	0	149.533903051051	149.583886191715	0.0499831406632438
59013	50	442	0	0	lifesaver	925	133	1	stimuli\lifesaver\lifesaver_01b.jpg	0	-1	1	0	lifesaver_01b.jpg	0	0	0	149.63390687888	149.683888069005	0.0499811901245266
59113	50	443	0	0	knob	882	134	1	stimuli\knob\knob_06s.jpg	5	-1	1	0	knob_06s.jpg	0	0	0	149.733912169584	149.783893115819	0.0499809462344274
59213	50	444	0	0	hook2	794	135	1	stimuli\hook2\hook2_04s.jpg	3	-1	1	0	hook2_04s.jpg	0	0	0	149.833911608788	149.883897187538	0.0499855787493289
59313	50	445	0	0	electric_chair	553	136	1	stimuli\electric_chair\electric_chair_07s.jpg	6	-1	1	0	electric_chair_07s.jpg	0	0	0	149.933915680391	149.983896870515	0.0499811901245266
59413	50	446	0	0	bank	69	137	1	stimuli\bank\bank_01b.jpg	0	-1	1	0	bank_01b.jpg	0	0	0	150.033918045345	150.083901186008	0.0499831406632438
59513	50	447	0	0	urinal	1748	138	1	stimuli\urinal\urinal_05s.jpg	4	-1	1	0	urinal_05s.jpg	0	0	0	150.133920410299	150.183902331861	0.0499819215619937
59613	50	448	0	0	raccoon	1266	139	1	stimuli\raccoon\raccoon_04n.jpg	3	-1	1	0	raccoon_04n.jpg	0	0	0	150.23392375058	150.283904696815	0.0499809462344274
59713	50	449	0	0	quilt	1264	140	1	stimuli\quilt\quilt_06s.jpg	5	-1	1	0	quilt_06s.jpg	0	0	0	150.333923433558	150.383907549432	0.0499841158743948
59813	50	450	0	0	robot	1318	141	1	stimuli\robot\robot_03n.jpg	2	-1	1	0	robot_03n.jpg	0	0	0	150.433927261387	150.483911377145	0.0499841157579795
59913	50	451	0	0	bow3	176	142	1	stimuli\bow3\bow3_10s.jpg	9	-1	1	0	bow3_10s.jpg	0	0	0	150.533932064427	150.583952995483	0.0500209310557693
60013	50	452	0	0	palette	1100	143	1	stimuli\palette\palette_03s.jpg	2	-1	1	0	palette_03s.jpg	0	0	0	150.633952958859	150.683914888068	0.0499619292095304
60113	50	453	0	0	skull	1458	144	1	stimuli\skull\skull_05s.jpg	4	-1	1	0	skull_05s.jpg	0	0	0	150.733938013436	150.783918715897	0.0499807024607435
60213	50	454	0	0	honey	788	145	1	stimuli\honey\honey_04s.jpg	3	-1	1	0	honey_04s.jpg	0	0	0	150.833939403063	150.88391986175	0.0499804586870596
60313	50	455	0	0	gumball	725	146	1	stimuli\gumball\gumball_06s.jpg	5	-1	1	0	gumball_06s.jpg	0	0	0	150.933940549032	150.983926127665	0.0499855786329135
60413	50	456	0	0	man	963	147	1	stimuli\man\man_07s.jpg	6	-1	1	0	man_07s.jpg	0	0	0	151.033947790158	151.083926298306	0.0499785081483424
60513	50	457	0	0	cork	409	148	1	stimuli\cork\cork_04s.jpg	3	-1	1	0	cork_04s.jpg	0	0	0	151.133948448463	151.183930369909	0.0499819214455783
60613	50	458	0	0	hatbox	758	149	1	stimuli\hatbox\hatbox_06s.jpg	5	-1	1	0	hatbox_06s.jpg	0	0	0	151.233948619105	151.283933222527	0.0499846034217626
60713	50	459	0	0	tape_recorder	1624	150	1	stimuli\tape_recorder\tape_recorder_05s.jpg	4	-1	1	0	tape_recorder_05s.jpg	0	0	0	151.333952446934	151.383935587481	0.0499831405468285
60813	50	460	0	0	station_wagon	1542	151	1	stimuli\station_wagon\station_wagon_09s.jpg	8	-1	1	0	station_wagon_09s.jpg	0	0	0	151.433954811888	151.483934782911	0.0499799710232764
60913	50	461	0	0	notebook	1064	152	1	stimuli\notebook\notebook_07s.jpg	6	-1	1	0	notebook_07s.jpg	0	0	0	151.533958395827	151.583940317389	0.0499819215619937
61013	50	462	0	0	nail	1046	153	1	stimuli\nail\nail_12s.jpg	11	-1	1	0	nail_12s.jpg	0	0	0	151.633960029343	151.683944876655	0.0499848473118618
61113	50	463	0	0	toga	1669	154	1	stimuli\toga\toga_04s.jpg	3	-1	1	0	toga_04s.jpg	0	0	0	151.733962881961	151.783946510172	0.0499836282106116
61213	50	464	0	0	fire_hydrant	592	155	1	stimuli\fire_hydrant\fire_hydrant_04s.jpg	3	-1	1	0	fire_hydrant_04s.jpg	0	0	0	151.833965003141	151.883947168477	0.0499821653356776
61313	50	465	0	0	cougar	423	156	1	stimuli\cougar\cougar_11s.jpg	10	-1	1	0	cougar_11s.jpg	0	0	0	151.933966636658	151.983951483853	0.0499848471954465
61413	50	466	0	0	stiletto	1554	157	1	stimuli\stiletto\stiletto_09s.jpg	8	-1	1	0	stiletto_09s.jpg	0	0	0	152.033974365331	152.083954336471	0.0499799711396918
61513	50	467	0	0	remote_control	1302	158	1	stimuli\remote_control\remote_control_04s.jpg	3	-1	1	0	remote_control_04s.jpg	0	0	0	152.133975998848	152.18395523855	0.0499792397022247
61613	50	468	0	0	elbow	552	159	1	stimuli\elbow\elbow_02s.jpg	1	-1	1	0	elbow_02s.jpg	0	0	0	152.233976901043	152.283958822489	0.0499819214455783
61713	50	469	0	0	shaker	1408	160	1	stimuli\shaker\shaker_03s.jpg	2	-1	1	0	shaker_03s.jpg	0	0	0	152.333979753545	152.383962650318	0.0499828967731446
61813	50	470	0	0	melon	994	161	1	stimuli\melon\melon_03s.jpg	2	-1	1	0	melon_03s.jpg	0	0	0	152.433981874725	152.483962820959	0.0499809462344274
61913	50	471	0	0	mitten	1008	162	1	stimuli\mitten\mitten_09s.jpg	8	-1	1	0	mitten_09s.jpg	0	0	0	152.533983264468	152.583965917351	0.0499826528830454
62013	50	472	0	0	shovel	1432	163	1	stimuli\shovel\shovel_10s.jpg	9	-1	1	0	shovel_10s.jpg	0	0	0	152.63398733607	152.683969013742	0.0499816776718944
62113	50	473	0	0	dolly	501	164	1	stimuli\dolly\dolly_08s.jpg	7	-1	1	0	dolly_08s.jpg	0	0	0	152.733990188572	152.783972841571	0.0499826529994607
62213	50	474	0	0	oil	1072	165	1	stimuli\oil\oil_02s.jpg	1	-1	1	0	oil_02s.jpg	0	0	0	152.833990846877	152.883974962751	0.0499841158743948
62313	50	475	0	0	cucumber	457	166	1	stimuli\cucumber\cucumber_04s.jpg	3	-1	1	0	cucumber_04s.jpg	0	0	0	152.933993699495	152.983978790464	0.0499850909691304
62413	50	476	0	0	spoon	1519	167	1	stimuli\spoon\spoon_02s.jpg	1	-1	1	1	spoon_02s.jpg	0	0	0	153.03399703966	153.083980424097	0.0499833844369277
62513	50	477	0	0	water_filter	1789	168	1	stimuli\water_filter\water_filter_07s.jpg	6	-1	1	0	water_filter_07s.jpg	0	0	0	153.134000136051	153.183982789051	0.0499826529994607
62613	50	478	0	0	wood	1833	169	1	stimuli\wood\wood_06s.jpg	5	-1	1	0	wood_06s.jpg	0	0	0	153.234002744779	153.283985154005	0.0499824092257768
62713	50	479	0	0	bookshelf	167	170	1	stimuli\bookshelf\bookshelf_08s.jpg	7	-1	1	0	bookshelf_08s.jpg	0	0	0	153.334004134522	153.38398849417	0.0499843596480787
62813	50	480	0	0	bowling_ball	179	171	1	stimuli\bowling_ball\bowling_ball_03s.jpg	2	-1	1	0	bowling_ball_03s.jpg	0	0	0	153.434012107085	153.483991834335	0.0499797272495925
62913	50	481	0	0	eggplant	550	172	1	stimuli\eggplant\eggplant_12s.jpg	11	-1	1	0	eggplant_12s.jpg	1	0.492157501867041	1	153.534012033953	153.583992736414	0.0499807024607435
63013	50	482	0	0	tray	1705	173	1	stimuli\tray\tray_03s.jpg	2	-1	1	0	tray_03s.jpg	0	0	0	153.634014642681	153.683995589032	0.0499809463508427
63113	50	483	0	0	stove2	1564	174	1	stimuli\stove2\stove2_09s.jpg	8	-1	1	0	stove2_09s.jpg	0	0	0	153.734016520088	153.784000148182	0.0499836280941963
63213	50	484	0	0	clipper2	357	175	1	stimuli\clipper2\clipper2_11s.jpg	10	-1	1	0	clipper2_11s.jpg	0	0	0	153.834047410754	153.884026162676	0.0499787519220263
63313	50	485	0	0	cantaloupe	263	176	1	stimuli\cantaloupe\cantaloupe_03s.jpg	2	-1	1	0	cantaloupe_03s.jpg	0	0	0	153.93405465188	153.984035598114	0.0499809462344274
63413	50	486	0	0	soccer_ball	1488	177	1	stimuli\soccer_ball\soccer_ball_05s.jpg	4	-1	1	0	soccer_ball_05s.jpg	0	0	0	154.034052628209	154.084039425943	0.0499867977341637
63513	50	487	0	0	chalkboard	303	178	1	stimuli\chalkboard\chalkboard_07s.jpg	6	-1	1	0	chalkboard_07s.jpg	0	0	0	154.134042315069	154.184036427061	0.0499941119924188
63613	50	488	0	0	clarinet	350	179	1	stimuli\clarinet\clarinet_03s.jpg	2	-1	1	0	clarinet_03s.jpg	0	0	0	154.234045167686	154.284041473991	0.0499963063048199
63713	50	489	0	0	guacamole	719	180	1	stimuli\guacamole\guacamole_02s.jpg	1	-1	1	0	guacamole_02s.jpg	0	0	0	154.334061429719	154.38404213218	0.0499807024607435
63813	50	490	0	0	windshield	1820	181	1	stimuli\windshield\windshield_08s.jpg	7	-1	1	0	windshield_08s.jpg	0	0	0	154.434047703282	154.484044984798	0.0499972815159708
63913	50	491	0	0	alpaca	15	182	1	stimuli\alpaca\alpaca_05s.jpg	4	-1	1	0	alpaca_05s.jpg	0	0	0	154.534049824462	154.584050275502	0.0500004510395229
64013	50	492	0	0	modem	1011	183	1	stimuli\modem\modem_05s.jpg	4	-1	1	0	modem_05s.jpg	0	0	0	154.634073644644	154.684050689917	0.0499770452734083
64113	50	493	0	0	bookmark	166	184	1	stimuli\bookmark\bookmark_04s.jpg	3	-1	1	0	bookmark_04s.jpg	0	0	0	154.734070158098	154.784048178699	0.0499780206009746
64213	50	494	0	0	scalpel	1374	185	1	stimuli\scalpel\scalpel_01b.jpg	0	-1	1	0	scalpel_01b.jpg	0	0	0	154.834072766942	154.884049324552	0.0499765576096252
64313	50	495	0	0	blueberry	149	186	1	stimuli\blueberry\blueberry_05s.jpg	4	-1	1	0	blueberry_05s.jpg	0	0	0	154.934076594654	154.984052908607	0.0499763139523566
64413	50	496	0	0	weed	1802	187	1	stimuli\weed\weed_11s.jpg	10	-1	1	0	weed_11s.jpg	0	0	0	155.034078959608	155.084058443084	0.0499794834759086
64513	50	497	0	0	butter	228	188	1	stimuli\butter\butter_10s.jpg	9	-1	1	0	butter_10s.jpg	0	0	0	155.134078398929	155.184060320375	0.0499819214455783
64613	50	498	0	0	guinea_pig	722	189	1	stimuli\guinea_pig\guinea_pig_05s.jpg	4	-1	1	0	guinea_pig_05s.jpg	0	0	0	155.234081982868	155.284061953891	0.0499799710232764
64713	50	499	0	0	rollerblade	1326	190	1	stimuli\rollerblade\rollerblade_02s.jpg	1	-1	1	0	rollerblade_02s.jpg	0	0	0	155.334083372611	155.384064318845	0.0499809462344274
64813	50	500	0	0	chalk	302	191	1	stimuli\chalk\chalk_04s.jpg	3	-1	1	0	chalk_04s.jpg	0	0	0	155.434086712776	155.48407082865	0.0499841158743948
64913	50	501	0	0	bra	185	192	1	stimuli\bra\bra_03s.jpg	2	-1	1	0	bra_03s.jpg	0	0	0	155.534090784378	155.584074412589	0.0499836282106116
65013	50	502	0	0	corkboard	410	193	1	stimuli\corkboard\corkboard_08s.jpg	7	-1	1	0	corkboard_08s.jpg	0	0	0	155.634093393222	155.684070438496	0.0499770452734083
65113	50	503	0	0	faucet	573	194	1	stimuli\faucet\faucet_08s.jpg	7	-1	1	0	faucet_08s.jpg	0	0	0	155.734097220935	155.784074022551	0.0499768016161397
65213	50	504	0	0	handkerchief	747	195	1	stimuli\handkerchief\handkerchief_09s.jpg	8	-1	1	0	handkerchief_09s.jpg	0	0	0	155.834096660255	155.884078581701	0.0499819214455783
65313	50	505	0	0	doghouse	497	196	1	stimuli\doghouse\doghouse_08s.jpg	7	-1	1	0	doghouse_08s.jpg	0	0	0	155.934104876593	155.984084847616	0.0499799710232764
65413	50	506	0	0	bobsled	155	197	1	stimuli\bobsled\bobsled_04s.jpg	3	-1	1	0	bobsled_04s.jpg	0	0	0	156.034109192085	156.08408721257	0.0499780204845592
65513	50	507	0	0	walrus	1779	198	1	stimuli\walrus\walrus_09s.jpg	8	-1	1	0	walrus_09s.jpg	0	0	0	156.134105949313	156.184084457578	0.0499785082647577
65613	50	508	0	0	flask	612	199	1	stimuli\flask\flask_06s.jpg	5	-1	1	0	flask_06s.jpg	0	0	0	156.234115628642	156.284090723493	0.0499750948511064
65713	50	509	0	0	bottle	170	200	1	stimuli\bottle\bottle_10s.jpg	9	-1	1	0	bottle_10s.jpg	0	0	0	156.334110435448	156.384089675033	0.0499792395858094
65813	50	510	0	0	snow	1479	201	1	stimuli\snow\snow_04s.jpg	3	-1	1	0	snow_04s.jpg	0	0	0	156.4341174328	156.484094965737	0.0499775329371914
65913	50	511	0	0	blimp	139	202	1	stimuli\blimp\blimp_04n.jpg	3	-1	1	0	blimp_04n.jpg	0	0	0	156.534120772965	156.584097574465	0.0499768014997244
66013	50	512	0	0	stool	1561	203	1	stimuli\stool\stool_08s.jpg	7	-1	1	0	stool_08s.jpg	0	0	0	156.634118749411	156.684106278466	0.0499875290552154
66113	50	513	0	0	lizard	937	204	1	stimuli\lizard\lizard_09n.jpg	8	-1	1	0	lizard_09n.jpg	0	0	0	156.734122821013	156.784102060599	0.0499792395858094
66213	50	514	0	0	tulip	1726	205	1	stimuli\tulip\tulip_12s.jpg	11	-1	1	0	tulip_12s.jpg	0	0	0	156.834123235429	156.884103450342	0.0499802149133757
66313	50	515	0	0	trident	1712	206	1	stimuli\trident\trident_03s.jpg	2	-1	1	0	trident_03s.jpg	0	0	0	156.934125844273	156.984108009608	0.0499821653356776
66413	50	516	0	0	crayon	435	207	1	stimuli\crayon\crayon_03s.jpg	2	-1	1	0	crayon_03s.jpg	0	0	0	157.034128209227	157.084112568758	0.0499843595316634
66513	50	517	0	0	drain	515	208	1	stimuli\drain\drain_11s.jpg	10	-1	1	0	drain_11s.jpg	0	0	0	157.134131549392	157.184115908924	0.0499843595316634
66613	50	518	0	0	mascara	978	209	1	stimuli\mascara\mascara_11s.jpg	10	-1	1	0	mascara_11s.jpg	0	0	0	157.234137083869	157.28411486058	0.0499777767108753
66713	50	519	0	0	crowbar	447	210	1	stimuli\crowbar\crowbar_08s.jpg	7	-1	1	1	crowbar_08s.jpg	0	0	0	157.334135547862	157.384117713198	0.0499821653356776
66813	50	520	0	0	table	1608	211	1	stimuli\table\table_08s.jpg	7	-1	1	0	table_08s.jpg	0	0	0	157.43413815659	157.484123735223	0.0499855786329135
66913	50	521	0	0	bottle_opener	171	212	1	stimuli\bottle_opener\bottle_opener_05s.jpg	4	-1	1	0	bottle_opener_05s.jpg	0	0	0	157.534141740645	157.584124393528	0.0499826528830454
67013	50	522	0	0	green_beans	712	213	1	stimuli\green_beans\green_beans_06s.jpg	5	-1	1	0	green_beans_06s.jpg	0	0	0	157.634148494108	157.684131634654	0.0499831405468285
67113	50	523	0	0	mustache	1043	214	1	stimuli\mustache\mustache_10s.jpg	9	-1	1	0	mustache_10s.jpg	0	0	0	157.734149152413	157.784133024397	0.0499838719842955
67213	50	524	0	0	jigsaw_puzzle	851	215	1	stimuli\jigsaw_puzzle\jigsaw_puzzle_09s.jpg	8	-1	1	0	jigsaw_puzzle_09s.jpg	0	0	0	157.834154443117	157.884130756953	0.0499763138359413
67313	50	525	0	0	moose	1018	216	1	stimuli\moose\moose_04s.jpg	3	-1	1	0	moose_04s.jpg	0	0	0	157.934160709032	157.984132878133	0.0499721691012383
67413	50	526	0	0	grinder	716	217	1	stimuli\grinder\grinder_12s.jpg	11	-1	1	0	grinder_12s.jpg	0	0	0	158.034158197697	158.084137437399	0.0499792397022247
67513	50	527	0	0	leggings	912	218	1	stimuli\leggings\leggings_01b.jpg	0	-1	1	0	leggings_01b.jpg	0	0	0	158.134161537979	158.184140777565	0.0499792395858094
67613	50	528	0	0	mat	982	219	1	stimuli\mat\mat_10s.jpg	9	-1	1	0	mat_10s.jpg	0	0	0	158.234161220957	158.284139729221	0.0499785082647577
67713	50	529	0	0	gravel	709	220	1	stimuli\gravel\gravel_07n.jpg	6	-1	1	0	gravel_07n.jpg	0	0	0	158.334162366926	158.384168181685	0.0500058147590607
67813	50	530	0	0	hood	791	221	1	stimuli\hood\hood_01b.jpg	0	-1	1	0	hood_01b.jpg	0	0	0	158.43415327277	158.484152748599	0.0499994758283719
67913	50	531	0	0	rain_gauge	1278	222	1	stimuli\rain_gauge\rain_gauge_09s.jpg	8	-1	1	0	rain_gauge_09s.jpg	0	0	0	158.534176605404	158.584152431693	0.0499758262885734
68013	50	532	0	0	flypaper	622	223	1	stimuli\flypaper\flypaper_10s.jpg	9	-1	1	0	flypaper_10s.jpg	0	0	0	158.634172387421	158.684157234733	0.0499848473118618
68113	50	533	0	0	saw	1366	224	1	stimuli\saw\saw_08s.jpg	7	-1	1	0	saw_08s.jpg	0	0	0	158.734174996265	158.784156186273	0.0499811900081113
68213	50	534	0	0	breadbox	195	225	1	stimuli\breadbox\breadbox_05s.jpg	4	-1	1	0	breadbox_05s.jpg	0	0	0	158.834178580204	158.884160501766	0.0499819215619937
68313	50	535	0	0	baby	46	226	1	stimuli\baby\baby_07s.jpg	6	-1	1	0	baby_07s.jpg	0	0	0	158.934185089893	158.98415994097	0.0499748510774225
68413	50	536	0	0	toilet_paper	1671	227	1	stimuli\toilet_paper\toilet_paper_08s.jpg	7	-1	1	0	toilet_paper_08s.jpg	0	0	0	159.034183553886	159.084163768799	0.0499802149133757
68513	50	537	0	0	teacup	1633	228	1	stimuli\teacup\teacup_05s.jpg	4	-1	1	0	teacup_05s.jpg	0	0	0	159.134188356926	159.184163695667	0.0499753387412056
68613	50	538	0	0	fire_pit	593	229	1	stimuli\fire_pit\fire_pit_09s.jpg	8	-1	1	0	fire_pit_09s.jpg	0	0	0	159.234188771457	159.284169961582	0.0499811901245266
68713	50	539	0	0	ladle	887	230	1	stimuli\ladle\ladle_03s.jpg	2	-1	1	0	ladle_03s.jpg	0	0	0	159.334193330724	159.384172082646	0.0499787519220263
68813	50	540	0	0	whale	1804	231	1	stimuli\whale\whale_11s.jpg	10	-1	1	0	whale_11s.jpg	0	0	0	159.43419496424	159.484174935264	0.0499799710232764
68913	50	541	0	0	wine	1823	232	1	stimuli\wine\wine_06s.jpg	5	-1	1	0	wine_06s.jpg	0	0	0	159.534194891108	159.584178763092	0.0499838719842955
69013	50	542	0	0	cheesecake	314	233	1	stimuli\cheesecake\cheesecake_04s.jpg	3	-1	1	0	cheesecake_04s.jpg	0	0	0	159.634200425586	159.684177958523	0.0499775329371914
69113	50	543	0	0	meat_grinder	988	234	1	stimuli\meat_grinder\meat_grinder_12s.jpg	11	-1	1	0	meat_grinder_12s.jpg	0	0	0	159.73419986479	159.784187881509	0.0499880167189986
69213	50	544	0	0	wineglass	1826	235	1	stimuli\wineglass\wineglass_10s.jpg	9	-1	1	0	wineglass_10s.jpg	0	0	0	159.83420759358	159.884185857954	0.0499782643746585
69314	50	545	0	0	tattoo	1629	236	1	stimuli\tattoo\tattoo_09s.jpg	8	-1	1	0	tattoo_09s.jpg	0	0	0	159.934208251769	159.984193586628	0.0499853348592296
69414	50	546	0	0	box	181	237	1	stimuli\box\box_03s.jpg	2	-1	1	0	box_03s.jpg	0	0	0	160.034215005348	160.084188637324	0.0499736319761723
69514	50	547	0	0	roller	1324	238	1	stimuli\roller\roller_03s.jpg	2	-1	1	0	roller_03s.jpg	0	0	0	160.134211762692	160.184194415691	0.0499826529994607
69614	50	548	0	0	telescope	1640	239	1	stimuli\telescope\telescope_11n.jpg	10	-1	1	0	telescope_11n.jpg	0	0	0	160.234216809506	160.284203119692	0.0499863101867959
69714	50	549	0	0	sandpaper	1356	240	1	stimuli\sandpaper\sandpaper_06s.jpg	5	-1	1	0	sandpaper_06s.jpg	0	0	0	160.334221612546	160.384224257898	0.050002645351924
69814	50	550	0	0	panties	1107	241	1	stimuli\panties\panties_03s.jpg	2	-1	1	0	panties_03s.jpg	0	0	0	160.434218857554	160.484202241874	0.0499833843205124
69914	50	551	0	0	road_sign	1315	242	1	stimuli\road_sign\road_sign_10s.jpg	9	-1	1	0	road_sign_10s.jpg	0	0	0	160.534223660594	160.584226549719	0.0500028891256079
70014	50	552	0	0	fingerprint	589	243	1	stimuli\fingerprint\fingerprint_06s.jpg	5	-1	1	0	fingerprint_06s.jpg	0	0	0	160.634231389384	160.684212823282	0.0499814338982105
70114	50	553	0	0	dumpster	533	244	1	stimuli\dumpster\dumpster_09s.jpg	8	-1	1	0	dumpster_09s.jpg	0	0	0	160.734233998111	160.784219576744	0.0499855786329135
70214	50	554	0	0	dishwasher	491	245	1	stimuli\dishwasher\dishwasher_03s.jpg	2	-1	1	0	dishwasher_03s.jpg	0	0	0	160.834233681206	160.884211457917	0.0499777767108753
70314	50	555	0	0	go-kart	682	246	1	stimuli\go-kart\go-kart_06s.jpg	5	-1	1	0	go-kart_06s.jpg	0	0	0	160.934235070832	160.984215041972	0.0499799711396918
70414	50	556	0	0	towel	1692	247	1	stimuli\towel\towel_03s.jpg	2	-1	1	0	towel_03s.jpg	0	0	0	161.034237435786	161.084215456387	0.0499780206009746
70514	50	557	0	0	alligator	12	248	1	stimuli\alligator\alligator_06s.jpg	5	-1	1	0	alligator_06s.jpg	0	0	0	161.134239556966	161.184220503201	0.0499809462344274
70614	50	558	0	0	needle	1055	249	1	stimuli\needle\needle_11s.jpg	10	-1	1	0	needle_11s.jpg	0	0	0	161.234242897131	161.284223355819	0.0499804586870596
70714	50	559	0	0	water_fountain	1790	250	1	stimuli\water_fountain\water_fountain_05s.jpg	4	-1	1	0	water_fountain_05s.jpg	0	0	0	161.334245749749	161.384228402632	0.0499826528830454
70814	50	560	0	0	stockings	1559	251	1	stimuli\stockings\stockings_04s.jpg	3	-1	1	0	stockings_04s.jpg	0	0	0	161.434250065126	161.484228817164	0.0499787520384416
70914	50	561	0	0	loincloth	944	252	1	stimuli\loincloth\loincloth_04s.jpg	3	-1	1	0	loincloth_04s.jpg	0	0	0	161.534254380618	161.584231669782	0.0499772891635075
71014	50	562	0	0	pole	1213	253	1	stimuli\pole\pole_05s.jpg	4	-1	1	0	pole_05s.jpg	0	0	0	161.634252600721	161.684234034736	0.0499814340146258
71114	50	563	0	0	waffle	1770	254	1	stimuli\waffle\waffle_04s.jpg	3	-1	1	0	waffle_04s.jpg	0	0	0	161.734258135199	161.784235424362	0.0499772891635075
71214	50	564	0	0	blinder	141	255	1	stimuli\blinder\blinder_12s.jpg	11	-1	1	0	blinder_12s.jpg	0	0	0	161.834257574519	161.884237545542	0.0499799710232764
71314	50	565	0	0	tadpole	1614	256	1	stimuli\tadpole\tadpole_08s.jpg	7	-1	1	0	tadpole_08s.jpg	0	0	0	161.934261646122	161.984245030442	0.0499833843205124
71414	50	566	0	0	mouth	1031	257	1	stimuli\mouth\mouth_03s.jpg	2	-1	1	0	mouth_03s.jpg	0	0	0	162.034263523412	162.084247639286	0.0499841158743948
71514	50	567	0	0	machete	953	258	1	stimuli\machete\machete_09s.jpg	8	-1	1	0	machete_09s.jpg	0	0	0	162.134266619803	162.184249272803	0.0499826529994607
71614	50	568	0	0	dagger	469	259	1	stimuli\dagger\dagger_01b.jpg	0	-1	1	0	dagger_01b.jpg	0	0	0	162.234273129492	162.284253832069	0.0499807025771588
71714	50	569	0	0	weather_vane	1798	260	1	stimuli\weather_vane\weather_vane_07s.jpg	6	-1	1	0	weather_vane_07s.jpg	0	0	0	162.334275738336	162.384252539836	0.0499768014997244
71814	50	570	0	0	punch2	1255	261	1	stimuli\punch2\punch2_11s.jpg	10	-1	1	0	punch2_11s.jpg	0	0	0	162.434276152751	162.484258074313	0.0499819215619937
71914	50	571	0	0	kneepad	878	262	1	stimuli\kneepad\kneepad_08s.jpg	7	-1	1	0	kneepad_08s.jpg	0	0	0	162.534282418666	162.584255319205	0.0499729005387053
72014	50	572	0	0	cherry	316	263	1	stimuli\cherry\cherry_09s.jpg	8	-1	1	0	cherry_09s.jpg	0	0	0	162.634279663675	162.684264023206	0.0499843595316634
72114	50	573	0	0	insole	831	264	1	stimuli\insole\insole_06s.jpg	5	-1	1	0	insole_06s.jpg	0	0	0	162.734283491387	162.784263950074	0.0499804586870596
72214	50	574	0	0	car	267	265	1	stimuli\car\car_04s.jpg	3	-1	1	0	car_04s.jpg	0	0	0	162.834290488739	162.884264852153	0.0499743634136394
72314	50	575	0	0	payphone	1127	266	1	stimuli\payphone\payphone_09s.jpg	8	-1	1	0	payphone_09s.jpg	0	0	0	162.934291147045	162.984270874294	0.0499797272495925
72414	50	576	0	0	branch	192	267	1	stimuli\branch\branch_09s.jpg	8	-1	1	0	branch_09s.jpg	0	0	0	163.034293024335	163.084270313499	0.0499772891635075
72514	50	577	0	0	arm	36	268	1	stimuli\arm\arm_10s.jpg	9	-1	1	0	arm_10s.jpg	0	0	0	163.134292707429	163.184277798515	0.0499850910855457
72614	50	578	0	0	trampoline	1701	269	1	stimuli\trampoline\trampoline_10s.jpg	9	-1	1	0	trampoline_10s.jpg	0	0	0	163.234293853282	163.284276506281	0.0499826529994607
72714	50	579	0	0	rattlesnake	1288	270	1	stimuli\rattlesnake\rattlesnake_05s.jpg	4	-1	1	0	rattlesnake_05s.jpg	0	0	0	163.334297193564	163.384277408361	0.0499802147969604
72814	50	580	0	0	wind_chimes	1817	271	1	stimuli\wind_chimes\wind_chimes_02s.jpg	1	-1	1	0	wind_chimes_02s.jpg	0	0	0	163.434301996604	163.484282699064	0.0499807024607435
72914	50	581	0	0	container	398	272	1	stimuli\container\container_06s.jpg	5	-1	1	0	container_06s.jpg	0	0	0	163.534305580542	163.584287745878	0.0499821653356776
73014	50	582	0	0	jacket	836	273	1	stimuli\jacket\jacket_05s.jpg	4	-1	1	0	jacket_05s.jpg	0	0	0	163.634307701723	163.684286697535	0.0499789958121255
73114	50	583	0	0	gramophone	699	274	1	stimuli\gramophone\gramophone_03s.jpg	2	-1	1	0	gramophone_03s.jpg	0	0	0	163.73431884381	163.784293207224	0.0499743634136394
73214	50	584	0	0	ice	816	275	1	stimuli\ice\ice_02s.jpg	1	-1	1	0	ice_02s.jpg	0	0	0	163.834310724982	163.884292402654	0.0499816776718944
73314	50	585	0	0	detonator	482	276	1	stimuli\detonator\detonator_04s.jpg	3	-1	1	0	detonator_04s.jpg	0	0	0	163.93431625946	163.984295011382	0.0499787519220263
73414	50	586	0	0	roof_rack	1329	277	1	stimuli\roof_rack\roof_rack_08s.jpg	7	-1	1	0	roof_rack_08s.jpg	0	0	0	164.034318624414	164.084301521187	0.0499828967731446
73514	50	587	0	0	ready_meal	1292	278	1	stimuli\ready_meal\ready_meal_07s.jpg	6	-1	1	0	ready_meal_07s.jpg	0	0	0	164.134323671227	164.184300960391	0.0499772891635075
73614	50	588	0	0	firecracker	594	279	1	stimuli\firecracker\firecracker_04s.jpg	3	-1	1	0	firecracker_04s.jpg	0	0	0	164.23432798672	164.284303325345	0.0499753386247903
73714	50	589	0	0	tree	1708	280	1	stimuli\tree\tree_05s.jpg	4	-1	1	0	tree_05s.jpg	0	0	0	164.334324500174	164.384305202635	0.0499807024607435
73814	50	590	0	0	hummus	812	281	1	stimuli\hummus\hummus_03s.jpg	2	-1	1	0	hummus_03s.jpg	0	0	0	164.434329547104	164.484309761901	0.0499802147969604
73914	50	591	0	0	sewing_machine	1407	282	1	stimuli\sewing_machine\sewing_machine_08s.jpg	7	-1	1	0	sewing_machine_08s.jpg	0	0	0	164.534332643379	164.584311883082	0.0499792397022247
74014	50	592	0	0	riser	1314	283	1	stimuli\riser\riser_09s.jpg	8	-1	1	0	riser_09s.jpg	0	0	0	164.634335739771	164.684312785161	0.0499770453898236
74114	50	593	0	0	tape	1622	284	1	stimuli\tape\tape_02s.jpg	1	-1	1	0	tape_02s.jpg	1	0	0	164.734342249576	164.7843163691	0.0499741195235401
74214	50	594	0	0	sand	1351	285	1	stimuli\sand\sand_02s.jpg	1	-1	1	0	sand_02s.jpg	0	0	0	164.834338519257	164.884317758842	0.0499792395858094
74314	50	595	0	0	grasshopper	706	286	1	stimuli\grasshopper\grasshopper_09s.jpg	8	-1	1	0	grasshopper_09s.jpg	0	0	0	164.934344541281	164.984324024757	0.0499794834759086
74414	50	596	0	0	coffee_filter	379	287	1	stimuli\coffee_filter\coffee_filter_06s.jpg	5	-1	1	0	coffee_filter_06s.jpg	0	0	0	165.034348613	165.084326633485	0.0499780204845592
74514	50	597	0	0	pothole	1233	288	1	stimuli\pothole\pothole_07s.jpg	6	-1	1	0	pothole_07s.jpg	0	0	0	165.134348539752	165.184328510892	0.0499799711396918
74614	50	598	0	0	tortilla	1687	289	1	stimuli\tortilla\tortilla_04s.jpg	3	-1	1	0	tortilla_04s.jpg	0	0	0	165.234358462854	165.284329412971	0.0499709501164034
74714	50	599	0	0	quiche	1262	290	1	stimuli\quiche\quiche_06s.jpg	5	-1	1	0	quiche_06s.jpg	0	0	0	165.334350344026	165.384335678886	0.0499853348592296
74814	50	600	0	0	stirrup	1558	291	1	stimuli\stirrup\stirrup_09s.jpg	8	-1	1	0	stirrup_09s.jpg	0	0	0	165.434354903293	165.484334630426	0.0499797271331772
74914	50	601	0	0	pinball	1178	292	1	stimuli\pinball\pinball_11s.jpg	10	-1	1	0	pinball_11s.jpg	0	0	0	165.534363363404	165.584335532621	0.0499721692176536
75014	50	602	0	0	iceskate	823	293	1	stimuli\iceskate\iceskate_05s.jpg	4	-1	1	0	iceskate_05s.jpg	0	0	0	165.634360608412	165.68433911656	0.0499785081483424
75114	50	603	0	0	washboard	1782	294	1	stimuli\washboard\washboard_03s.jpg	2	-1	1	0	washboard_03s.jpg	0	0	0	165.734364192351	165.784345382475	0.0499811901245266
75214	50	604	0	0	typewriter	1741	295	1	stimuli\typewriter\typewriter_03s.jpg	2	-1	1	0	typewriter_03s.jpg	0	0	0	165.834366557305	165.884344577906	0.0499780206009746
75314	50	605	0	0	beaker	101	296	1	stimuli\beaker\beaker_03s.jpg	2	-1	1	0	beaker_03s.jpg	0	0	0	165.934367947048	165.98434986861	0.0499819215619937
75414	50	606	0	0	retainer	1303	297	1	stimuli\retainer\retainer_11s.jpg	10	-1	1	0	retainer_11s.jpg	0	0	0	166.034371774876	166.084350283025	0.0499785081483424
75514	50	607	0	0	popsicle	1225	298	1	stimuli\popsicle\popsicle_11s.jpg	10	-1	1	0	popsicle_11s.jpg	0	0	0	166.134372433182	166.184357768041	0.0499853348592296
75614	50	608	0	0	makeup	961	299	1	stimuli\makeup\makeup_01b.jpg	0	-1	1	0	makeup_01b.jpg	0	0	0	166.234376992332	166.284356232034	0.0499792397022247
75714	50	609	0	0	shower_cap	1434	300	1	stimuli\shower_cap\shower_cap_05s.jpg	4	-1	1	0	shower_cap_05s.jpg	0	0	0	166.334380332613	166.384359572199	0.0499792395858094
75814	50	610	0	0	fan	571	301	1	stimuli\fan\fan_04s.jpg	3	-1	1	0	fan_04s.jpg	0	0	0	166.434382453677	166.484362668591	0.0499802149133757
75914	50	611	0	0	wine_cooler	1825	302	1	stimuli\wine_cooler\wine_cooler_05s.jpg	4	-1	1	0	wine_cooler_05s.jpg	0	0	0	166.534384087194	166.584364545881	0.0499804586870596
76014	50	612	0	0	paddle	1094	303	1	stimuli\paddle\paddle_04s.jpg	3	-1	1	0	paddle_04s.jpg	0	0	0	166.63439157221	166.684371787007	0.0499802147969604
76114	50	613	0	0	leech	909	304	1	stimuli\leech\leech_08s.jpg	7	-1	1	0	leech_08s.jpg	0	0	0	166.734398081899	166.78437585861	0.0499777767108753
76214	50	614	0	0	urn	1749	305	1	stimuli\urn\urn_11s.jpg	10	-1	1	0	urn_11s.jpg	0	0	0	166.834390450618	166.884373591281	0.0499831406632438
76314	50	615	0	0	robe	1317	306	1	stimuli\robe\robe_04s.jpg	3	-1	1	0	robe_04s.jpg	0	0	0	166.9343937909	166.984376200009	0.0499824091093615
76414	50	616	0	0	shell2	1418	307	1	stimuli\shell2\shell2_12s.jpg	11	-1	1	0	shell2_12s.jpg	0	0	0	167.03439835005	167.084378564963	0.0499802149133757
76514	50	617	0	0	cable	234	308	1	stimuli\cable\cable_11s.jpg	10	-1	1	0	cable_11s.jpg	0	0	0	167.13440047123	167.184382880339	0.0499824091093615
87564	50	618	0	0	dip	487	0	2	stimuli\dip\dip_03s.jpg	2	-1	2	0	dip_03s.jpg	1	0	0	178.184688373702	178.234653716208	0.0499653425067663
87664	50	619	0	0	meat	987	1	2	stimuli\meat\meat_04s.jpg	3	-1	2	0	meat_04s.jpg	0	0	0	178.284674403374	178.33465656871	0.0499821653356776
87764	50	620	0	0	muff	1034	2	2	stimuli\muff\muff_05s.jpg	4	-1	2	0	muff_05s.jpg	0	0	0	178.384677987429	178.434655520367	0.0499775329371914
87864	50	621	0	0	shredder	1437	3	2	stimuli\shredder\shredder_02s.jpg	1	-1	2	0	shredder_02s.jpg	0	0	0	178.484679377056	178.53465788532	0.0499785082647577
87964	50	622	0	0	tweezers	1739	4	2	stimuli\tweezers\tweezers_07s.jpg	6	-1	2	0	tweezers_07s.jpg	0	0	0	178.584682961111	178.634660250274	0.0499772891635075
88064	50	623	0	0	smoke_alarm	1473	5	2	stimuli\smoke_alarm\smoke_alarm_09s.jpg	8	-1	2	0	smoke_alarm_09s.jpg	0	0	0	178.684684106964	178.734664321877	0.0499802149133757
88164	50	624	0	0	rocket	1320	6	2	stimuli\rocket\rocket_02s.jpg	1	-1	2	0	rocket_02s.jpg	0	0	0	178.784688178683	178.834664248745	0.0499760700622573
88264	50	625	0	0	teddy_bear	1635	7	2	stimuli\teddy_bear\teddy_bear_06s.jpg	5	-1	2	0	teddy_bear_06s.jpg	0	0	0	178.884690299747	178.934669539332	0.0499792395858094
88364	50	626	0	0	beanie	104	8	2	stimuli\beanie\beanie_05s.jpg	4	-1	2	0	beanie_05s.jpg	0	0	0	178.984691445716	179.034671416739	0.0499799710232764
88464	50	627	0	0	belt	118	9	2	stimuli\belt\belt_04s.jpg	3	-1	2	0	belt_04s.jpg	0	0	0	179.084696004866	179.134671343607	0.0499753387412056
88564	50	628	0	0	tinsel	1662	10	2	stimuli\tinsel\tinsel_03s.jpg	2	-1	2	0	tinsel_03s.jpg	0	0	0	179.184698126046	179.234680291382	0.0499821653356776
88664	50	629	0	0	nut	1066	11	2	stimuli\nut\nut_05s.jpg	4	-1	2	0	nut_05s.jpg	0	0	0	179.284701953875	179.33467753639	0.0499755825148895
88764	50	630	0	0	banana_peel	64	12	2	stimuli\banana_peel\banana_peel_05s.jpg	4	-1	2	0	banana_peel_05s.jpg	0	0	0	179.384703831165	179.434679169906	0.0499753387412056
88864	50	631	0	0	radish	1274	13	2	stimuli\radish\radish_11s.jpg	10	-1	2	1	radish_11s.jpg	0	0	0	179.484711559955	179.534683241509	0.0499716815538704
88964	50	632	0	0	handbrake	745	14	2	stimuli\handbrake\handbrake_10s.jpg	9	-1	2	0	handbrake_10s.jpg	0	0	0	179.584710267722	179.634685118799	0.0499748510774225
89064	50	633	0	0	loveseat	947	15	2	stimuli\loveseat\loveseat_05s.jpg	4	-1	2	0	loveseat_05s.jpg	0	0	0	179.684712145128	179.734686996206	0.0499748510774225
89164	50	634	0	0	golf_cart	689	16	2	stimuli\golf_cart\golf_cart_09s.jpg	8	-1	2	0	golf_cart_09s.jpg	0	0	0	179.784716216731	179.834690092481	0.0499738757498562
89264	50	635	0	0	doorstop	512	17	2	stimuli\doorstop\doorstop_12s.jpg	11	-1	2	0	doorstop_12s.jpg	0	0	0	179.88471419306	179.9346941642	0.0499799711396918
89364	50	636	0	0	spatula	1508	18	2	stimuli\spatula\spatula_09s.jpg	8	-1	2	0	spatula_09s.jpg	1	0.492144579999149	1	179.984719971428	180.034697016701	0.0499770452734083
89464	50	637	0	0	hawk	760	19	2	stimuli\hawk\hawk_05s.jpg	4	-1	2	0	hawk_05s.jpg	0	0	0	180.084723555367	180.134697187343	0.0499736319761723
89564	50	638	0	0	curtain	465	20	2	stimuli\curtain\curtain_07s.jpg	6	-1	2	0	curtain_07s.jpg	0	0	0	180.184722994571	180.234701502835	0.0499785082647577
89664	50	639	0	0	block	143	21	2	stimuli\block\block_01b.jpg	0	-1	2	0	block_01b.jpg	0	0	0	180.284732186235	180.334706305875	0.0499741196399555
89764	50	640	0	0	piecrust	1169	22	2	stimuli\piecrust\piecrust_04s.jpg	3	-1	2	0	piecrust_04s.jpg	0	0	0	180.384732113103	180.434710377478	0.0499782643746585
89864	50	641	0	0	costume	419	23	2	stimuli\costume\costume_10s.jpg	9	-1	2	0	costume_10s.jpg	0	0	0	180.48473374662	180.534709816682	0.0499760700622573
89964	50	642	0	0	backpack	49	24	2	stimuli\backpack\backpack_08s.jpg	7	-1	2	0	backpack_08s.jpg	0	0	0	180.584736355348	180.634712425526	0.0499760701786727
90064	50	643	0	0	amplifier	20	25	2	stimuli\amplifier\amplifier_07s.jpg	6	-1	2	0	amplifier_07s.jpg	0	0	0	180.684739451739	180.734716009465	0.0499765577260405
90164	50	644	0	0	quesadilla	1261	26	2	stimuli\quesadilla\quesadilla_07s.jpg	6	-1	2	0	quesadilla_07s.jpg	0	0	0	180.784741572919	180.834718130645	0.0499765577260405
90264	50	645	0	0	paperweight	1117	27	2	stimuli\paperweight\paperweight_06s.jpg	5	-1	2	0	paperweight_06s.jpg	0	0	0	180.884743450209	180.934722689912	0.0499792397022247
90364	50	646	0	0	videocassette	1761	28	2	stimuli\videocassette\videocassette_12n.jpg	11	-1	2	0	videocassette_12n.jpg	0	0	0	180.984746790375	181.034723835764	0.0499770453898236
90464	50	647	0	0	apple_tree	31	29	2	stimuli\apple_tree\apple_tree_04s.jpg	3	-1	2	0	apple_tree_04s.jpg	0	0	0	181.084747936344	181.134725225507	0.0499772891635075
90564	50	648	0	0	boulder	172	30	2	stimuli\boulder\boulder_09s.jpg	8	-1	2	0	boulder_09s.jpg	0	0	0	181.184751276509	181.234728078009	0.0499768014997244
90664	50	649	0	0	viewfinder	1763	31	2	stimuli\viewfinder\viewfinder_01s.jpg	0	-1	2	0	viewfinder_01s.jpg	0	0	0	181.2847543729	181.334730930626	0.0499765577260405
90764	50	650	0	0	cannon	260	32	2	stimuli\cannon\cannon_12n.jpg	11	-1	2	0	cannon_12n.jpg	0	0	0	181.384758444503	181.434734270792	0.0499758262885734
90864	50	651	0	0	record_player	1296	33	2	stimuli\record_player\record_player_10s.jpg	9	-1	2	0	record_player_10s.jpg	0	0	0	181.484758859035	181.534740049043	0.0499811900081113
90964	50	652	0	0	snowplow	1484	34	2	stimuli\snowplow\snowplow_08s.jpg	7	-1	2	0	snowplow_08s.jpg	0	0	0	181.584777803044	181.634741438786	0.049963635741733
91064	50	653	0	0	shoulder	1431	35	2	stimuli\shoulder\shoulder_02s.jpg	1	-1	2	0	shoulder_02s.jpg	0	0	0	181.68476407649	181.734741365653	0.0499772891635075
91164	50	654	0	0	chicken2	323	36	2	stimuli\chicken2\chicken2_07s.jpg	6	-1	2	0	chicken2_07s.jpg	0	0	0	181.784766929108	181.834746900131	0.0499799710232764
91264	50	655	0	0	mistletoe	1007	37	2	stimuli\mistletoe\mistletoe_08s.jpg	7	-1	2	0	mistletoe_08s.jpg	0	0	0	181.884769050288	181.9347480461	0.0499789958121255
91364	50	656	0	0	hula_hoop	810	38	2	stimuli\hula_hoop\hula_hoop_12s.jpg	11	-1	2	0	hula_hoop_12s.jpg	0	0	0	181.984772390453	182.034750167164	0.0499777767108753
