onset	duration	eventnumber	blocksequencenumber	isteststim	object	objectnumber	presentationnumber	sequencenumber	stim	stimnumber	teststimnumber	withinsequencenumber	istarget	stimname	response	rt	correct	time_stimon	time_stimoff	stimdur
98348	50	0	0	0	light_switch	926	0	0	stimuli\light_switch\light_switch_09s.jpg	8	-1	0	0	light_switch_09s.jpg	0	0	0	46.7175380244153	46.7674998926232	0.0499618682079017
98448	50	1	0	0	walker1	1773	1	0	stimuli\walker1\walker1_12s.jpg	11	-1	0	0	walker1_12s.jpg	0	0	0	46.817526614177	46.8675184709718	0.0499918567948043
98548	50	2	0	0	penholder	1146	2	0	stimuli\penholder\penholder_01b.jpg	0	-1	0	0	penholder_01b.jpg	0	0	0	46.917541535222	46.9674973082729	0.0499557730508968
98648	50	3	0	0	vegetable	1754	3	0	stimuli\vegetable\vegetable_02s.jpg	1	-1	0	0	vegetable_02s.jpg	0	0	0	47.0175513364375	47.0675229569897	0.0499716205522418
98748	50	4	0	0	swing_set	1599	4	0	stimuli\swing_set\swing_set_02s.jpg	1	-1	0	0	swing_set_02s.jpg	0	0	0	47.1175494346535	47.1675264191581	0.0499769845046103
98848	50	5	0	0	machete	953	5	0	stimuli\machete\machete_09s.jpg	8	-1	0	0	machete_09s.jpg	0	0	0	47.2175531405956	47.2679421625799	0.0503890219843015
98948	50	6	0	0	lifesaver	925	6	0	stimuli\lifesaver\lifesaver_04s.jpg	3	-1	0	0	lifesaver_04s.jpg	0	0	0	47.317553433124	47.3675326118246	0.0499791787005961
99048	50	7	0	0	mushroom	1040	7	0	stimuli\mushroom\mushroom_03n.jpg	2	-1	0	0	mushroom_03n.jpg	0	0	0	47.417557139066	47.4675243711099	0.0499672320438549
99148	50	8	0	0	valve	1751	8	0	stimuli\valve\valve_04s.jpg	3	-1	0	0	valve_04s.jpg	0	0	0	47.5175276868977	47.5675066218246	0.0499789349269122
99248	50	9	0	0	plug	1202	9	0	stimuli\plug\plug_02s.jpg	1	-1	0	0	plug_02s.jpg	0	0	0	47.617529442301	47.6675098401029	0.0499803978018463
99348	50	10	0	0	column	388	10	0	stimuli\column\column_11s.jpg	10	-1	0	0	column_11s.jpg	0	0	0	47.717530710157	47.7675137898186	0.0499830796616152
99448	50	11	0	0	coffee_bean	378	11	0	stimuli\coffee_bean\coffee_bean_05s.jpg	4	-1	0	0	coffee_bean_05s.jpg	0	0	0	47.8175363665214	47.8675172518706	0.0499808853492141
99548	50	12	0	0	thermometer	1646	12	0	stimuli\thermometer\thermometer_01b.jpg	0	-1	0	0	thermometer_01b.jpg	0	0	0	47.9175698171603	47.9675489958609	0.0499791787005961
99648	50	13	0	0	nail_file	1048	13	0	stimuli\nail_file\nail_file_11s.jpg	10	-1	0	0	nail_file_11s.jpg	0	0	0	48.0175679154927	48.0675500198267	0.0499821043340489
99748	50	14	0	0	marijuana	974	14	0	stimuli\marijuana\marijuana_04s.jpg	3	-1	0	0	marijuana_04s.jpg	0	0	0	48.1175725965295	48.1675503123552	0.049977715825662
99848	50	15	0	0	ravioli	1289	15	0	stimuli\ravioli\ravioli_06s.jpg	5	-1	0	0	ravioli_06s.jpg	0	0	0	48.217573132948	48.2675364640309	0.0499633310828358
99948	50	16	0	0	puppet	1257	16	0	stimuli\puppet\puppet_08s.jpg	7	-1	0	0	puppet_08s.jpg	0	0	0	48.317576595	48.3675543108257	0.049977715825662
100048	50	17	0	0	tape_recorder	1624	17	0	stimuli\tape_recorder\tape_recorder_08s.jpg	7	-1	0	0	tape_recorder_08s.jpg	0	0	0	48.4175805447157	48.4675355863292	0.0499550416134298
100148	50	18	0	0	coffee_table	381	18	0	stimuli\coffee_table\coffee_table_08s.jpg	7	-1	0	0	coffee_table_08s.jpg	0	0	0	48.5175527993124	48.5675339284353	0.049981129122898
100248	50	19	0	0	branch	192	19	0	stimuli\branch\branch_08s.jpg	7	-1	0	0	branch_08s.jpg	0	0	0	48.6175582117867	48.6675425105495	0.0499842987628654
100348	50	20	0	0	lemon	914	20	0	stimuli\lemon\lemon_02s.jpg	1	-1	0	0	lemon_02s.jpg	0	0	0	48.717563868151	48.7675357325934	0.049971864442341
100448	50	21	0	0	fly	621	21	0	stimuli\fly\fly_04s.jpg	3	-1	0	0	fly_04s.jpg	0	0	0	48.8175622102572	48.8675413889578	0.0499791787005961
100548	50	22	0	0	cd_player	290	22	0	stimuli\cd_player\cd_player_02s.jpg	1	-1	0	0	cd_player_02s.jpg	0	0	0	48.9175985866459	48.9675733767217	0.0499747900757939
100648	50	23	0	0	bra	185	23	0	stimuli\bra\bra_04s.jpg	3	-1	0	0	bra_04s.jpg	0	0	0	49.0175779116107	49.0675719627179	0.0499940511072055
100748	50	24	0	0	pan	1103	24	0	stimuli\pan\pan_09s.jpg	8	-1	0	0	pan_09s.jpg	0	0	0	49.1175967337331	49.1675788380671	0.0499821043340489
100848	50	25	0	0	tie	1658	25	0	stimuli\tie\tie_10s.jpg	9	-1	0	0	tie_10s.jpg	0	0	0	49.2176009272225	49.2675786430482	0.049977715825662
100948	50	26	0	0	wine	1823	26	0	stimuli\wine\wine_12s.jpg	11	-1	0	0	wine_12s.jpg	0	0	0	49.3175995131023	49.3675691832323	0.0499696701299399
101048	50	27	0	0	shield	1420	27	0	stimuli\shield\shield_05s.jpg	4	-1	0	0	shield_05s.jpg	0	0	0	49.4175800571684	49.4675604548538	0.0499803976854309
101148	50	28	0	0	reel	1299	28	0	stimuli\reel\reel_07s.jpg	6	-1	0	1	reel_07s.jpg	0	0	0	49.5175803496968	49.5675629416946	0.0499825919978321
101248	50	29	0	0	bassinet	85	29	0	stimuli\bassinet\bassinet_11s.jpg	10	-1	0	0	bassinet_11s.jpg	0	0	0	49.6175842994126	49.6675949294586	0.0500106300460175
101348	50	30	0	0	pomegranate	1219	30	0	stimuli\pomegranate\pomegranate_10n.jpg	9	-1	0	0	pomegranate_10n.jpg	0	0	0	49.7175911748782	49.7675649897428	0.0499738148646429
101448	50	31	0	0	hummingbird	811	31	0	stimuli\hummingbird\hummingbird_05s.jpg	4	-1	0	0	hummingbird_05s.jpg	0	0	0	49.8176124349702	49.8675930765457	0.0499806415755302
101548	50	32	0	0	lightbulb	927	32	0	stimuli\lightbulb\lightbulb_02s.jpg	1	-1	0	0	lightbulb_02s.jpg	1	0.392184403608553	1	49.9176197979832	49.9675802034326	0.049960405449383
101648	50	33	0	0	rudder	1339	33	0	stimuli\rudder\rudder_04s.jpg	3	-1	0	0	rudder_04s.jpg	0	0	0	50.0176027801353	50.0675987816649	0.0499960015295073
101748	50	34	0	0	spider	1513	34	0	stimuli\spider\spider_09n.jpg	8	-1	0	0	spider_09n.jpg	0	0	0	50.1176230651326	50.167604925693	0.049981860560365
101848	50	35	0	0	quad	1260	35	0	stimuli\quad\quad_06s.jpg	5	-1	0	0	quad_06s.jpg	0	0	0	50.2176282338332	50.2676049744477	0.0499767406145111
101948	50	36	0	0	root	1331	36	0	stimuli\root\root_01b.jpg	0	-1	0	0	root_01b.jpg	0	0	0	50.3176046330482	50.3675857622875	0.0499811292393133
102048	50	37	0	0	chicken1	322	37	0	stimuli\chicken1\chicken1_05s.jpg	4	-1	0	0	chicken1_05s.jpg	0	0	0	50.4176322323037	50.4676079977071	0.0499757654033601
102148	50	38	0	0	rag	1276	38	0	stimuli\rag\rag_01b.jpg	0	-1	0	0	rag_01b.jpg	0	0	0	50.5176293553086	50.567599756876	0.049970401567407
102248	50	39	0	0	apple	30	39	0	stimuli\apple\apple_03s.jpg	2	-1	0	0	apple_03s.jpg	0	0	0	50.6176198956091	50.6676168723498	0.0499969767406583
102348	50	40	0	0	trapdoor	1703	40	0	stimuli\trapdoor\trapdoor_02s.jpg	1	-1	0	0	trapdoor_02s.jpg	0	0	0	50.7176379861776	50.7676181400893	0.049980153911747
102448	50	41	0	0	organ	1082	41	0	stimuli\organ\organ_12s.jpg	11	-1	0	0	organ_12s.jpg	0	0	0	50.8176394978072	50.867604291765	0.0499647939577699
102548	50	42	0	0	birdbath	129	42	0	stimuli\birdbath\birdbath_10s.jpg	9	-1	0	0	birdbath_10s.jpg	0	0	0	50.9176432037493	50.9676231138874	0.0499799101380631
102648	50	43	0	0	berry	121	43	0	stimuli\berry\berry_08s.jpg	7	-1	0	0	berry_08s.jpg	0	0	0	51.0176439839415	51.0676231626421	0.0499791787005961
102748	50	44	0	0	barcode	73	44	0	stimuli\barcode\barcode_10s.jpg	9	-1	0	0	barcode_10s.jpg	0	0	0	51.1176381811965	51.1676039504819	0.0499657692853361
102848	50	45	0	0	comb	389	45	0	stimuli\comb\comb_08s.jpg	7	-1	0	0	comb_08s.jpg	0	0	0	51.2176226262236	51.267603023909	0.0499803976854309
102948	50	46	0	0	wedge	1801	46	0	stimuli\wedge\wedge_10s.jpg	9	-1	0	0	wedge_10s.jpg	0	0	0	51.3176253568381	51.3676116060233	0.0499862491851673
103048	50	47	0	0	dog	495	47	0	stimuli\dog\dog_10s.jpg	9	-1	0	0	dog_10s.jpg	0	0	0	51.4176514932187	51.4676323785679	0.0499808853492141
103148	50	48	0	0	possum	1228	48	0	stimuli\possum\possum_11s.jpg	10	-1	0	0	possum_11s.jpg	0	0	0	51.517654711497	51.5676365720574	0.049981860560365
103249	50	49	0	0	ballot_box	61	49	0	stimuli\ballot_box\ballot_box_07s.jpg	6	-1	0	0	ballot_box_07s.jpg	0	0	0	51.6176642688224	51.667639546562	0.049975277739577
103348	50	50	0	0	sweatsuit	1593	50	0	stimuli\sweatsuit\sweatsuit_09s.jpg	8	-1	0	0	sweatsuit_09s.jpg	0	0	0	51.7176621232647	51.7676420334028	0.0499799101380631
103448	50	51	0	0	lunchbox	950	51	0	stimuli\lunchbox\lunchbox_08s.jpg	7	-1	0	0	lunchbox_08s.jpg	0	0	0	51.8176641225582	51.8676301355008	0.0499660129426047
103549	50	52	0	0	gearshift	668	52	0	stimuli\gearshift\gearshift_06s.jpg	5	-1	0	0	gearshift_06s.jpg	0	0	0	51.9176690474851	51.9676462757634	0.0499772282782942
103649	50	53	0	0	laundry_basket	902	53	0	stimuli\laundry_basket\laundry_basket_03s.jpg	2	-1	0	0	laundry_basket_03s.jpg	0	0	0	52.0176710467786	52.0676497378154	0.049978691036813
103748	50	54	0	0	poker	1210	54	0	stimuli\poker\poker_03s.jpg	2	-1	0	1	poker_03s.jpg	0	0	0	52.1176269659773	52.1676358894911	0.0500089235138148
103849	50	55	0	0	tugboat	1725	55	0	stimuli\tugboat\tugboat_10s.jpg	9	-1	0	0	tugboat_10s.jpg	0	0	0	52.2176804089686	52.2676566620357	0.0499762530671433
103949	50	56	0	0	cookie	400	56	0	stimuli\cookie\cookie_01b.jpg	0	-1	0	0	cookie_01b.jpg	0	0	0	52.3176787510747	52.3676613430725	0.0499825919978321
104049	50	57	0	0	nose	1063	57	0	stimuli\nose\nose_02s.jpg	1	-1	0	0	nose_02s.jpg	1	0.292222389136441	1	52.4176861140877	52.4676599290688	0.0499738149810582
104149	50	58	0	0	denture	478	58	0	stimuli\denture\denture_08s.jpg	7	-1	0	0	denture_08s.jpg	0	0	0	52.5176795800216	52.5676624159096	0.0499828358879313
104249	50	59	0	0	rifle	1311	59	0	stimuli\rifle\rifle_09s.jpg	8	-1	0	0	rifle_09s.jpg	0	0	0	52.6176869430346	52.6676558818435	0.0499689388088882
104349	50	60	0	0	fishhook	602	60	0	stimuli\fishhook\fishhook_04s.jpg	3	-1	0	0	fishhook_04s.jpg	0	0	0	52.7176774833351	52.7676564181456	0.0499789348104969
104449	50	61	0	0	moth	1023	61	0	stimuli\moth\moth_02n.jpg	1	-1	0	0	moth_02n.jpg	0	0	0	52.8176780196372	52.8676623184001	0.0499842987628654
104549	50	62	0	0	aircraft_carrier	9	62	0	stimuli\aircraft_carrier\aircraft_carrier_11s.jpg	10	-1	0	0	aircraft_carrier_11s.jpg	0	0	0	52.9176844074391	52.9676645613508	0.049980153911747
104649	50	63	0	0	sandpaper	1356	63	0	stimuli\sandpaper\sandpaper_04s.jpg	3	-1	0	0	sandpaper_04s.jpg	0	0	0	53.0176839686465	53.0676643663319	0.0499803976854309
104749	50	64	0	0	bow1	174	64	0	stimuli\bow1\bow1_07s.jpg	6	-1	0	0	bow1_07s.jpg	0	0	0	53.1176879183622	53.1676700226963	0.0499821043340489
104849	50	65	0	0	lipstick	936	65	0	stimuli\lipstick\lipstick_07s.jpg	6	-1	0	0	lipstick_07s.jpg	0	0	0	53.2176916241879	53.2676705591148	0.0499789349269122
104949	50	66	0	0	ruler	1341	66	0	stimuli\ruler\ruler_12s.jpg	11	-1	0	0	ruler_12s.jpg	0	0	0	53.3176921606064	53.3676808478776	0.0499886872712523
105049	50	67	0	0	face	569	67	0	stimuli\face\face_10s.jpg	9	-1	0	0	face_10s.jpg	0	0	0	53.4176846513292	53.467659441405	0.0499747900757939
105149	50	68	0	0	ironing_board	833	68	0	stimuli\ironing_board\ironing_board_04s.jpg	3	-1	0	0	ironing_board_04s.jpg	0	0	0	53.5176805552328	53.5676638787845	0.0499833235517144
105249	50	69	0	0	pea	1128	69	0	stimuli\pea\pea_06s.jpg	5	-1	0	0	pea_06s.jpg	0	0	0	53.61768304219	53.6676658779616	0.049982835771516
105349	50	70	0	0	truck	1720	70	0	stimuli\truck\truck_04n.jpg	3	-1	0	0	truck_04n.jpg	0	0	0	53.7176850413671	53.7676654391689	0.0499803978018463
105449	50	71	0	0	bottle	170	71	0	stimuli\bottle\bottle_08s.jpg	7	-1	0	0	bottle_08s.jpg	0	0	0	53.8176894787466	53.8676679260097	0.0499784472631291
105549	50	72	0	0	skateboard	1449	72	0	stimuli\skateboard\skateboard_05s.jpg	4	-1	0	0	skateboard_05s.jpg	0	0	0	53.917689771275	53.9676682185382	0.0499784472631291
105649	50	73	0	0	drill	520	73	0	stimuli\drill\drill_08s.jpg	7	-1	0	0	drill_08s.jpg	0	0	0	54.0177234656876	54.0677041072631	0.0499806415755302
105749	50	74	0	0	fruit	645	74	0	stimuli\fruit\fruit_04s.jpg	3	-1	0	0	fruit_04s.jpg	0	0	0	54.1177296097158	54.1677078132052	0.0499782034894451
105849	50	75	0	0	stick	1552	75	0	stimuli\stick\stick_06s.jpg	5	-1	0	0	stick_06s.jpg	0	0	0	54.2177352660801	54.2677081057336	0.049972839653492
105949	50	76	0	0	daisy	470	76	0	stimuli\daisy\daisy_11s.jpg	10	-1	0	0	daisy_11s.jpg	0	0	0	54.3177309262101	54.3676993773552	0.0499684511451051
106049	50	77	0	0	napkin	1050	77	0	stimuli\napkin\napkin_09s.jpg	8	-1	0	0	napkin_09s.jpg	0	0	0	54.4177373140119	54.4677004013211	0.0499630873091519
106149	50	78	0	0	fire_alarm	591	78	0	stimuli\fire_alarm\fire_alarm_08s.jpg	7	-1	0	0	fire_alarm_08s.jpg	0	0	0	54.5177237094613	54.5677177605685	0.0499940511072055
106249	50	79	0	0	balloon	60	79	0	stimuli\balloon\balloon_06s.jpg	5	-1	0	0	balloon_06s.jpg	0	0	0	54.6177383868489	54.6677219540579	0.049983567208983
106349	50	80	0	0	block	143	80	0	stimuli\block\block_06s.jpg	5	-1	0	0	block_06s.jpg	0	0	0	54.717740386026	54.7677232219139	0.0499828358879313
106449	50	81	0	0	pepperoni	1153	81	0	stimuli\pepperoni\pepperoni_04s.jpg	3	-1	0	0	pepperoni_04s.jpg	0	0	0	54.817741653882	54.8677266839659	0.0499850300839171
106549	50	82	0	0	straw2	1569	82	0	stimuli\straw2\straw2_07s.jpg	6	-1	0	0	straw2_07s.jpg	0	0	0	54.9177482854575	54.9677103975555	0.0499621120980009
106649	50	83	0	0	bungee	221	83	0	stimuli\bungee\bungee_06s.jpg	5	-1	0	0	bungee_06s.jpg	0	0	0	55.0177154199919	55.067693867255	0.0499784472631291
106749	50	84	0	0	ice_pack	820	84	0	stimuli\ice_pack\ice_pack_06s.jpg	5	-1	0	0	ice_pack_06s.jpg	0	0	0	55.1177454573335	55.1677158589009	0.049970401567407
106849	50	85	0	0	bun	220	85	0	stimuli\bun\bun_06s.jpg	5	-1	0	0	bun_06s.jpg	0	0	0	55.2177550146589	55.2677351685707	0.049980153911747
106949	50	86	0	0	turkey	1733	86	0	stimuli\turkey\turkey_08s.jpg	7	-1	0	0	turkey_08s.jpg	0	0	0	55.317755550961	55.3677400934976	0.0499845425365493
107049	50	87	0	0	fireplace	595	87	0	stimuli\fireplace\fireplace_03s.jpg	2	-1	0	0	fireplace_03s.jpg	0	0	0	55.417787538725	55.467744286987	0.0499567482620478
107149	50	88	0	0	hood	791	88	0	stimuli\hood\hood_09s.jpg	8	-1	0	0	hood_09s.jpg	0	0	0	55.5177544294856	55.5677384843584	0.0499840548727661
107249	50	89	0	0	blanket	136	89	0	stimuli\blanket\blanket_10s.jpg	9	-1	0	0	blanket_10s.jpg	0	0	0	55.6177444820059	55.6677217102842	0.0499772282782942
107349	50	90	0	0	aquarium	34	90	0	stimuli\aquarium\aquarium_12s.jpg	11	-1	0	0	aquarium_12s.jpg	0	0	0	55.7177330717677	55.7677419951651	0.0500089233973995
107449	50	91	0	0	turntable	1735	91	0	stimuli\turntable\turntable_07s.jpg	6	-1	0	0	turntable_07s.jpg	0	0	0	55.8177643280942	55.8677457011072	0.0499813730129972
107549	50	92	0	0	seesaw	1402	92	0	stimuli\seesaw\seesaw_06s.jpg	5	-1	0	0	seesaw_06s.jpg	0	0	0	55.9177648645127	55.9677472127369	0.0499823482241482
107649	50	93	0	0	abacus	1	93	0	stimuli\abacus\abacus_04s.jpg	3	-1	0	0	abacus_04s.jpg	0	0	0	56.0177685704548	56.0677336081862	0.0499650377314538
107749	50	94	0	0	cream_cheese	437	94	0	stimuli\cream_cheese\cream_cheese_04s.jpg	3	-1	0	0	cream_cheese_04s.jpg	0	0	0	56.1177749582566	56.1677521864185	0.0499772281618789
107849	50	95	0	0	cracker	429	95	0	stimuli\cracker\cracker_08s.jpg	7	-1	0	0	cracker_08s.jpg	0	0	0	56.2177567213075	56.2677400447428	0.0499833234352991
107949	50	96	0	0	beaver	107	96	0	stimuli\beaver\beaver_02s.jpg	1	-1	0	0	beaver_02s.jpg	0	0	0	56.3177755433135	56.3677559411153	0.0499803978018463
108049	50	97	0	0	mallet	962	97	0	stimuli\mallet\mallet_04s.jpg	3	-1	0	0	mallet_04s.jpg	0	0	0	56.4177785178181	56.4677594031673	0.0499808853492141
108149	50	98	0	0	headscarf	768	98	0	stimuli\headscarf\headscarf_03s.jpg	2	-1	0	0	headscarf_03s.jpg	0	0	0	56.5177853932837	56.5677496995777	0.0499643062939867
108249	50	99	0	0	skewer	1451	99	0	stimuli\skewer\skewer_07s.jpg	6	-1	0	0	skewer_07s.jpg	0	0	0	56.6177856858121	56.6677719349973	0.0499862491851673
108349	50	100	0	0	humvee	813	100	0	stimuli\humvee\humvee_09s.jpg	8	-1	0	0	humvee_09s.jpg	0	0	0	56.7177876849892	56.7677673513535	0.0499796663643792
108449	50	101	0	0	jumpsuit	859	101	0	stimuli\jumpsuit\jumpsuit_12s.jpg	11	-1	0	0	jumpsuit_12s.jpg	0	0	0	56.8177884651814	56.8677710572956	0.0499825921142474
108549	50	102	0	0	blueberry	149	102	0	stimuli\blueberry\blueberry_08s.jpg	7	-1	0	0	blueberry_08s.jpg	0	0	0	56.9177719349973	56.9677511136979	0.0499791787005961
108649	50	103	0	0	petri_dish	1159	103	0	stimuli\petri_dish\petri_dish_09s.jpg	8	-1	0	0	petri_dish_09s.jpg	0	0	0	57.0177673513535	57.0677477491554	0.0499803978018463
108749	50	104	0	0	wrapping_paper	1838	104	0	stimuli\wrapping_paper\wrapping_paper_12s.jpg	11	-1	0	0	wrapping_paper_12s.jpg	0	0	0	57.1177698381944	57.1677519426448	0.0499821044504642
108849	50	105	0	0	coral	406	105	0	stimuli\coral\coral_01b.jpg	0	-1	0	0	coral_01b.jpg	0	0	0	57.217771349824	57.2677502847509	0.0499789349269122
108949	50	106	0	0	sweeper	1594	106	0	stimuli\sweeper\sweeper_01b.jpg	0	-1	0	0	sweeper_01b.jpg	0	0	0	57.3177733491175	57.367784710601	0.0500113614834845
109049	50	107	0	0	scooter	1382	107	0	stimuli\scooter\scooter_12s.jpg	11	-1	0	0	scooter_12s.jpg	0	0	0	57.4178082625149	57.467784515582	0.0499762530671433
109149	50	108	0	0	elbow	552	108	0	stimuli\elbow\elbow_05s.jpg	4	-1	0	0	elbow_05s.jpg	0	0	0	57.517791244667	57.567787977634	0.0499967329669744
109249	50	109	0	0	golf_cart	689	109	0	stimuli\golf_cart\golf_cart_02s.jpg	1	-1	0	0	golf_cart_02s.jpg	0	0	0	57.6178093353519	57.6677897330374	0.0499803976854309
109349	50	110	0	0	bowler_hat	178	110	0	stimuli\bowler_hat\bowler_hat_11s.jpg	10	-1	0	0	bowler_hat_11s.jpg	0	0	0	57.7178079212317	57.7677866122685	0.049978691036813
109449	50	111	0	0	fountain_pen	637	111	0	stimuli\fountain_pen\fountain_pen_10s.jpg	9	-1	0	0	fountain_pen_10s.jpg	0	0	0	57.81781113951	57.8677922686329	0.049981129122898
109549	50	112	0	0	glue	681	112	0	stimuli\glue\glue_02s.jpg	1	-1	0	0	glue_02s.jpg	0	0	0	57.9178175273119	57.9677947554737	0.0499772281618789
109649	50	113	0	0	apple_tree	31	113	0	stimuli\apple_tree\apple_tree_06s.jpg	5	-1	0	0	apple_tree_06s.jpg	0	0	0	58.0178190389415	58.0677952918923	0.0499762529507279
109749	50	114	0	0	jam	839	114	0	stimuli\jam\jam_04s.jpg	3	-1	0	0	jam_04s.jpg	0	0	0	58.1178029963048	58.1677782740444	0.049975277739577
109849	50	115	0	0	walnut	1778	115	0	stimuli\walnut\walnut_08n.jpg	7	-1	0	0	walnut_08n.jpg	0	0	0	58.2177969497861	58.2677771036979	0.049980153911747
109949	50	116	0	0	calf1	241	116	0	stimuli\calf1\calf1_06s.jpg	5	-1	0	0	calf1_06s.jpg	0	0	0	58.3177996804006	58.3678068972658	0.0500072168651968
110049	50	117	0	0	carousel	275	117	0	stimuli\carousel\carousel_10s.jpg	9	-1	0	1	carousel_10s.jpg	0	0	0	58.417829961516	58.4677967060125	0.0499667444964871
110149	50	118	0	0	donkey	504	118	0	stimuli\donkey\donkey_06s.jpg	5	-1	0	0	donkey_06s.jpg	0	0	0	58.5178287912859	58.5678118709475	0.0499830796616152
110249	50	119	0	0	sink	1447	119	0	stimuli\sink\sink_05s.jpg	4	-1	0	0	sink_05s.jpg	0	0	0	58.6178351790877	58.6677960720845	0.0499608929967508
110349	50	120	0	0	brussels_sprouts	206	120	0	stimuli\brussels_sprouts\brussels_sprouts_03s.jpg	2	-1	0	0	brussels_sprouts_03s.jpg	1	0.358020639978349	1	58.7178084087791	58.7677939265268	0.0499855177477002
110449	50	121	0	0	ankle	22	121	0	stimuli\ankle\ankle_09s.jpg	8	-1	0	0	ankle_09s.jpg	0	0	0	58.8178140651435	58.8677942191716	0.0499801540281624
110549	50	122	0	0	bib	122	122	0	stimuli\bib\bib_03s.jpg	2	-1	0	0	bib_03s.jpg	0	0	0	58.917847028235	58.9678235249594	0.0499764967244118
110649	50	123	0	0	macaroni	952	123	0	stimuli\macaroni\macaroni_01b.jpg	0	-1	0	0	macaroni_01b.jpg	0	0	0	59.0178458578885	59.0678252804792	0.0499794225906953
110749	50	124	0	0	teabag	1632	124	0	stimuli\teabag\teabag_02s.jpg	1	-1	0	0	teabag_02s.jpg	0	0	0	59.1178490761667	59.1678287425311	0.0499796663643792
110849	50	125	0	0	metronome	997	125	0	stimuli\metronome\metronome_09s.jpg	8	-1	0	0	metronome_09s.jpg	0	0	0	59.2178513192339	59.2678173322929	0.04996601305902
110949	50	126	0	0	clothespin	363	126	0	stimuli\clothespin\clothespin_03s.jpg	2	-1	0	0	clothespin_03s.jpg	0	0	0	59.3178564880509	59.3678390800487	0.0499825919978321
111049	50	127	0	0	seahorse	1396	127	0	stimuli\seahorse\seahorse_09s.jpg	8	-1	0	0	seahorse_09s.jpg	0	0	0	59.4178550739307	59.4678174298024	0.0499623558716848
111149	50	128	0	0	penguin	1145	128	0	stimuli\penguin\penguin_10s.jpg	9	-1	0	0	penguin_10s.jpg	0	0	0	59.5178563416703	59.567835764261	0.0499794225906953
111249	50	129	0	0	coin	385	129	0	stimuli\coin\coin_10s.jpg	9	-1	0	0	coin_10s.jpg	0	0	0	59.6178600476123	59.6678209406091	0.0499608929967508
111349	50	130	0	0	lens	916	130	0	stimuli\lens\lens_10s.jpg	9	-1	0	0	lens_10s.jpg	0	0	0	59.7178362030536	59.767818063614	0.049981860560365
111449	50	131	0	0	mussel	1042	131	0	stimuli\mussel\mussel_08s.jpg	7	-1	0	0	mussel_08s.jpg	0	0	0	59.8178386898944	59.867821769556	0.0499830796616152
111549	50	132	0	0	combination_lock	390	132	0	stimuli\combination_lock\combination_lock_08s.jpg	7	-1	0	0	combination_lock_08s.jpg	0	0	0	59.9178448339226	59.9678220620845	0.0499772281618789
111649	50	133	0	0	souffle	1498	133	0	stimuli\souffle\souffle_10s.jpg	9	-1	0	0	souffle_10s.jpg	0	0	0	60.0178441512398	60.0678182099946	0.0499740587547421
111749	50	134	0	0	stuffing	1575	134	0	stimuli\stuffing\stuffing_06s.jpg	5	-1	0	0	stuffing_06s.jpg	0	0	0	60.1178473695181	60.16782776732	0.0499803978018463
111849	50	135	0	0	car_door	268	135	0	stimuli\car_door\car_door_01b.jpg	0	-1	0	0	car_door_01b.jpg	0	0	0	60.2178347401787	60.2678541474743	0.0500194072956219
111949	50	136	0	0	jump_rope	858	136	0	stimuli\jump_rope\jump_rope_02s.jpg	1	-1	0	0	jump_rope_02s.jpg	0	0	0	60.3178774556145	60.3678578532999	0.0499803976854309
112049	50	137	0	0	robot	1318	137	0	stimuli\robot\robot_01b.jpg	0	-1	0	0	robot_01b.jpg	0	0	0	60.4178806738928	60.4678605840309	0.0499799101380631
112149	50	138	0	0	hole	785	138	0	stimuli\hole\hole_01b.jpg	0	-1	0	0	hole_01b.jpg	0	0	0	60.5178824292962	60.5678474670276	0.0499650377314538
112249	50	139	0	0	cake_mix	238	139	0	stimuli\cake_mix\cake_mix_11s.jpg	10	-1	0	0	cake_mix_11s.jpg	0	0	0	60.6178854038008	60.6678665329237	0.049981129122898
112349	50	140	0	0	hovercraft	808	140	0	stimuli\hovercraft\hovercraft_04s.jpg	3	-1	0	0	hovercraft_04s.jpg	0	0	0	60.7178698487114	60.7678546350216	0.0499847863102332
112449	50	141	0	0	kaleidoscope	861	141	0	stimuli\kaleidoscope\kaleidoscope_08s.jpg	7	-1	0	0	kaleidoscope_08s.jpg	0	0	0	60.8178896460449	60.8678761390038	0.0499864929588512
112549	50	142	0	0	crayon	435	142	0	stimuli\crayon\crayon_06s.jpg	5	-1	0	0	crayon_06s.jpg	0	0	0	60.9178982281592	60.9678722867975	0.0499740586383268
112649	50	143	0	0	aardvark	0	143	0	stimuli\aardvark\aardvark_09s.jpg	8	-1	0	0	aardvark_09s.jpg	0	0	0	61.0178946197266	61.067874286091	0.0499796663643792
112749	50	144	0	0	underwear	1745	144	0	stimuli\underwear\underwear_09s.jpg	8	-1	0	0	underwear_09s.jpg	0	0	0	61.1178985694423	61.1678631196264	0.049964550184086
112849	50	145	0	0	test_tube	1645	145	0	stimuli\test_tube\test_tube_11s.jpg	10	-1	0	0	test_tube_11s.jpg	0	0	0	61.2178983744234	61.2678804788738	0.0499821044504642
112949	50	146	0	0	pole	1213	146	0	stimuli\pole\pole_09s.jpg	8	-1	0	0	pole_09s.jpg	0	0	0	61.3178918403573	61.3678856475744	0.0499938072171062
113049	50	147	0	0	flypaper	622	147	0	stimuli\flypaper\flypaper_05s.jpg	4	-1	0	0	flypaper_05s.jpg	0	0	0	61.4179077367298	61.4678683858365	0.0499606491066515
113149	50	148	0	0	arugula	40	148	0	stimuli\arugula\arugula_02s.jpg	1	-1	0	0	arugula_02s.jpg	0	0	0	61.5179075415945	61.5678725794423	0.0499650378478691
113249	50	149	0	0	crane	431	149	0	stimuli\crane\crane_06s.jpg	5	-1	0	0	crane_06s.jpg	0	0	0	61.617908078013	61.667889451026	0.0499813730129972
113349	50	150	0	0	coffin	383	150	0	stimuli\coffin\coffin_08s.jpg	7	-1	0	0	coffin_08s.jpg	0	0	0	61.7179110525176	61.7678909626557	0.0499799101380631
113449	50	151	0	0	hourglass	807	151	0	stimuli\hourglass\hourglass_05s.jpg	4	-1	0	0	hourglass_05s.jpg	0	0	0	61.8179098821711	61.867900519981	0.0499906378099695
113549	50	152	0	0	potholder	1232	152	0	stimuli\potholder\potholder_06s.jpg	5	-1	0	0	potholder_06s.jpg	0	0	0	61.9179143195506	61.9678956925636	0.0499813730129972
113649	50	153	0	0	riser	1314	153	0	stimuli\riser\riser_11s.jpg	10	-1	0	0	riser_11s.jpg	0	0	0	62.0179143683054	62.0678957413184	0.0499813730129972
113749	50	154	0	0	pine_tree	1181	154	0	stimuli\pine_tree\pine_tree_04s.jpg	3	-1	0	0	pine_tree_04s.jpg	0	0	0	62.1179010075284	62.1678738471819	0.049972839653492
113849	50	155	0	0	brush	205	155	0	stimuli\brush\brush_10s.jpg	9	-1	0	0	brush_10s.jpg	0	0	0	62.217907882994	62.2679051035084	0.0499972205143422
113949	50	156	0	0	bassoon	86	156	0	stimuli\bassoon\bassoon_11s.jpg	10	-1	0	0	bassoon_11s.jpg	0	0	0	62.317930605961	62.3679092971142	0.0499786911532283
114049	50	157	0	0	chainsaw	299	157	0	stimuli\chainsaw\chainsaw_11s.jpg	10	-1	0	0	chainsaw_11s.jpg	0	0	0	62.4179138318868	62.4678883781889	0.04997454630211
114149	50	158	0	0	cream	436	158	0	stimuli\cream\cream_07s.jpg	6	-1	0	0	cream_07s.jpg	0	0	0	62.5179036407499	62.5678923279047	0.049988687154837
114249	50	159	0	0	lavender	904	159	0	stimuli\lavender\lavender_04s.jpg	3	-1	0	0	lavender_04s.jpg	0	0	0	62.617939041811	62.6679150509881	0.049976009177044
114349	50	160	0	0	duct_tape	528	160	0	stimuli\duct_tape\duct_tape_07s.jpg	6	-1	0	0	duct_tape_07s.jpg	0	0	0	62.7179105648538	62.7678938882891	0.0499833234352991
114449	50	161	0	0	ambulance	19	161	0	stimuli\ambulance\ambulance_07s.jpg	6	-1	0	0	ambulance_07s.jpg	0	0	0	62.8179159774445	62.86789661902	0.0499806415755302
114549	50	162	0	0	sundae	1582	162	0	stimuli\sundae\sundae_08s.jpg	7	-1	0	0	sundae_08s.jpg	0	0	0	62.9179160261992	62.9678927668137	0.0499767406145111
114649	50	163	0	0	pug	1249	163	0	stimuli\pug\pug_07s.jpg	6	-1	0	0	pug_07s.jpg	0	0	0	63.0179155874066	63.0679262174526	0.0500106300460175
114749	50	164	0	0	ginger	673	164	0	stimuli\ginger\ginger_03s.jpg	2	-1	0	0	ginger_03s.jpg	0	0	0	63.1179278265918	63.1679060300812	0.0499782034894451
114849	50	165	0	0	flagpole	606	165	0	stimuli\flagpole\flagpole_04s.jpg	3	-1	0	0	flagpole_04s.jpg	0	0	0	63.2179225115106	63.2678985206876	0.049976009177044
114949	50	166	0	0	honeypot	790	166	0	stimuli\honeypot\honeypot_03s.jpg	2	-1	0	0	honeypot_03s.jpg	0	0	0	63.3179220727179	63.3679049084894	0.049982835771516
115049	50	167	0	0	boa	150	167	0	stimuli\boa\boa_11s.jpg	10	-1	0	0	boa_11s.jpg	0	0	0	63.4179269976448	63.4679100773064	0.0499830796616152
115149	50	168	0	0	board	152	168	0	stimuli\board\board_08s.jpg	7	-1	0	1	board_08s.jpg	0	0	0	63.5179321663454	63.5679125641473	0.0499803978018463
115249	50	169	0	0	boy	184	169	0	stimuli\boy\boy_06s.jpg	5	-1	0	0	boy_06s.jpg	0	0	0	63.6179341656389	63.6679150509881	0.0499808853492141
115349	50	170	0	0	coyote	427	170	0	stimuli\coyote\coyote_11s.jpg	10	-1	0	0	coyote_11s.jpg	1	0.258926586131565	1	63.7179366524797	63.7679229016649	0.0499862491851673
115449	50	171	0	0	place_mat	1193	171	0	stimuli\place_mat\place_mat_10s.jpg	9	-1	0	0	place_mat_10s.jpg	0	0	0	63.8179469412426	63.8679183180211	0.0499713767785579
115549	50	172	0	0	retainer	1303	172	0	stimuli\retainer\retainer_11s.jpg	10	-1	0	0	retainer_11s.jpg	0	0	0	63.9179438204737	63.9679225115106	0.049978691036813
115649	50	173	0	0	doghouse	497	173	0	stimuli\doghouse\doghouse_07s.jpg	6	-1	0	0	doghouse_07s.jpg	0	0	0	64.0179385053925	64.0679542555008	0.0500157501082867
115749	50	174	0	0	twig	1740	174	0	stimuli\twig\twig_09s.jpg	8	-1	0	0	twig_09s.jpg	0	0	0	64.1179424551083	64.1679282166297	0.0499857615213841
115849	50	175	0	0	potato	1231	175	0	stimuli\potato\potato_01b.jpg	0	-1	0	0	potato_01b.jpg	0	0	0	64.2179488429101	64.2679258272983	0.049976984388195
115949	50	176	0	0	harp	755	176	0	stimuli\harp\harp_02s.jpg	1	-1	0	0	harp_02s.jpg	0	0	0	64.3179618135327	64.3679317275528	0.0499699140200391
116049	50	177	0	0	hay	761	177	0	stimuli\hay\hay_04s.jpg	3	-1	0	0	hay_04s.jpg	0	0	0	64.4179569861153	64.4679329952924	0.049976009177044
116149	50	178	0	0	radish	1274	178	0	stimuli\radish\radish_04n.jpg	3	-1	0	0	radish_04n.jpg	0	0	0	64.5179845853709	64.5679459660314	0.0499613806605339
116249	50	179	0	0	lighter	928	179	0	stimuli\lighter\lighter_10s.jpg	9	-1	0	0	lighter_10s.jpg	0	0	0	64.617989022634	64.6679669823498	0.0499779597157612
116349	50	180	0	0	cannon	260	180	0	stimuli\cannon\cannon_08s.jpg	7	-1	0	0	cannon_08s.jpg	0	0	0	64.717971029575	64.7679533777991	0.0499823482241482
116449	50	181	0	0	yacht	1844	181	0	stimuli\yacht\yacht_02s.jpg	1	-1	0	0	yacht_02s.jpg	0	0	0	64.817992289667	64.8679548894288	0.0499625997617841
116549	50	182	0	0	meatloaf	990	182	0	stimuli\meatloaf\meatloaf_05s.jpg	4	-1	0	0	meatloaf_05s.jpg	0	0	0	64.9179940451868	64.9679761495208	0.0499821043340489
116649	50	183	0	0	pillow	1176	183	0	stimuli\pillow\pillow_11s.jpg	10	-1	0	0	pillow_11s.jpg	0	0	0	65.0179953129264	65.0679779049242	0.0499825919978321
116749	50	184	0	0	carrot	277	184	0	stimuli\carrot\carrot_03s.jpg	2	-1	0	0	carrot_03s.jpg	0	0	0	65.1180056016892	65.1679789290065	0.0499733273172751
116849	50	185	0	0	tortilla	1687	185	0	stimuli\tortilla\tortilla_10s.jpg	9	-1	0	0	tortilla_10s.jpg	0	0	0	65.2180015057093	65.2679633739172	0.0499618682079017
116949	50	186	0	0	cocktail	374	186	0	stimuli\cocktail\cocktail_06s.jpg	5	-1	0	0	cocktail_06s.jpg	0	0	0	65.3180008230265	65.3679892665241	0.0499884434975684
117049	50	187	0	0	raspberry	1284	187	0	stimuli\raspberry\raspberry_07s.jpg	6	-1	0	0	raspberry_07s.jpg	0	0	0	65.4180052604061	65.467986389529	0.049981129122898
117149	50	188	0	0	cheetah	315	188	0	stimuli\cheetah\cheetah_05s.jpg	4	-1	0	0	cheetah_05s.jpg	0	0	0	65.5180082347943	65.5679942402057	0.0499860054114833
117249	50	189	0	0	fossil	636	189	0	stimuli\fossil\fossil_05s.jpg	4	-1	0	0	fossil_05s.jpg	0	0	0	65.6179892665241	65.6679635690525	0.0499743025284261
117349	50	190	0	0	cutting_board	467	190	0	stimuli\cutting_board\cutting_board_01b.jpg	0	-1	0	0	cutting_board_01b.jpg	0	0	0	65.7180058943341	65.7679875111207	0.0499816167866811
117449	50	191	0	0	pulley	1250	191	0	stimuli\pulley\pulley_01b.jpg	0	-1	0	0	pulley_01b.jpg	0	0	0	65.8180069182999	65.867989022634	0.0499821043340489
117549	50	192	0	0	doorknocker	510	192	0	stimuli\doorknocker\doorknocker_05s.jpg	4	-1	0	0	doorknocker_05s.jpg	0	0	0	65.9180111117894	65.9679876086302	0.0499764968408272
117649	50	193	0	0	snowshoe	1485	193	0	stimuli\snowshoe\snowshoe_02s.jpg	1	-1	0	0	snowshoe_02s.jpg	0	0	0	66.0180126234191	66.067990095471	0.0499774720519781
117749	50	194	0	0	xylophone	1843	194	0	stimuli\xylophone\xylophone_11s.jpg	10	-1	0	0	xylophone_11s.jpg	0	0	0	66.118017548346	66.1679940451868	0.0499764968408272
117849	50	195	0	0	chicken_wire	324	195	0	stimuli\chicken_wire\chicken_wire_10s.jpg	9	-1	0	0	chicken_wire_10s.jpg	0	0	0	66.2180207666242	66.2679975072388	0.0499767406145111
117949	50	196	0	0	spider_web	1514	196	0	stimuli\spider_web\spider_web_03s.jpg	2	-1	0	0	spider_web_03s.jpg	0	0	0	66.3180191087304	66.3680075522279	0.0499884434975684
118049	50	197	0	0	rattlesnake	1288	197	0	stimuli\rattlesnake\rattlesnake_06s.jpg	5	-1	0	0	rattlesnake_06s.jpg	0	0	0	66.4180189137114	66.4680024809204	0.049983567208983
118149	50	198	0	0	pearl	1134	198	0	stimuli\pearl\pearl_07s.jpg	6	-1	0	0	pearl_07s.jpg	0	0	0	66.5180243263021	66.5680061868625	0.049981860560365
118249	50	199	0	0	cookie_sheet	402	199	0	stimuli\cookie_sheet\cookie_sheet_12s.jpg	11	-1	0	0	cookie_sheet_12s.jpg	0	0	0	66.6180265692528	66.6680125746643	0.0499860054114833
118349	50	200	0	0	sewing_kit	1406	200	0	stimuli\sewing_kit\sewing_kit_01b.jpg	0	-1	0	0	sewing_kit_01b.jpg	0	0	0	66.7180266180076	66.7680094538955	0.0499828358879313
118449	50	201	0	0	hookah	795	201	0	stimuli\hookah\hookah_12s.jpg	11	-1	0	0	hookah_12s.jpg	0	0	0	66.8180315430509	66.8680151102599	0.049983567208983
118549	50	202	0	0	meat_grinder	988	202	0	stimuli\meat_grinder\meat_grinder_02s.jpg	1	-1	0	0	meat_grinder_02s.jpg	0	0	0	66.9180369555252	66.968022717163	0.0499857616377994
118649	50	203	0	0	powder	1236	203	0	stimuli\powder\powder_04s.jpg	3	-1	0	0	powder_04s.jpg	0	0	0	67.0180401738035	67.0680193525041	0.0499791787005961
118749	50	204	0	0	bomb	160	204	0	stimuli\bomb\bomb_02s.jpg	1	-1	0	0	bomb_02s.jpg	0	0	0	67.1180397350108	67.1680189137114	0.0499791787005961
118849	50	205	0	0	kayak	863	205	0	stimuli\kayak\kayak_06s.jpg	5	-1	0	0	kayak_06s.jpg	0	0	0	67.2180449037114	67.2680257890606	0.0499808853492141
118949	50	206	0	0	battery	97	206	0	stimuli\battery\battery_11s.jpg	10	-1	0	0	battery_11s.jpg	0	0	0	67.3180303239496	67.3680058454629	0.0499755215132609
119049	50	207	0	0	bug	212	207	0	stimuli\bug\bug_08s.jpg	7	-1	0	0	bug_08s.jpg	0	0	0	67.4180267156335	67.4680049190065	0.0499782033730298
119149	50	208	0	0	buoy	223	208	0	stimuli\buoy\buoy_06s.jpg	5	-1	0	0	buoy_06s.jpg	0	0	0	67.518029446248	67.568015451543	0.049986005295068
119249	50	209	0	0	baseball_bat	79	209	0	stimuli\baseball_bat\baseball_bat_12s.jpg	11	-1	0	0	baseball_bat_12s.jpg	0	0	0	67.6180321768625	67.6680137936492	0.0499816167866811
119349	50	210	0	0	nail_polish	1049	210	0	stimuli\nail_polish\nail_polish_05s.jpg	4	-1	0	0	nail_polish_05s.jpg	0	0	0	67.7180341761559	67.768014086294	0.0499799101380631
119449	50	211	0	0	drum	522	211	0	stimuli\drum\drum_11n.jpg	10	-1	0	0	drum_11n.jpg	0	0	0	67.818036175333	67.8680429045344	0.0500067292014137
119549	50	212	0	0	dirt_bike	488	212	0	stimuli\dirt_bike\dirt_bike_10s.jpg	9	-1	0	0	dirt_bike_10s.jpg	0	0	0	67.9180435384624	67.9680210103979	0.0499774719355628
119649	50	213	0	0	spinach	1515	213	0	stimuli\spinach\spinach_12s.jpg	11	-1	0	0	spinach_12s.jpg	0	0	0	68.0180443186546	68.0680256915512	0.0499813728965819
119749	50	214	0	0	sidecar	1442	214	0	stimuli\sidecar\sidecar_03s.jpg	2	-1	0	0	sidecar_03s.jpg	0	0	0	68.1180463178316	68.1680247650947	0.0499784472631291
119849	50	215	0	0	hot-water_bottle	802	215	0	stimuli\hot-water_bottle\hot-water_bottle_05s.jpg	4	-1	0	0	hot-water_bottle_05s.jpg	0	0	0	68.2180453913752	68.268027983373	0.0499825919978321
119949	50	216	0	0	duckling	526	216	0	stimuli\duckling\duckling_11s.jpg	10	-1	0	0	duckling_11s.jpg	0	0	0	68.3180837181862	68.3680621654494	0.0499784472631291
120049	50	217	0	0	trident	1712	217	0	stimuli\trident\trident_12s.jpg	11	-1	0	0	trident_12s.jpg	0	0	0	68.4180796222063	68.4680648960639	0.049985273857601
120149	50	218	0	0	poodle	1221	218	0	stimuli\poodle\poodle_01b.jpg	0	-1	0	0	poodle_01b.jpg	0	0	0	68.5180655299919	68.5680690896697	0.0500035596778616
120249	50	219	0	0	mirror	1005	219	0	stimuli\mirror\mirror_08s.jpg	7	-1	0	0	mirror_08s.jpg	0	0	0	68.6180841082241	68.6680496336194	0.0499655253952369
120349	50	220	0	0	fish	600	220	0	stimuli\fish\fish_02s.jpg	1	-1	0	0	fish_02s.jpg	0	0	0	68.71808830183	68.7680399300298	0.0499516281997785
120449	50	221	0	0	notepad	1065	221	0	stimuli\notepad\notepad_10s.jpg	9	-1	0	0	notepad_10s.jpg	0	0	0	68.8180644572712	68.8680436359718	0.0499791787005961
120549	50	222	0	0	clock	359	222	0	stimuli\clock\clock_03n.jpg	2	-1	0	0	clock_03n.jpg	0	0	0	68.918064506026	68.9680429532891	0.0499784472631291
120649	50	223	0	0	snack	1475	223	0	stimuli\snack\snack_02s.jpg	1	-1	0	0	snack_02s.jpg	0	0	0	69.0180633356795	69.0680793295614	0.0500159938819706
120749	50	224	0	0	blind	140	224	0	stimuli\blind\blind_08s.jpg	7	-1	0	0	blind_08s.jpg	1	0	0	69.1181036130292	69.1680774278939	0.0499738148646429
120849	50	225	0	0	cane	258	225	0	stimuli\cane\cane_06n.jpg	5	-1	0	0	cane_06n.jpg	0	0	0	69.2180826942204	69.2680833280319	0.0500006338115782
120949	50	226	0	0	tiramisu	1663	226	0	stimuli\tiramisu\tiramisu_12s.jpg	11	-1	0	0	tiramisu_12s.jpg	0	0	0	69.3180895695696	69.3680889843963	0.0499994148267433
121049	50	227	0	0	mast	981	227	0	stimuli\mast\mast_09s.jpg	8	-1	0	0	mast_09s.jpg	0	0	0	69.4180869364645	69.4680778179318	0.0499908814672381
121149	50	228	0	0	weather_vane	1798	228	0	stimuli\weather_vane\weather_vane_01s.jpg	0	-1	0	0	weather_vane_01s.jpg	0	0	0	69.5180986881023	69.5680817676475	0.0499830795451999
121249	50	229	0	0	ruby	1338	229	0	stimuli\ruby\ruby_04s.jpg	3	-1	0	0	ruby_04s.jpg	0	0	0	69.6180970302084	69.6680757212453	0.049978691036813
121349	50	230	0	0	quesadilla	1261	230	0	stimuli\quesadilla\quesadilla_04s.jpg	3	-1	0	0	quesadilla_04s.jpg	0	0	0	69.7181124389172	69.768095030915	0.0499825919978321
121449	50	231	0	0	puppy	1258	231	0	stimuli\puppy\puppy_11s.jpg	10	-1	0	0	puppy_11s.jpg	0	0	0	69.8181190704927	69.868083133013	0.0499640625203028
121549	50	232	0	0	boar	151	232	0	stimuli\boar\boar_11s.jpg	10	-1	0	0	boar_11s.jpg	0	0	0	69.9181044907309	69.9680978104006	0.0499933196697384
121649	50	233	0	0	faucet	573	233	0	stimuli\faucet\faucet_05s.jpg	4	-1	0	0	faucet_05s.jpg	0	0	0	70.0181238004006	70.0680998095777	0.049976009177044
121749	50	234	0	0	crayfish	434	234	0	stimuli\crayfish\crayfish_11s.jpg	10	-1	0	0	crayfish_11s.jpg	0	0	0	70.1181036130292	70.1680793783162	0.0499757652869448
121849	50	235	0	0	corsage	417	235	0	stimuli\corsage\corsage_08s.jpg	7	-1	0	0	corsage_08s.jpg	0	0	0	70.2181014674716	70.2680830842583	0.0499816167866811
121949	50	236	0	0	stake	1533	236	0	stimuli\stake\stake_06s.jpg	5	-1	0	0	stake_06s.jpg	0	0	0	70.3181098058121	70.3680889843963	0.0499791785841808
122049	50	237	0	0	apron	33	237	0	stimuli\apron\apron_03s.jpg	2	-1	0	0	apron_03s.jpg	0	0	0	70.4181064411532	70.4680812313454	0.0499747901922092
122149	50	238	0	0	blinder	141	238	0	stimuli\blinder\blinder_01b.jpg	0	-1	0	0	blinder_01b.jpg	0	0	0	70.5181077090092	70.5680844496237	0.0499767406145111
122249	50	239	0	0	eggshell	551	239	0	stimuli\eggshell\eggshell_05s.jpg	4	-1	0	0	eggshell_05s.jpg	0	0	0	70.6181043444667	70.6680749898078	0.0499706453410909
122349	50	240	0	0	jeans	842	240	0	stimuli\jeans\jeans_04s.jpg	3	-1	0	0	jeans_04s.jpg	0	0	0	70.7181207283866	70.7681016137358	0.0499808853492141
122449	50	241	0	0	leggings	912	241	0	stimuli\leggings\leggings_03s.jpg	2	-1	0	0	leggings_03s.jpg	0	0	0	70.8181422323687	70.8681209234055	0.049978691036813
122549	50	242	0	0	timer	1661	242	0	stimuli\timer\timer_02s.jpg	1	-1	0	0	timer_02s.jpg	0	0	0	70.9181435002247	70.9681243855739	0.0499808853492141
122649	50	243	0	0	bike	123	243	0	stimuli\bike\bike_11s.jpg	10	-1	0	0	bike_11s.jpg	0	0	0	71.0181469622767	71.0681258972036	0.0499789349269122
122749	50	244	0	0	baton4	95	244	0	stimuli\baton4\baton4_01b.jpg	0	-1	0	0	baton4_01b.jpg	0	0	0	71.1181492053438	71.1681118049892	0.0499625996453688
122849	50	245	0	0	closet	360	245	0	stimuli\closet\closet_06s.jpg	5	-1	0	0	closet_06s.jpg	0	0	0	71.2181482788874	71.2681337966351	0.0499855177477002
122949	50	246	0	0	fern	577	246	0	stimuli\fern\fern_06s.jpg	5	-1	0	0	fern_06s.jpg	0	0	0	71.3181522286031	71.3681133653736	0.0499611367704347
123049	50	247	0	0	toolbox	1677	247	0	stimuli\toolbox\toolbox_10s.jpg	9	-1	0	0	toolbox_10s.jpg	0	0	0	71.4181364297401	71.4681143893395	0.0499779595993459
123149	50	248	0	0	outfit	1087	248	0	stimuli\outfit\outfit_10s.jpg	9	-1	0	0	outfit_10s.jpg	0	0	0	71.5181637851056	71.5681400380563	0.0499762529507279
123249	50	249	0	0	pigeon	1171	249	0	stimuli\pigeon\pigeon_01b.jpg	0	-1	0	0	pigeon_01b.jpg	0	0	0	71.6181623709854	71.6681432563346	0.0499808853492141
123349	50	250	0	0	car_seat	269	250	0	stimuli\car_seat\car_seat_12s.jpg	11	-1	0	0	car_seat_12s.jpg	0	0	0	71.7181633950677	71.7681420861045	0.049978691036813
123449	50	251	0	0	bracelet2	188	251	0	stimuli\bracelet2\bracelet2_09s.jpg	8	-1	0	0	bracelet2_09s.jpg	0	0	0	71.8181466209935	71.8681257996941	0.0499791787005961
123549	50	252	0	0	hammer	741	252	0	stimuli\hammer\hammer_08s.jpg	7	-1	0	0	hammer_08s.jpg	0	0	0	71.9181466697482	71.9681314560585	0.0499847863102332
123649	50	253	0	0	cassette	283	253	0	stimuli\cassette\cassette_11n.jpg	10	-1	0	0	cassette_11n.jpg	0	0	0	72.0181486689253	72.0681317485869	0.0499830796616152
123749	50	254	0	0	licorice	922	254	0	stimuli\licorice\licorice_09s.jpg	8	-1	0	0	licorice_09s.jpg	0	0	0	72.1181482301326	72.1681288715918	0.0499806414591148
123849	50	255	0	0	glass	677	255	0	stimuli\glass\glass_10s.jpg	9	-1	0	0	glass_10s.jpg	0	0	0	72.2181521798484	72.2681330651976	0.0499808853492141
123949	50	256	0	0	saffron	1345	256	0	stimuli\saffron\saffron_10s.jpg	9	-1	0	0	saffron_10s.jpg	0	0	0	72.3181563733378	72.3681504243286	0.0499940509907901
124049	50	257	0	0	soy_sauce	1500	257	0	stimuli\soy_sauce\soy_sauce_08s.jpg	7	-1	0	0	soy_sauce_08s.jpg	0	0	0	72.418181778281	72.4681604693178	0.049978691036813
124149	50	258	0	0	sheet	1415	258	0	stimuli\sheet\sheet_01b.jpg	0	-1	0	0	sheet_01b.jpg	0	0	0	72.5181676860666	72.5681636875961	0.0499960015295073
124249	50	259	0	0	oar	1068	259	0	stimuli\oar\oar_10s.jpg	9	-1	0	0	oar_10s.jpg	0	0	0	72.6181828510016	72.6681710506091	0.0499881996074691
124349	50	260	0	0	plastic_film	1196	260	0	stimuli\plastic_film\plastic_film_09s.jpg	8	-1	0	0	plastic_film_09s.jpg	0	0	0	72.7181914331159	72.7681691489415	0.049977715825662
124449	50	261	0	0	catfish	287	261	0	stimuli\catfish\catfish_06s.jpg	5	-1	0	0	catfish_06s.jpg	0	0	0	72.818189775222	72.8681621272117	0.0499723519897088
124549	50	262	0	0	pogo_stick	1208	262	0	stimuli\pogo_stick\pogo_stick_01s.jpg	0	-1	0	0	pogo_stick_01s.jpg	0	0	0	72.918181778281	72.9681643702788	0.0499825919978321
124649	50	263	0	0	barbed_wire	71	263	0	stimuli\barbed_wire\barbed_wire_12s.jpg	11	-1	0	0	barbed_wire_12s.jpg	0	0	0	73.0181847526692	73.0681658819085	0.0499811292393133
124749	50	264	0	0	arm	36	264	0	stimuli\arm\arm_08s.jpg	7	-1	0	0	arm_08s.jpg	0	0	0	73.1181923595723	73.1681695877342	0.0499772281618789
124849	50	265	0	0	marble	972	265	0	stimuli\marble\marble_08s.jpg	7	-1	0	0	marble_08s.jpg	0	0	0	73.2181907016784	73.2681784136221	0.049987711943686
124949	50	266	0	0	hail	732	266	0	stimuli\hail\hail_12s.jpg	11	-1	0	0	hail_12s.jpg	0	0	0	73.3181941637304	73.3681762681808	0.0499821044504642
125049	50	267	0	0	shower_curtain	1435	267	0	stimuli\shower_curtain\shower_curtain_04s.jpg	3	-1	0	0	shower_curtain_04s.jpg	0	0	0	73.41819567536	73.468179242569	0.049983567208983
125149	50	268	0	0	fox	638	268	0	stimuli\fox\fox_08s.jpg	7	-1	0	0	fox_08s.jpg	0	0	0	73.5181996250758	73.5681941637304	0.0499945386545733
125249	50	269	0	0	banjo	68	269	0	stimuli\banjo\banjo_12s.jpg	11	-1	0	0	banjo_12s.jpg	0	0	0	73.6182140585734	73.6681805591797	0.0499665006063879
125349	50	270	0	0	avocado	43	270	0	stimuli\avocado\avocado_05s.jpg	4	-1	0	0	avocado_05s.jpg	0	0	0	73.7182114254683	73.7681932860287	0.049981860560365
125449	50	271	0	0	popsicle	1225	271	0	stimuli\popsicle\popsicle_08s.jpg	7	-1	0	0	popsicle_08s.jpg	0	0	0	73.8182146437466	73.8681921157986	0.0499774720519781
125549	50	272	0	0	remote_control	1302	272	0	stimuli\remote_control\remote_control_04s.jpg	3	-1	0	0	remote_control_04s.jpg	0	0	0	73.918214936275	73.9681955778506	0.0499806415755302
125649	50	273	0	0	board_game	153	273	0	stimuli\board_game\board_game_02s.jpg	1	-1	0	0	board_game_02s.jpg	0	0	0	74.0181998688495	74.0681863618083	0.0499864929588512
125749	50	274	0	0	meat	987	274	0	stimuli\meat\meat_01b.jpg	0	-1	0	0	meat_01b.jpg	0	0	0	74.1182272242149	74.1682054277044	0.0499782034894451
125849	50	275	0	0	blazer	137	275	0	stimuli\blazer\blazer_11s.jpg	10	-1	0	0	blazer_11s.jpg	0	0	0	74.2182158139767	74.2682120592799	0.0499962453031912
125949	50	276	0	0	sonogram	1496	276	0	stimuli\sonogram\sonogram_12s.jpg	11	-1	0	0	sonogram_12s.jpg	0	0	0	74.3182356113102	74.3682113767136	0.0499757654033601
126049	50	277	0	0	ukulele	1742	277	0	stimuli\ukulele\ukulele_11s.jpg	10	-1	0	0	ukulele_11s.jpg	0	0	0	74.4182320028776	74.4682111815782	0.0499791787005961
126149	50	278	0	0	gallows	653	278	0	stimuli\gallows\gallows_12s.jpg	11	-1	0	0	gallows_12s.jpg	0	0	0	74.5182176668895	74.5682158627314	0.0499981958419085
126249	50	279	0	0	cash_machine	279	279	0	stimuli\cash_machine\cash_machine_05s.jpg	4	-1	0	0	cash_machine_05s.jpg	0	0	0	74.6182342946995	74.668203233392	0.0499689386924729
126349	50	280	0	0	blowtorch	148	280	0	stimuli\blowtorch\blowtorch_12n.jpg	11	-1	0	0	blowtorch_12n.jpg	0	0	0	74.7182382444153	74.7682320516324	0.0499938072171062
126449	50	281	0	0	boat	154	281	0	stimuli\boat\boat_06n.jpg	5	-1	0	0	boat_06n.jpg	0	0	0	74.8182441446697	74.8682225919329	0.0499784472631291
126549	50	282	0	0	windshield_wiper	1821	282	0	stimuli\windshield_wiper\windshield_wiper_11s.jpg	10	-1	0	0	windshield_wiper_11s.jpg	0	0	0	74.918243461987	74.968227029196	0.049983567208983
126649	50	283	0	0	parachute	1118	283	0	stimuli\parachute\parachute_06s.jpg	5	-1	0	0	parachute_06s.jpg	0	0	0	75.0182515564375	75.0682246398646	0.0499730834271759
126749	50	284	0	0	harmonica	753	284	0	stimuli\harmonica\harmonica_10s.jpg	9	-1	0	0	harmonica_10s.jpg	0	0	0	75.1182494108798	75.168230296229	0.0499808853492141
126849	50	285	0	0	speaker	1509	285	0	stimuli\speaker\speaker_11s.jpg	10	-1	0	0	speaker_11s.jpg	0	0	0	75.2182494596345	75.2682252250379	0.0499757654033601
126949	50	286	0	0	bathtub	91	286	0	stimuli\bathtub\bathtub_03s.jpg	2	-1	0	0	bathtub_03s.jpg	0	0	0	75.3182341484353	75.3682113767136	0.0499772282782942
127049	50	287	0	0	straw1	1568	287	0	stimuli\straw1\straw1_05s.jpg	4	-1	0	0	straw1_05s.jpg	0	0	0	75.4182346848538	75.4682131321169	0.0499784472631291
127149	50	288	0	0	strainer	1566	288	0	stimuli\strainer\strainer_03s.jpg	2	-1	0	0	strainer_03s.jpg	0	0	0	75.5182537507499	75.5682451198809	0.0499913691310212
127249	50	289	0	0	sickle	1441	289	0	stimuli\sickle\sickle_06s.jpg	5	-1	0	0	sickle_06s.jpg	0	0	0	75.6182608699892	75.6682315153303	0.0499706453410909
127349	50	290	0	0	cap	265	290	0	stimuli\cap\cap_05s.jpg	4	-1	0	0	cap_05s.jpg	0	0	0	75.7182636006037	75.7682335145073	0.0499699139036238
127449	50	291	0	0	gramophone	699	291	0	stimuli\gramophone\gramophone_06s.jpg	5	-1	0	0	gramophone_06s.jpg	0	0	0	75.8182702321792	75.8682479480049	0.049977715825662
127549	50	292	0	0	guardrail	720	292	0	stimuli\guardrail\guardrail_04s.jpg	3	-1	0	0	guardrail_04s.jpg	0	0	0	75.9182715000352	75.9682472654385	0.0499757654033601
127649	50	293	0	0	bouquet	173	293	0	stimuli\bouquet\bouquet_05s.jpg	4	-1	0	0	bouquet_05s.jpg	0	0	0	76.0182427793043	76.0682551159989	0.0500123366946355
127749	50	294	0	0	seismograph	1403	294	0	stimuli\seismograph\seismograph_05s.jpg	4	-1	0	1	seismograph_05s.jpg	0	0	0	76.1182733041933	76.1682544333162	0.049981129122898
127849	50	295	0	0	mantle	969	295	0	stimuli\mantle\mantle_09s.jpg	8	-1	0	0	mantle_09s.jpg	0	0	0	76.2182745720493	76.2682656974066	0.0499911253573373
127949	50	296	0	0	bolt	159	296	0	stimuli\bolt\bolt_01b.jpg	0	-1	0	0	bolt_01b.jpg	0	0	0	76.3182804721873	76.3682586756768	0.0499782034894451
128049	50	297	0	0	juice	854	297	0	stimuli\juice\juice_03s.jpg	2	-1	0	0	juice_03s.jpg	1	0.341914848191664	1	76.4182795457309	76.46826335683	0.0499838110990822
128149	50	298	0	0	whale	1804	298	0	stimuli\whale\whale_02s.jpg	1	-1	0	0	whale_02s.jpg	0	0	0	76.5182844706578	76.5682665751083	0.0499821044504642
128249	50	299	0	0	watering_can	1792	299	0	stimuli\watering_can\watering_can_01b.jpg	0	-1	0	0	watering_can_01b.jpg	0	0	0	76.6182869574986	76.6682693057228	0.0499823482241482
128349	50	300	0	0	piglet	1173	300	0	stimuli\piglet\piglet_07s.jpg	6	-1	0	0	piglet_07s.jpg	0	0	0	76.7182918824255	76.7682708173525	0.0499789349269122
128449	50	301	0	0	appetizer	29	301	0	stimuli\appetizer\appetizer_02s.jpg	1	-1	0	0	appetizer_02s.jpg	0	0	0	76.8182951007038	76.8682720852084	0.0499769845046103
128549	50	302	0	0	raincoat	1279	302	0	stimuli\raincoat\raincoat_03s.jpg	2	-1	0	0	raincoat_03s.jpg	0	0	0	76.9182768638711	76.968259455869	0.0499825919978321
128649	50	303	0	0	water_fountain	1790	303	0	stimuli\water_fountain\water_fountain_12s.jpg	11	-1	0	0	water_fountain_12s.jpg	0	0	0	77.0182949544396	77.068257554085	0.0499625996453688
128749	50	304	0	0	hockey_stick	783	304	0	stimuli\hockey_stick\hockey_stick_07s.jpg	6	-1	0	0	hockey_stick_07s.jpg	0	0	0	77.1182808623416	77.168258821941	0.0499779595993459
128849	50	305	0	0	helmet	776	305	0	stimuli\helmet\helmet_02s.jpg	1	-1	0	0	helmet_02s.jpg	0	0	0	77.2183045605198	77.2682627716567	0.0499582111369818
128949	50	306	0	0	top_hat	1682	306	0	stimuli\top_hat\top_hat_05s.jpg	4	-1	0	0	top_hat_05s.jpg	0	0	0	77.3182836417109	77.3682577004656	0.0499740587547421
129049	50	307	0	0	anteater	25	307	0	stimuli\anteater\anteater_03s.jpg	2	-1	0	0	anteater_03s.jpg	0	0	0	77.4182853971142	77.4682648195885	0.04997942247428
129149	50	308	0	0	pudding	1246	308	0	stimuli\pudding\pudding_02s.jpg	1	-1	0	0	pudding_02s.jpg	0	0	0	77.5183108020574	77.5682897369843	0.0499789349269122
135399	50	309	0	0	blowgun	147	0	1	stimuli\blowgun\blowgun_11s.jpg	10	-1	1	0	blowgun_11s.jpg	0	0	0	83.7684712285409	83.8184462623904	0.0499750338494778
135499	50	310	0	0	bonsai	164	1	1	stimuli\bonsai\bonsai_12s.jpg	11	-1	1	0	bonsai_12s.jpg	0	0	0	83.8684700581944	83.9184485054575	0.0499784472631291
135599	50	311	0	0	wok	1830	2	1	stimuli\wok\wok_12s.jpg	11	-1	1	0	wok_12s.jpg	0	0	0	83.9684549907688	84.0184375828831	0.0499825921142474
135699	50	312	0	0	rice	1309	3	1	stimuli\rice\rice_01b.jpg	0	-1	1	0	rice_01b.jpg	0	0	0	84.0684772261884	84.1184593306389	0.0499821044504642
135799	50	313	0	0	cage	236	4	1	stimuli\cage\cage_03s.jpg	2	-1	1	0	cage_03s.jpg	0	0	0	84.1684789815918	84.2184581602924	0.0499791787005961
135899	50	314	0	0	teepee	1637	5	1	stimuli\teepee\teepee_04s.jpg	3	-1	1	0	teepee_04s.jpg	0	0	0	84.2684812246589	84.318459671922	0.0499784472631291
135999	50	315	0	0	joystick	852	6	1	stimuli\joystick\joystick_01b.jpg	0	-1	1	0	joystick_01b.jpg	0	0	0	84.3684666448971	84.4184606960043	0.0499940511072055
136099	50	316	0	0	soda_fountain	1491	7	1	stimuli\soda_fountain\soda_fountain_07s.jpg	6	-1	1	0	soda_fountain_07s.jpg	0	0	0	84.4684666936519	84.5184641580563	0.0499974644044414
136199	50	317	0	0	girl	676	8	1	stimuli\girl\girl_12s.jpg	11	-1	1	0	girl_12s.jpg	0	0	0	84.5684852718841	84.6184493344044	0.0499640625203028
136299	50	318	0	0	throne	1652	9	1	stimuli\throne\throne_02s.jpg	1	-1	1	0	throne_02s.jpg	0	0	0	84.6684897092637	84.7184783965349	0.0499886872712523
136399	50	319	0	0	spareribs	1505	10	1	stimuli\spareribs\spareribs_11s.jpg	10	-1	1	0	spareribs_11s.jpg	0	0	0	84.7684934150893	84.818475031876	0.0499816167866811
136499	50	320	0	0	ship	1421	11	1	stimuli\ship\ship_08s.jpg	7	-1	1	0	ship_08s.jpg	0	0	0	84.8684932200704	84.9184467988089	0.0499535787384957
136599	50	321	0	0	pita	1189	12	1	stimuli\pita\pita_12s.jpg	11	-1	1	0	pita_12s.jpg	0	0	0	84.9684674250893	85.0184782990254	0.0500108739361167
136699	50	322	0	0	lizard	937	13	1	stimuli\lizard\lizard_06n.jpg	5	-1	1	0	lizard_06n.jpg	0	0	0	85.0684991690796	85.1184625001624	0.0499633310828358
136799	50	323	0	0	wedding_cake	1800	14	1	stimuli\wedding_cake\wedding_cake_03s.jpg	2	-1	1	0	wedding_cake_03s.jpg	0	0	0	85.1684870272875	85.2184820536058	0.0499950263183564
136899	50	324	0	0	loveseat	947	15	1	stimuli\loveseat\loveseat_10s.jpg	9	-1	1	0	loveseat_10s.jpg	0	0	0	85.2684895142447	85.3184835652355	0.0499940509907901
136999	50	325	0	0	pants	1108	16	1	stimuli\pants\pants_07s.jpg	6	-1	1	0	pants_07s.jpg	0	0	0	85.3684776163427	85.4184567950433	0.0499791787005961
137099	50	326	0	0	bottle_opener	171	17	1	stimuli\bottle_opener\bottle_opener_07s.jpg	6	-1	1	0	bottle_opener_07s.jpg	0	0	0	85.4684781526448	85.5184939027531	0.0500157501082867
137199	50	327	0	0	noose	1062	18	1	stimuli\noose\noose_12s.jpg	11	-1	1	0	noose_12s.jpg	0	0	0	85.5685089214239	85.6184902944369	0.0499813730129972
137299	50	328	0	0	neck	1053	19	1	stimuli\neck\neck_01b.jpg	0	-1	1	0	neck_01b.jpg	0	0	0	85.6685123834759	85.7184805907309	0.0499682072550058
137399	50	329	0	0	stilt	1555	20	1	stimuli\stilt\stilt_04s.jpg	3	-1	1	0	stilt_04s.jpg	0	0	0	85.7685173084028	85.818495999556	0.0499786911532283
137499	50	330	0	0	forklift	635	21	1	stimuli\forklift\forklift_04n.jpg	3	-1	1	0	forklift_04n.jpg	0	0	0	85.8685185762588	85.9184967797482	0.0499782034894451
137599	50	331	0	0	tooth	1678	22	1	stimuli\tooth\tooth_04s.jpg	3	-1	1	0	tooth_04s.jpg	0	0	0	85.9685178935761	86.0185058494098	0.0499879558337852
137699	50	332	0	0	bowling_ball	179	23	1	stimuli\bowling_ball\bowling_ball_11s.jpg	10	-1	1	0	bowling_ball_11s.jpg	0	0	0	86.0685247690417	86.1185015096562	0.0499767406145111
137799	50	333	0	0	matchbox	984	24	1	stimuli\matchbox\matchbox_01b.jpg	0	-1	1	0	matchbox_01b.jpg	0	0	0	86.168524086359	86.2185066783568	0.0499825919978321
137899	50	334	0	0	axe	45	25	1	stimuli\axe\axe_04n.jpg	3	-1	1	0	axe_04n.jpg	0	0	0	86.2685263294261	86.3185030700406	0.0499767406145111
137999	50	335	0	0	dalmatian	471	26	1	stimuli\dalmatian\dalmatian_10s.jpg	9	-1	1	0	dalmatian_10s.jpg	0	0	0	86.3685278410558	86.4185092139523	0.0499813728965819
138099	50	336	0	0	shorts	1430	27	1	stimuli\shorts\shorts_11s.jpg	10	-1	1	0	shorts_11s.jpg	0	0	0	86.468534716405	86.5185151142068	0.0499803978018463
138199	50	337	0	0	button2	231	28	1	stimuli\button2\button2_02s.jpg	1	-1	1	0	button2_02s.jpg	0	0	0	86.5685233061668	86.6185178448213	0.0499945386545733
138299	50	338	0	0	moose	1018	29	1	stimuli\moose\moose_11s.jpg	10	-1	1	0	moose_11s.jpg	0	0	0	86.6685372520005	86.7185130174039	0.0499757654033601
138399	50	339	0	0	tape	1622	30	1	stimuli\tape\tape_07s.jpg	6	-1	1	0	tape_07s.jpg	0	0	0	86.7685402265051	86.8185237937141	0.049983567208983
138499	50	340	0	0	sand	1351	31	1	stimuli\sand\sand_07s.jpg	6	-1	1	0	sand_07s.jpg	0	0	0	86.8685439324472	86.9185250615701	0.049981129122898
138599	50	341	0	0	memory_stick	995	32	1	stimuli\memory_stick\memory_stick_04s.jpg	3	-1	1	0	memory_stick_04s.jpg	0	0	0	86.9685473944992	87.0185138951056	0.0499665006063879
138699	50	342	0	0	drumstick	523	33	1	stimuli\drumstick\drumstick_11s.jpg	10	-1	1	0	drumstick_11s.jpg	0	0	0	87.0685501251137	87.1185307666892	0.0499806415755302
138799	50	343	0	0	anklet	23	34	1	stimuli\anklet\anklet_04s.jpg	3	-1	1	0	anklet_04s.jpg	0	0	0	87.168537983438	87.2185398364672	0.0500018530292436
138899	50	344	0	0	waffle_iron	1771	35	1	stimuli\waffle_iron\waffle_iron_04s.jpg	3	-1	1	0	waffle_iron_04s.jpg	0	0	0	87.2685558303492	87.3185337899486	0.0499779595993459
138999	50	345	0	0	float	616	36	1	stimuli\float\float_10s.jpg	9	-1	1	0	float_10s.jpg	0	0	0	87.368542713346	87.4185484672198	0.0500057538738474
139099	50	346	0	0	cellphone	293	37	1	stimuli\cellphone\cellphone_12s.jpg	11	-1	1	0	cellphone_12s.jpg	0	0	0	87.4685473944992	87.5185468093259	0.0499994148267433
139199	50	347	0	0	screen1	1388	38	1	stimuli\screen1\screen1_07s.jpg	6	-1	1	0	screen1_07s.jpg	0	0	0	87.5685425670817	87.618515894399	0.0499733273172751
139299	50	348	0	0	pump	1252	39	1	stimuli\pump\pump_12s.jpg	11	-1	1	0	pump_12s.jpg	0	0	0	87.6685479796724	87.7185269144829	0.0499789348104969
139399	50	349	0	0	cornhusk	414	40	1	stimuli\cornhusk\cornhusk_03s.jpg	2	-1	1	0	cornhusk_03s.jpg	0	0	0	87.7685650950298	87.8185481746914	0.0499830796616152
139499	50	350	0	0	noodle	1061	41	1	stimuli\noodle\noodle_07s.jpg	6	-1	1	0	noodle_07s.jpg	0	0	0	87.8685519781429	87.9185504177585	0.0499984396155924
139599	50	351	0	0	cilantro	347	42	1	stimuli\cilantro\cilantro_05s.jpg	4	-1	1	0	cilantro_05s.jpg	0	0	0	87.9685729944613	88.0185287675122	0.0499557730508968
139699	50	352	0	0	granola	701	43	1	stimuli\granola\granola_08s.jpg	7	-1	1	0	granola_08s.jpg	0	0	0	88.0685479309177	88.118527353392	0.04997942247428
139799	50	353	0	0	windowsill	1819	44	1	stimuli\windowsill\windowsill_11s.jpg	10	-1	1	0	windowsill_11s.jpg	0	0	0	88.1685518806335	88.2185727506876	0.0500208700541407
139899	50	354	0	0	lawnmower	905	45	1	stimuli\lawnmower\lawnmower_06s.jpg	5	-1	1	0	lawnmower_06s.jpg	0	0	0	88.2685785045614	88.3185391537845	0.0499606492230669
139999	50	355	0	0	mosquito	1020	46	1	stimuli\mosquito\mosquito_05s.jpg	4	-1	1	0	mosquito_05s.jpg	0	0	0	88.3685800161911	88.4185474920087	0.0499674758175388
140099	50	356	0	0	diving_board	494	47	1	stimuli\diving_board\diving_board_03s.jpg	2	-1	1	0	diving_board_03s.jpg	0	0	0	88.468588842079	88.5185443712398	0.0499555291607976
140199	50	357	0	0	gel	669	48	1	stimuli\gel\gel_12s.jpg	11	-1	1	0	gel_12s.jpg	0	0	0	88.5685635346454	88.6185400314862	0.0499764968408272
140299	50	358	0	0	inhaler	828	49	1	stimuli\inhaler\inhaler_12s.jpg	11	-1	1	0	inhaler_12s.jpg	0	0	0	88.6685604138765	88.7185412992258	0.0499808853492141
140399	50	359	0	0	saucer	1363	50	1	stimuli\saucer\saucer_01b.jpg	0	-1	1	0	saucer_01b.jpg	0	0	0	88.7685975217028	88.8185562203871	0.0499586986843497
140499	50	360	0	0	dough	513	51	1	stimuli\dough\dough_12s.jpg	11	-1	1	0	dough_12s.jpg	0	0	0	88.8685934257228	88.9185735796345	0.049980153911747
140599	50	361	0	0	urinal	1748	52	1	stimuli\urinal\urinal_02s.jpg	1	-1	1	0	urinal_02s.jpg	0	0	0	88.9686034705956	89.0185828930698	0.04997942247428
140699	50	362	0	0	red_carpet	1298	53	1	stimuli\red_carpet\red_carpet_01s.jpg	0	-1	1	0	red_carpet_01s.jpg	0	0	0	89.0686013251543	89.1185780656524	0.0499767404980958
140799	50	363	0	0	knob	882	54	1	stimuli\knob\knob_06s.jpg	5	-1	1	0	knob_06s.jpg	0	0	0	89.1685847948538	89.2185683620628	0.049983567208983
140899	50	364	0	0	corkboard	410	55	1	stimuli\corkboard\corkboard_01s.jpg	0	-1	1	0	corkboard_01s.jpg	0	0	0	89.2686041045235	89.3185840146616	0.0499799101380631
140999	50	365	0	0	credit_card	438	56	1	stimuli\credit_card\credit_card_10s.jpg	9	-1	1	0	credit_card_10s.jpg	0	0	0	89.3686056161532	89.4185943034245	0.0499886872712523
141099	50	366	0	0	home_plate	787	57	1	stimuli\home_plate\home_plate_04s.jpg	3	-1	1	0	home_plate_04s.jpg	0	0	0	89.4686112725176	89.5185902074445	0.0499789349269122
141199	50	367	0	0	crucifix	449	58	1	stimuli\crucifix\crucifix_08s.jpg	7	-1	1	0	crucifix_08s.jpg	0	0	0	89.5686132716946	89.6185907437466	0.0499774720519781
141299	50	368	0	0	plant	1194	59	1	stimuli\plant\plant_09s.jpg	8	-1	1	0	plant_09s.jpg	0	0	0	89.6686008862453	89.7185946934624	0.0499938072171062
141399	50	369	0	0	fungus	648	60	1	stimuli\fungus\fungus_12s.jpg	11	-1	1	0	fungus_12s.jpg	0	0	0	89.7686041045235	89.8185725556687	0.0499684511451051
141499	50	370	0	0	vent	1758	61	1	stimuli\vent\vent_01b.jpg	0	-1	1	0	vent_01b.jpg	0	0	0	89.8685931818327	89.918580406229	0.0499872243963182
141599	50	371	0	0	cart	278	62	1	stimuli\cart\cart_03s.jpg	2	-1	1	0	cart_03s.jpg	0	0	0	89.9686271201354	90.0186023978749	0.049975277739577
141699	50	372	0	0	turtle	1736	63	1	stimuli\turtle\turtle_08s.jpg	7	-1	1	0	turtle_08s.jpg	0	0	0	90.0686269251164	90.1186053723795	0.0499784472631291
141799	50	373	0	0	mongoose	1016	64	1	stimuli\mongoose\mongoose_02s.jpg	1	-1	1	0	mongoose_02s.jpg	0	0	0	90.1686274614185	90.218608102994	0.0499806415755302
141899	50	374	0	0	groundhog	718	65	1	stimuli\groundhog\groundhog_03n.jpg	2	-1	1	0	groundhog_03n.jpg	0	0	0	90.2686284853844	90.3186108336085	0.0499823482241482
141999	50	375	0	0	basketball	83	66	1	stimuli\basketball\basketball_12s.jpg	11	-1	1	0	basketball_12s.jpg	0	0	0	90.3686329227639	90.4185962538468	0.0499633310828358
142099	50	376	0	0	skin	1456	67	1	stimuli\skin\skin_12s.jpg	11	-1	1	0	skin_12s.jpg	0	0	0	90.4686402857769	90.5186041045235	0.0499638187466189
142199	50	377	0	0	birdhouse	131	68	1	stimuli\birdhouse\birdhouse_08s.jpg	7	-1	1	0	birdhouse_08s.jpg	0	0	0	90.5686410659691	90.6186190256849	0.0499779597157612
142299	50	378	0	0	eyedropper	566	69	1	stimuli\eyedropper\eyedropper_12s.jpg	11	-1	1	0	eyedropper_12s.jpg	0	0	0	90.6686259985436	90.7186210248619	0.0499950263183564
142399	50	379	0	0	cigarette_holder	346	70	1	stimuli\cigarette_holder\cigarette_holder_01b.jpg	0	-1	1	0	cigarette_holder_01b.jpg	0	0	0	90.768643357791	90.8186198546318	0.0499764968408272
142499	50	380	0	0	splinter	1516	71	1	stimuli\splinter\splinter_09s.jpg	8	-1	1	0	splinter_09s.jpg	0	0	0	90.8686443817569	90.9186094196048	0.0499650378478691
142599	50	381	0	0	yoke	1849	72	1	stimuli\yoke\yoke_05s.jpg	4	-1	1	0	yoke_05s.jpg	0	0	0	90.9686502820114	91.0186270226259	0.0499767406145111
142699	50	382	0	0	mandolin	965	73	1	stimuli\mandolin\mandolin_10s.jpg	9	-1	1	0	mandolin_10s.jpg	0	0	0	91.0686505745398	91.1186307284515	0.049980153911747
142799	50	383	0	0	extinguisher	563	74	1	stimuli\extinguisher\extinguisher_12s.jpg	11	-1	1	0	extinguisher_12s.jpg	0	0	0	91.1686379452003	91.2186349220574	0.0499969768570736
142899	50	384	0	0	soccer_ball	1488	75	1	stimuli\soccer_ball\soccer_ball_12s.jpg	11	-1	1	0	soccer_ball_12s.jpg	0	0	0	91.2686582301976	91.3186354583595	0.0499772281618789
142999	50	385	0	0	jet	847	76	1	stimuli\jet\jet_01b.jpg	0	-1	1	0	jet_01b.jpg	0	0	0	91.3686577912886	91.4186369699892	0.0499791787005961
143099	50	386	0	0	stereo	1549	77	1	stimuli\stereo\stereo_06s.jpg	5	-1	1	0	stereo_06s.jpg	0	0	0	91.4686573524959	91.5186377501814	0.0499803976854309
143199	50	387	0	0	rake	1281	78	1	stimuli\rake\rake_11s.jpg	10	-1	1	0	rake_11s.jpg	0	0	0	91.5686605707742	91.6186434065457	0.049982835771516
143299	50	388	0	0	notebook	1064	79	1	stimuli\notebook\notebook_07s.jpg	6	-1	1	0	notebook_07s.jpg	0	0	0	91.6686479414348	91.7186332152924	0.049985273857601
143399	50	389	0	0	modem	1011	80	1	stimuli\modem\modem_05s.jpg	4	-1	1	0	modem_05s.jpg	0	0	0	91.7686660320032	91.8186364335706	0.049970401567407
143499	50	390	0	0	scarecrow	1376	81	1	stimuli\scarecrow\scarecrow_11s.jpg	10	-1	1	0	scarecrow_11s.jpg	0	0	0	91.8686914369464	91.9186496480834	0.0499582111369818
143599	50	391	0	0	walrus	1779	82	1	stimuli\walrus\walrus_05s.jpg	4	-1	1	0	walrus_05s.jpg	0	0	0	91.9686705181375	92.0186533540254	0.0499828358879313
143699	50	392	0	0	stew	1551	83	1	stimuli\stew\stew_12s.jpg	11	-1	1	1	stew_12s.jpg	0	0	0	92.0686739801895	92.1186495018192	0.0499755216296762
143799	50	393	0	0	zucchini	1853	84	1	stimuli\zucchini\zucchini_03s.jpg	2	-1	1	0	zucchini_03s.jpg	0	0	0	92.1686481852084	92.2186298019951	0.0499816167866811
143899	50	394	0	0	garbage_truck	656	85	1	stimuli\garbage_truck\garbage_truck_07s.jpg	6	-1	1	0	garbage_truck_07s.jpg	0	0	0	92.2686562796589	92.3186342393747	0.0499779597157612
143999	50	395	0	0	torso	1685	86	1	stimuli\torso\torso_05s.jpg	4	-1	1	0	torso_05s.jpg	0	0	0	92.3686512084678	92.4186340442393	0.049982835771516
144099	50	396	0	0	banana_peel	64	87	1	stimuli\banana_peel\banana_peel_12s.jpg	11	-1	1	0	banana_peel_12s.jpg	0	0	0	92.4686880724039	92.5186631063698	0.0499750339658931
144199	50	397	0	0	watch	1786	88	1	stimuli\watch\watch_06s.jpg	5	-1	1	0	watch_06s.jpg	1	0.555125259445049	1	92.5686861707363	92.6186665684218	0.0499803976854309
144299	50	398	0	0	prune	1244	89	1	stimuli\prune\prune_02s.jpg	1	-1	1	0	prune_02s.jpg	0	0	0	92.6686903642258	92.7186614972306	0.049971133004874
144399	50	399	0	0	basketball_hoop	84	90	1	stimuli\basketball_hoop\basketball_hoop_09s.jpg	8	-1	1	0	basketball_hoop_09s.jpg	0	0	0	92.7686952891527	92.8186830012128	0.0499877120601013
144499	50	400	0	0	screen2	1389	91	1	stimuli\screen2\screen2_10s.jpg	9	-1	1	0	screen2_10s.jpg	0	0	0	92.8686955816811	92.9186793927802	0.0499838110990822
144599	50	401	0	0	yolk	1850	92	1	stimuli\yolk\yolk_02s.jpg	1	-1	1	0	yolk_02s.jpg	0	0	0	92.968698312412	93.0186662758933	0.0499679634813219
144699	50	402	0	0	fence	575	93	1	stimuli\fence\fence_11s.jpg	10	-1	1	0	fence_11s.jpg	0	0	0	93.0686983611668	93.1186794902897	0.049981129122898
144799	50	403	0	0	pie	1168	94	1	stimuli\pie\pie_09s.jpg	8	-1	1	0	pie_09s.jpg	0	0	0	93.1687027984299	93.2186861219816	0.0499833235517144
144899	50	404	0	0	gumball	725	95	1	stimuli\gumball\gumball_10s.jpg	9	-1	1	0	gumball_10s.jpg	0	0	0	93.2687099176692	93.3186883649323	0.0499784472631291
144999	50	405	0	0	footprint	632	96	1	stimuli\footprint\footprint_01b.jpg	0	-1	1	0	footprint_01b.jpg	0	0	0	93.3687087474391	93.4186862194911	0.0499774720519781
145099	50	406	0	0	roof_rack	1329	97	1	stimuli\roof_rack\roof_rack_01b.jpg	0	-1	1	0	roof_rack_01b.jpg	0	0	0	93.4687092838576	93.518689681543	0.0499803976854309
145199	50	407	0	0	periscope	1155	98	1	stimuli\periscope\periscope_10s.jpg	9	-1	1	0	periscope_10s.jpg	0	0	0	93.5687122582458	93.6186914369464	0.0499791787005961
145299	50	408	0	0	artichoke	39	99	1	stimuli\artichoke\artichoke_02s.jpg	1	-1	1	0	artichoke_02s.jpg	0	0	0	93.6687137698755	93.718694411451	0.0499806415755302
145399	50	409	0	0	rim	1312	100	1	stimuli\rim\rim_02s.jpg	1	-1	1	0	rim_02s.jpg	0	0	0	93.7687208891148	93.8187027496751	0.049981860560365
145499	50	410	0	0	snowman	1482	101	1	stimuli\snowman\snowman_06s.jpg	5	-1	1	0	snowman_06s.jpg	0	0	0	93.8687197188847	93.9187013356714	0.0499816167866811
145599	50	411	0	0	ink	829	102	1	stimuli\ink\ink_08s.jpg	7	-1	1	0	ink_08s.jpg	0	0	0	93.968722937163	94.018689681543	0.0499667443800718
145699	50	412	0	0	limousine	931	103	1	stimuli\limousine\limousine_09s.jpg	8	-1	1	0	limousine_09s.jpg	0	0	0	94.0687037250027	94.1186790027423	0.049975277739577
145799	50	413	0	0	tiger	1659	104	1	stimuli\tiger\tiger_05s.jpg	4	-1	1	0	tiger_05s.jpg	0	0	0	94.1686996290227	94.2187134285923	0.0500137995695695
145899	50	414	0	0	backscratcher	50	105	1	stimuli\backscratcher\backscratcher_01b.jpg	0	-1	1	0	backscratcher_01b.jpg	0	0	0	94.2687355176313	94.3187090887222	0.049973571090959
145999	50	415	0	0	eel	545	106	1	stimuli\eel\eel_07s.jpg	6	-1	1	0	eel_07s.jpg	0	0	0	94.3687180122361	94.4186974347103	0.04997942247428
146099	50	416	0	0	dice	486	107	1	stimuli\dice\dice_06s.jpg	5	-1	1	0	dice_06s.jpg	0	0	0	94.4687343961559	94.5187152815051	0.0499808853492141
146199	50	417	0	0	cauliflower	288	108	1	stimuli\cauliflower\cauliflower_04s.jpg	3	-1	1	0	cauliflower_04s.jpg	0	0	0	94.5687385896454	94.6187182560097	0.0499796663643792
146299	50	418	0	0	batter	96	109	1	stimuli\batter\batter_09s.jpg	8	-1	1	0	batter_09s.jpg	0	0	0	94.6687388822902	94.7187063581077	0.0499674758175388
146399	50	419	0	0	tick	1656	110	1	stimuli\tick\tick_09s.jpg	8	-1	1	0	tick_09s.jpg	0	0	0	94.7687172320439	94.8186949478695	0.049977715825662
146499	50	420	0	0	star_fruit	1540	111	1	stimuli\star_fruit\star_fruit_07s.jpg	6	-1	1	0	star_fruit_07s.jpg	0	0	0	94.8687150864862	94.918699141359	0.0499840548727661
146599	50	421	0	0	wood	1833	112	1	stimuli\wood\wood_01b.jpg	0	-1	1	0	wood_01b.jpg	0	0	0	94.9687217180617	95.0187018719735	0.049980153911747
146699	50	422	0	0	tree	1708	113	1	stimuli\tree\tree_11s.jpg	10	-1	1	0	tree_11s.jpg	0	0	0	95.0687251801137	95.118700945517	0.0499757654033601
146799	50	423	0	0	razor	1290	114	1	stimuli\razor\razor_05s.jpg	4	-1	1	0	razor_05s.jpg	0	0	0	95.1687242536573	95.2187056266703	0.0499813730129972
146900	50	424	0	0	paint	1096	115	1	stimuli\paint\paint_01b.jpg	0	-1	1	0	paint_01b.jpg	0	0	0	95.2687330795452	95.3187083572848	0.049975277739577
146999	50	425	0	0	water_bottle	1787	116	1	stimuli\water_bottle\water_bottle_09s.jpg	8	-1	1	0	water_bottle_09s.jpg	0	0	0	95.3687326407526	95.4187110880157	0.0499784472631291
147100	50	426	0	0	rickshaw	1310	117	1	stimuli\rickshaw\rickshaw_02s.jpg	1	-1	1	0	rickshaw_02s.jpg	0	0	0	95.4687365904683	95.5187145500677	0.0499779595993459
147200	50	427	0	0	t-shirt	1606	118	1	stimuli\t-shirt\t-shirt_05s.jpg	4	-1	1	0	t-shirt_05s.jpg	0	0	0	95.5687366392231	95.6187158179237	0.0499791787005961
147300	50	428	0	0	stir_fry	1557	119	1	stimuli\stir_fry\stir_fry_05s.jpg	4	-1	1	0	stir_fry_05s.jpg	0	0	0	95.6687376631889	95.7187163542258	0.049978691036813
147400	50	429	0	0	seed	1401	120	1	stimuli\seed\seed_09s.jpg	8	-1	1	0	seed_09s.jpg	0	0	0	95.7688050032593	95.8187502925284	0.0499452892690897
147500	50	430	0	0	copier	405	121	1	stimuli\copier\copier_02s.jpg	1	-1	1	0	copier_02s.jpg	0	0	0	95.8687704311451	95.9187342498917	0.0499638187466189
147600	50	431	0	0	cordon_bleu	408	122	1	stimuli\cordon_bleu\cordon_bleu_06s.jpg	5	-1	1	0	cordon_bleu_06s.jpg	0	0	0	95.9687509752112	96.0187355176313	0.0499845424201339
147700	50	432	0	0	margarita	973	123	1	stimuli\margarita\margarita_11s.jpg	10	-1	1	0	margarita_11s.jpg	0	0	0	96.0687563878018	96.1187475130428	0.049991125240922
147800	50	433	0	0	dryer	524	124	1	stimuli\dryer\dryer_05s.jpg	4	-1	1	0	dryer_05s.jpg	0	0	0	96.1687615565024	96.2187585332431	0.0499969767406583
147900	50	434	0	0	clove	365	125	1	stimuli\clove\clove_09s.jpg	8	-1	1	0	clove_09s.jpg	0	0	0	96.2687820852734	96.3187593134353	0.0499772281618789
148000	50	435	0	0	turf	1732	126	1	stimuli\turf\turf_05s.jpg	4	-1	1	0	turf_05s.jpg	0	0	0	96.3687848158879	96.4187466840958	0.0499618682079017
148100	50	436	0	0	manhole	967	127	1	stimuli\manhole\manhole_07n.jpg	6	-1	1	0	manhole_07n.jpg	0	0	0	96.4687863275176	96.5187689195154	0.0499825919978321
148200	50	437	0	0	padlock	1095	128	1	stimuli\padlock\padlock_08s.jpg	7	-1	1	0	padlock_08s.jpg	0	0	0	96.5687878391473	96.6187682368327	0.0499803976854309
148300	50	438	0	0	bark	74	129	1	stimuli\bark\bark_07s.jpg	6	-1	1	0	bark_07s.jpg	0	0	0	96.6687934955116	96.7187751122983	0.0499816167866811
148400	50	439	0	0	clover	366	130	1	stimuli\clover\clover_02s.jpg	1	-1	1	0	clover_02s.jpg	0	0	0	96.7687981766649	96.818772722967	0.04997454630211
148500	50	440	0	0	curling_iron	463	131	1	stimuli\curling_iron\curling_iron_12s.jpg	11	-1	1	0	curling_iron_12s.jpg	0	0	0	96.8687967625447	96.9187761850189	0.04997942247428
148600	50	441	0	0	engine	557	132	1	stimuli\engine\engine_06s.jpg	5	-1	1	0	engine_06s.jpg	0	0	0	96.9687977865105	97.0187796471873	0.0499818606767803
148700	50	442	0	0	grater	708	133	1	stimuli\grater\grater_12s.jpg	11	-1	1	0	grater_12s.jpg	0	0	0	97.0688031991012	97.1187882291852	0.0499850300839171
148800	50	443	0	0	panda	1105	134	1	stimuli\panda\panda_07s.jpg	6	-1	1	0	panda_07s.jpg	0	0	0	97.1688061736058	97.2187853523064	0.0499791787005961
148900	50	444	0	0	tupperware	1729	135	1	stimuli\tupperware\tupperware_08s.jpg	7	-1	1	0	tupperware_08s.jpg	0	0	0	97.2688052471494	97.3187873514835	0.0499821043340489
149000	50	445	0	0	motherboard	1024	136	1	stimuli\motherboard\motherboard_04s.jpg	3	-1	1	0	motherboard_04s.jpg	0	0	0	97.3688072463265	97.4187861812534	0.0499789349269122
149100	50	446	0	0	ticktacktoe	1657	137	1	stimuli\ticktacktoe\ticktacktoe_10s.jpg	9	-1	1	0	ticktacktoe_10s.jpg	0	0	0	97.4688111960422	97.5187940319302	0.0499828358879313
149200	50	447	0	0	chihuahua	326	138	1	stimuli\chihuahua\chihuahua_02s.jpg	1	-1	1	0	chihuahua_02s.jpg	0	0	0	97.5688141705468	97.6187982254196	0.0499840548727661
149300	50	448	0	0	hotdog	805	139	1	stimuli\hotdog\hotdog_05s.jpg	4	-1	1	0	hotdog_05s.jpg	0	0	0	97.668816413614	97.7187780380482	0.0499616244342178
149400	50	449	0	0	cufflink	458	140	1	stimuli\cufflink\cufflink_02s.jpg	1	-1	1	0	cufflink_02s.jpg	0	0	0	97.768803052837	97.8187839381862	0.0499808853492141
149500	50	450	0	0	umbrella	1743	141	1	stimuli\umbrella\umbrella_02s.jpg	1	-1	1	0	umbrella_02s.jpg	0	0	0	97.8688048082404	97.918782524066	0.049977715825662
149600	50	451	0	0	jar	840	142	1	stimuli\jar\jar_12s.jpg	11	-1	1	0	jar_12s.jpg	0	0	0	97.9688099770574	98.0187862300081	0.0499762529507279
149700	50	452	0	0	hook2	794	143	1	stimuli\hook2\hook2_07s.jpg	6	-1	1	0	hook2_07s.jpg	0	0	0	98.0688063686248	98.1187889606226	0.0499825919978321
149800	50	453	0	0	cape	266	144	1	stimuli\cape\cape_10s.jpg	9	-1	1	0	cape_10s.jpg	0	0	0	98.1688083679182	98.2187914474634	0.0499830795451999
149900	50	454	0	0	slug	1472	145	1	stimuli\slug\slug_08s.jpg	7	-1	1	0	slug_08s.jpg	0	0	0	98.2688432813156	98.3187953971792	0.0499521158635616
150000	50	455	0	0	tongs	1674	146	1	stimuli\tongs\tongs_09s.jpg	8	-1	1	0	tongs_09s.jpg	0	0	0	98.368833577726	98.4188086116919	0.0499750339658931
150100	50	456	0	0	cooler	403	147	1	stimuli\cooler\cooler_06s.jpg	5	-1	1	0	cooler_06s.jpg	0	0	0	98.4688360645669	98.5188179252436	0.0499818606767803
150200	50	457	0	0	sling	1466	148	1	stimuli\sling\sling_04s.jpg	3	-1	1	0	sling_04s.jpg	0	0	0	98.5688212410314	98.6188172425609	0.0499960015295073
150300	50	458	0	0	almond	13	149	1	stimuli\almond\almond_09s.jpg	8	-1	1	0	almond_09s.jpg	0	0	0	98.6688273849431	98.7188187541906	0.0499913692474365
150400	50	459	0	0	hearse	771	150	1	stimuli\hearse\hearse_04s.jpg	3	-1	1	0	hearse_04s.jpg	0	0	0	98.768841574667	98.8188241666649	0.0499825919978321
150500	50	460	0	0	patty	1126	151	1	stimuli\patty\patty_12s.jpg	11	-1	1	0	patty_12s.jpg	0	0	0	98.8688464995939	98.9188156821765	0.0499691825825721
150600	50	461	0	0	photograph	1164	152	1	stimuli\photograph\photograph_05s.jpg	4	-1	1	0	photograph_05s.jpg	0	0	0	98.9688453293638	99.0188323099865	0.0499869806226343
150700	50	462	0	0	router	1336	153	1	stimuli\router\router_02s.jpg	1	-1	1	0	router_02s.jpg	0	0	0	99.0688526923768	99.1188162672333	0.0499635748565197
150800	50	463	0	0	mousetrap	1029	154	1	stimuli\mousetrap\mousetrap_10n.jpg	9	-1	1	0	mousetrap_10n.jpg	0	0	0	99.1688398192637	99.2188375274418	0.0499977081781253
150900	50	464	0	0	grape	702	155	1	stimuli\grape\grape_04s.jpg	3	-1	1	0	grape_04s.jpg	0	0	0	99.2688552279724	99.3188361133216	0.0499808853492141
151000	50	465	0	0	lumber	949	156	1	stimuli\lumber\lumber_03s.jpg	2	-1	1	0	lumber_03s.jpg	0	0	0	99.3688611282269	99.4188288478181	0.0499677195912227
151100	50	466	0	0	wheelbarrow	1807	157	1	stimuli\wheelbarrow\wheelbarrow_12s.jpg	11	-1	1	0	wheelbarrow_12s.jpg	0	0	0	99.4688465483487	99.5188235328533	0.0499769845046103
151200	50	467	0	0	rosary	1333	158	1	stimuli\rosary\rosary_03s.jpg	2	-1	1	0	rosary_03s.jpg	0	0	0	99.568846109556	99.6188274824526	0.0499813728965819
151300	50	468	0	0	costume	419	159	1	stimuli\costume\costume_02s.jpg	1	-1	1	0	costume_02s.jpg	0	0	0	99.668862737366	99.7188336264808	0.0499708891147748
151400	50	469	0	0	brooch	202	160	1	stimuli\brooch\brooch_02s.jpg	1	-1	1	0	brooch_02s.jpg	0	0	0	99.7688527898863	99.8188217285788	0.0499689386924729
151500	50	470	0	0	train_set	1700	161	1	stimuli\train_set\train_set_05s.jpg	4	-1	1	0	train_set_05s.jpg	0	0	0	99.8688552767271	99.9188634686871	0.0500081919599324
151600	50	471	0	0	candelabra	252	162	1	stimuli\candelabra\candelabra_01b.jpg	0	-1	1	0	candelabra_01b.jpg	0	0	0	99.9688589826692	100.018843037542	0.0499840548727661
151700	50	472	0	0	tractor	1695	163	1	stimuli\tractor\tractor_05n.jpg	4	-1	1	0	tractor_05n.jpg	0	0	0	100.06885854376	100.118838210125	0.0499796663643792
151800	50	473	0	0	dogfood	496	164	1	stimuli\dogfood\dogfood_06s.jpg	5	-1	1	0	dogfood_06s.jpg	0	0	0	100.168887362001	100.218857763568	0.049970401567407
151900	50	474	0	0	horseshoe	799	165	1	stimuli\horseshoe\horseshoe_12s.jpg	11	-1	1	0	horseshoe_12s.jpg	0	0	0	100.268882534583	100.318865614245	0.0499830796616152
152000	50	475	0	0	spring_roll	1521	166	1	stimuli\spring_roll\spring_roll_08s.jpg	7	-1	1	0	spring_roll_08s.jpg	0	0	0	100.368882583338	100.418865662999	0.0499830796616152
152100	50	476	0	0	fork	634	167	1	stimuli\fork\fork_08s.jpg	7	-1	1	0	fork_08s.jpg	0	0	0	100.468886533054	100.518869125168	0.0499825921142474
152200	50	477	0	0	pajamas	1099	168	1	stimuli\pajamas\pajamas_12s.jpg	11	-1	1	0	pajamas_12s.jpg	0	0	0	100.568887313246	100.618869173923	0.0499818606767803
152300	50	478	0	0	skunk	1459	169	1	stimuli\skunk\skunk_09s.jpg	8	-1	1	0	skunk_09s.jpg	0	0	0	100.668871270609	100.718872148311	0.0500008777016774
152400	50	479	0	0	dynamite	536	170	1	stimuli\dynamite\dynamite_09s.jpg	8	-1	1	0	dynamite_09s.jpg	0	0	0	100.768892043154	100.818873172393	0.0499811292393133
152500	50	480	0	0	applesauce	32	171	1	stimuli\applesauce\applesauce_11s.jpg	10	-1	1	0	applesauce_11s.jpg	0	0	0	100.868895749096	100.918864200125	0.0499684510286897
152600	50	481	0	0	grenade	713	172	1	stimuli\grenade\grenade_03s.jpg	2	-1	1	0	grenade_03s.jpg	0	0	0	100.968887995929	101.018863029894	0.0499750339658931
152700	50	482	0	0	mud	1033	173	1	stimuli\mud\mud_12s.jpg	11	-1	1	0	mud_12s.jpg	0	0	0	101.068886581808	101.118865272962	0.0499786911532283
152800	50	483	0	0	boot	169	174	1	stimuli\boot\boot_03s.jpg	2	-1	1	0	boot_03s.jpg	0	0	0	101.168910767767	101.218885070295	0.0499743025284261
152900	50	484	0	0	barrel	76	175	1	stimuli\barrel\barrel_08s.jpg	7	-1	1	0	barrel_08s.jpg	0	0	0	101.268892287044	101.318890238996	0.0499979519518092
153000	50	485	0	0	squirt_gun	1530	176	1	stimuli\squirt_gun\squirt_gun_12s.jpg	11	-1	1	0	squirt_gun_12s.jpg	0	0	0	101.368906720541	101.418870295398	0.0499635748565197
153100	50	486	0	0	granite	700	177	1	stimuli\granite\granite_06s.jpg	5	-1	1	0	granite_06s.jpg	0	0	0	101.468896529288	101.518877414637	0.0499808853492141
153200	50	487	0	0	payphone	1127	178	1	stimuli\payphone\payphone_04s.jpg	3	-1	1	0	payphone_04s.jpg	0	0	0	101.568893896183	101.618874050095	0.049980153911747
153300	50	488	0	0	thermostat	1648	179	1	stimuli\thermostat\thermostat_09s.jpg	8	-1	1	0	thermostat_09s.jpg	0	0	0	101.668926859158	101.718897260725	0.049970401567407
153400	50	489	0	0	slot_machine	1470	180	1	stimuli\slot_machine\slot_machine_07s.jpg	6	-1	1	0	slot_machine_07s.jpg	0	0	0	101.76892105653	101.81890023523	0.0499791787005961
153500	50	490	0	0	microphone	998	181	1	stimuli\microphone\microphone_07s.jpg	6	-1	1	0	microphone_07s.jpg	0	0	0	101.868905989104	101.918890775414	0.0499847863102332
153600	50	491	0	0	balance_beam	58	182	1	stimuli\balance_beam\balance_beam_10s.jpg	9	-1	1	0	balance_beam_10s.jpg	0	0	0	101.968910182593	102.018907646998	0.0499974644044414
153700	50	492	0	0	crowbar	447	183	1	stimuli\crowbar\crowbar_03s.jpg	2	-1	1	0	crowbar_03s.jpg	0	0	0	102.068929004599	102.1189081833	0.0499791787005961
153800	50	493	0	0	snail	1476	184	1	stimuli\snail\snail_09s.jpg	8	-1	1	0	snail_09s.jpg	0	0	0	102.168902478181	102.218893847428	0.0499913692474365
153900	50	494	0	0	kneepad	878	185	1	stimuli\kneepad\kneepad_09s.jpg	8	-1	1	0	kneepad_09s.jpg	0	0	0	102.26891544892	102.318881949526	0.0499665006063879
154000	50	495	0	0	swab	1590	186	1	stimuli\swab\swab_04s.jpg	3	-1	1	0	swab_04s.jpg	0	0	0	102.368915010011	102.418920276337	0.0500052663264796
154100	50	496	0	0	cleaver	354	187	1	stimuli\cleaver\cleaver_09s.jpg	8	-1	1	0	cleaver_09s.jpg	0	0	0	102.468935782555	102.518916667905	0.0499808853492141
154200	50	497	0	0	owl	1091	188	1	stimuli\owl\owl_09s.jpg	8	-1	1	0	owl_09s.jpg	0	0	0	102.568937294185	102.618917448097	0.049980153911747
154300	50	498	0	0	goggles	686	189	1	stimuli\goggles\goggles_01b.jpg	0	-1	1	0	goggles_01b.jpg	0	0	0	102.668942462886	102.718922860688	0.0499803978018463
154400	50	499	0	0	sweater	1592	190	1	stimuli\sweater\sweater_02s.jpg	1	-1	1	0	sweater_02s.jpg	0	0	0	102.768942755531	102.818927541841	0.0499847863102332
154500	50	500	0	0	man	963	191	1	stimuli\man\man_07s.jpg	6	-1	1	0	man_07s.jpg	0	0	0	102.86894402327	102.918926127721	0.0499821044504642
154600	50	501	0	0	champagne	304	192	1	stimuli\champagne\champagne_03s.jpg	2	-1	1	0	champagne_03s.jpg	0	0	0	102.968948948197	103.01890959742	0.0499606492230669
154700	50	502	0	0	net	1057	193	1	stimuli\net\net_04s.jpg	3	-1	1	0	net_04s.jpg	0	0	0	103.068938269396	103.118906964315	0.049968694918789
154800	50	503	0	0	spaghetti	1503	194	1	stimuli\spaghetti\spaghetti_06s.jpg	5	-1	1	0	spaghetti_06s.jpg	0	0	0	103.168941731448	103.218942365376	0.0500006339279935
154900	50	504	0	0	latte	901	195	1	stimuli\latte\latte_10s.jpg	9	-1	1	0	latte_10s.jpg	0	0	0	103.268939098343	103.31892364088	0.0499845425365493
155000	50	505	0	0	mitten	1008	196	1	stimuli\mitten\mitten_02s.jpg	1	-1	1	0	mitten_02s.jpg	0	0	0	103.368965234724	103.418918813462	0.0499535787384957
155100	50	506	0	0	pinwheel	1185	197	1	stimuli\pinwheel\pinwheel_07s.jpg	6	-1	1	0	pinwheel_07s.jpg	0	0	0	103.468948216876	103.518925445038	0.0499772281618789
155200	50	507	0	0	bow3	176	198	1	stimuli\bow3\bow3_01b.jpg	0	-1	1	0	bow3_01b.jpg	0	0	0	103.568951191264	103.618918910972	0.049967719707638
155300	50	508	0	0	crystal1	453	199	1	stimuli\crystal1\crystal1_04s.jpg	3	-1	1	0	crystal1_04s.jpg	0	0	0	103.668972451473	103.718946754001	0.0499743025284261
155400	50	509	0	0	laser_pointer	899	200	1	stimuli\laser_pointer\laser_pointer_07s.jpg	6	-1	1	0	laser_pointer_07s.jpg	0	0	0	103.768940561218	103.81891803327	0.0499774720519781
155500	50	510	0	0	orange	1078	201	1	stimuli\orange\orange_08s.jpg	7	-1	1	0	orange_08s.jpg	0	0	0	103.868954263278	103.918936855276	0.0499825919978321
155600	50	511	0	0	pendulum	1144	202	1	stimuli\pendulum\pendulum_08s.jpg	7	-1	1	0	pendulum_08s.jpg	0	0	0	103.968960894854	104.018940804992	0.0499799101380631
155700	50	512	0	0	firecracker	594	203	1	stimuli\firecracker\firecracker_11s.jpg	10	-1	1	0	firecracker_11s.jpg	0	0	0	104.06895948085	104.118939634762	0.049980153911747
155800	50	513	0	0	pepper2	1150	204	1	stimuli\pepper2\pepper2_08s.jpg	7	-1	1	0	pepper2_08s.jpg	0	0	0	104.168980009505	104.218943096814	0.0499630873091519
155900	50	514	0	0	ribbon	1308	205	1	stimuli\ribbon\ribbon_08s.jpg	7	-1	1	0	ribbon_08s.jpg	0	0	0	104.268980545923	104.318961675046	0.049981129122898
156000	50	515	0	0	chisel	336	206	1	stimuli\chisel\chisel_12s.jpg	11	-1	1	0	chisel_12s.jpg	0	0	0	104.368983764201	104.418965868652	0.0499821044504642
156100	50	516	0	0	octopus	1070	207	1	stimuli\octopus\octopus_03s.jpg	2	-1	1	0	octopus_03s.jpg	0	0	0	104.468987713917	104.518952264101	0.049964550184086
156200	50	517	0	0	spur	1525	208	1	stimuli\spur\spur_01b.jpg	0	-1	1	0	spur_01b.jpg	0	0	0	104.568988737883	104.618969135685	0.0499803978018463
156300	50	518	0	0	zebra	1851	209	1	stimuli\zebra\zebra_05s.jpg	4	-1	1	0	zebra_05s.jpg	0	0	0	104.668993175263	104.71897576726	0.0499825919978321
156400	50	519	0	0	duck	525	210	1	stimuli\duck\duck_09s.jpg	8	-1	1	0	duck_09s.jpg	0	0	0	104.768994686892	104.818957530311	0.0499628434190527
156500	50	520	0	0	sunglasses	1585	211	1	stimuli\sunglasses\sunglasses_10s.jpg	9	-1	1	0	sunglasses_10s.jpg	0	0	0	104.868994247983	104.918977815309	0.0499835673253983
156600	50	521	0	0	hip	780	212	1	stimuli\hip\hip_06s.jpg	5	-1	1	0	hip_06s.jpg	0	0	0	104.968999660574	105.018962260219	0.0499625996453688
156700	50	522	0	0	puffin	1248	213	1	stimuli\puffin\puffin_02s.jpg	1	-1	1	0	puffin_02s.jpg	0	0	0	105.068999709329	105.11898547085	0.0499857615213841
156800	50	523	0	0	cow	426	214	1	stimuli\cow\cow_04s.jpg	3	-1	1	0	cow_04s.jpg	0	0	0	105.169003415271	105.218986007269	0.0499825919978321
156900	50	524	0	0	flyswatter	623	215	1	stimuli\flyswatter\flyswatter_11s.jpg	10	-1	1	0	flyswatter_11s.jpg	0	0	0	105.269005414448	105.318985568359	0.049980153911747
157000	50	525	0	0	caviar	289	216	1	stimuli\caviar\caviar_06s.jpg	5	-1	1	0	caviar_06s.jpg	0	0	0	105.369009364164	105.418969525723	0.0499601615592837
157100	50	526	0	0	paper_towel	1115	217	1	stimuli\paper_towel\paper_towel_03s.jpg	2	-1	1	0	paper_towel_03s.jpg	0	0	0	105.468995759613	105.518965673517	0.0499699139036238
157200	50	527	0	0	oilcan	1073	218	1	stimuli\oilcan\oilcan_06s.jpg	5	-1	1	0	oilcan_06s.jpg	0	0	0	105.568998977891	105.618978644256	0.0499796663643792
157300	50	528	0	0	eraser	559	219	1	stimuli\eraser\eraser_09s.jpg	8	-1	1	0	eraser_09s.jpg	0	0	0	105.669027796132	105.718998929136	0.049971133004874
157400	50	529	0	0	sticker	1553	220	1	stimuli\sticker\sticker_12s.jpg	11	-1	1	0	sticker_12s.jpg	0	0	0	105.769018092542	105.818999465555	0.0499813730129972
157500	50	530	0	0	mop	1019	221	1	stimuli\mop\mop_10s.jpg	9	-1	1	0	mop_10s.jpg	0	0	0	105.869019360398	105.918985129567	0.0499657691689208
157600	50	531	0	0	corkscrew	411	222	1	stimuli\corkscrew\corkscrew_01b.jpg	0	-1	1	0	corkscrew_01b.jpg	0	0	0	105.969024529099	106.01901029062	0.0499857615213841
157700	50	532	0	0	javelin	841	223	1	stimuli\javelin\javelin_09s.jpg	8	-1	1	0	javelin_09s.jpg	0	0	0	106.069023114978	106.119004000328	0.0499808853492141
157800	50	533	0	0	paintbrush	1097	224	1	stimuli\paintbrush\paintbrush_02s.jpg	1	-1	1	0	paintbrush_02s.jpg	0	0	0	106.169024626608	106.219013557653	0.0499889310449362
157900	50	534	0	0	cable	234	225	1	stimuli\cable\cable_01b.jpg	0	-1	1	0	cable_01b.jpg	0	0	0	106.269030770636	106.319008730236	0.0499779595993459
158000	50	535	0	0	mousse	1030	226	1	stimuli\mousse\mousse_02s.jpg	1	-1	1	0	mousse_02s.jpg	0	0	0	106.369030819391	106.419011217076	0.0499803976854309
158100	50	536	0	0	airplane	10	227	1	stimuli\airplane\airplane_06n.jpg	5	-1	1	0	airplane_06n.jpg	0	0	0	106.469034281443	106.519013947807	0.0499796663643792
158200	50	537	0	0	pretzel	1239	228	1	stimuli\pretzel\pretzel_07s.jpg	6	-1	1	0	pretzel_07s.jpg	0	0	0	106.569033354986	106.619014484109	0.049981129122898
158300	50	538	0	0	heater	772	229	1	stimuli\heater\heater_11s.jpg	10	-1	1	0	heater_11s.jpg	0	0	0	106.669041449437	106.719021359575	0.0499799101380631
158400	50	539	0	0	bagpipe	56	230	1	stimuli\bagpipe\bagpipe_04s.jpg	3	-1	1	0	bagpipe_04s.jpg	0	0	0	106.769038328668	106.819022383541	0.0499840548727661
158500	50	540	0	0	palm_tree	1102	231	1	stimuli\palm_tree\palm_tree_06s.jpg	5	-1	1	0	palm_tree_06s.jpg	0	0	0	106.869042766048	106.91902950278	0.0499867367325351
158600	50	541	0	0	bathrobe	90	232	1	stimuli\bathrobe\bathrobe_02s.jpg	1	-1	1	0	bathrobe_02s.jpg	0	0	0	106.969051591936	107.0190254068	0.0499738148646429
158700	50	542	0	0	nest	1056	233	1	stimuli\nest\nest_02s.jpg	1	-1	1	0	nest_02s.jpg	0	0	0	107.069032379775	107.119013021351	0.0499806415755302
158800	50	543	0	0	wafer	1769	234	1	stimuli\wafer\wafer_08s.jpg	7	-1	1	0	wafer_08s.jpg	0	0	0	107.169042180874	107.219016483403	0.0499743025284261
158900	50	544	0	0	paper_plate	1114	235	1	stimuli\paper_plate\paper_plate_03s.jpg	2	-1	1	0	paper_plate_03s.jpg	0	0	0	107.269036622019	107.319017995032	0.0499813730129972
159000	50	545	0	0	peppermint	1152	236	1	stimuli\peppermint\peppermint_01b.jpg	0	-1	1	0	peppermint_01b.jpg	0	0	0	107.369038133649	107.4190202381	0.0499821044504642
159100	50	546	0	0	camper	249	237	1	stimuli\camper\camper_12s.jpg	11	-1	1	0	camper_12s.jpg	0	0	0	107.469038426178	107.519001757377	0.0499633311992511
159200	50	547	0	0	teapot	1634	238	1	stimuli\teapot\teapot_11s.jpg	10	-1	1	0	teapot_11s.jpg	0	0	0	107.569067732082	107.619045935571	0.0499782034894451
159300	50	548	0	0	braid	190	239	1	stimuli\braid\braid_08s.jpg	7	-1	1	0	braid_08s.jpg	0	0	0	107.669071681798	107.719024041435	0.0499523596372455
159400	50	549	0	0	christmas_tree	341	240	1	stimuli\christmas_tree\christmas_tree_06s.jpg	5	-1	1	0	christmas_tree_06s.jpg	0	0	0	107.769051981973	107.819031160674	0.0499791787005961
159500	50	550	0	0	bison	134	241	1	stimuli\bison\bison_04n.jpg	3	-1	1	0	bison_04n.jpg	0	0	0	107.869051543181	107.919036085601	0.0499845424201339
159600	50	551	0	0	wire_cutters	1829	242	1	stimuli\wire_cutters\wire_cutters_07s.jpg	6	-1	1	0	wire_cutters_07s.jpg	0	0	0	107.969057443319	108.019034915371	0.0499774720519781
159700	50	552	0	0	lobster	939	243	1	stimuli\lobster\lobster_04s.jpg	3	-1	1	0	lobster_04s.jpg	0	0	0	108.069063343573	108.119041059399	0.049977715825662
159800	50	553	0	0	slipper	1468	244	1	stimuli\slipper\slipper_01b.jpg	0	-1	1	0	slipper_01b.jpg	0	0	0	108.169063392328	108.219070609077	0.0500072167487815
159900	50	554	0	0	incubator	827	245	1	stimuli\incubator\incubator_09s.jpg	8	-1	1	0	incubator_09s.jpg	0	0	0	108.26908489631	108.319044813979	0.0499599176691845
160000	50	555	0	0	tadpole	1614	246	1	stimuli\tadpole\tadpole_11s.jpg	10	-1	1	0	tadpole_11s.jpg	0	0	0	108.369082750753	108.419065586524	0.049982835771516
160100	50	556	0	0	videogame	1762	247	1	stimuli\videogame\videogame_06s.jpg	5	-1	1	0	videogame_06s.jpg	0	0	0	108.469063294819	108.51904881245	0.0499855176312849
160200	50	557	0	0	stirrup	1558	248	1	stimuli\stirrup\stirrup_02s.jpg	1	-1	1	1	stirrup_02s.jpg	0	0	0	108.569070901605	108.619054956478	0.0499840548727661
160300	50	558	0	0	mixer	1009	249	1	stimuli\mixer\mixer_01b.jpg	0	-1	1	0	mixer_01b.jpg	0	0	0	108.669077045633	108.719056468108	0.04997942247428
160400	50	559	0	0	tomato_sauce	1673	250	1	stimuli\tomato_sauce\tomato_sauce_08s.jpg	7	-1	1	0	tomato_sauce_08s.jpg	0	0	0	108.769079288701	108.819060417823	0.049981129122898
160500	50	560	0	0	gorilla	695	251	1	stimuli\gorilla\gorilla_03s.jpg	2	-1	1	0	gorilla_03s.jpg	0	0	0	108.869082263089	108.919059491367	0.0499772282782942
160600	50	561	0	0	ladybug	888	252	1	stimuli\ladybug\ladybug_05s.jpg	4	-1	1	0	ladybug_05s.jpg	0	0	0	108.969082311844	109.019062465755	0.049980153911747
160700	50	562	0	0	marker	975	253	1	stimuli\marker\marker_12s.jpg	11	-1	1	0	marker_12s.jpg	1	0.49217957619112	1	109.069085286348	109.119064952713	0.0499796663643792
160800	50	563	0	0	olive	1075	254	1	stimuli\olive\olive_02s.jpg	1	-1	1	0	olive_02s.jpg	0	0	0	109.169087773189	109.21906695189	0.0499791787005961
160900	50	564	0	0	funnel	649	255	1	stimuli\funnel\funnel_10s.jpg	9	-1	1	0	funnel_10s.jpg	0	0	0	109.26909026003	109.319068707293	0.0499784472631291
161000	50	565	0	0	bunkbed	222	256	1	stimuli\bunkbed\bunkbed_11s.jpg	10	-1	1	0	bunkbed_11s.jpg	0	0	0	109.369090308785	109.4190945999	0.0500042911153287
161100	50	566	0	0	compass	392	257	1	stimuli\compass\compass_05s.jpg	4	-1	1	0	compass_05s.jpg	0	0	0	109.469111812767	109.519077338162	0.0499655253952369
161200	50	567	0	0	van	1752	258	1	stimuli\van\van_08s.jpg	7	-1	1	0	van_08s.jpg	0	0	0	109.569114055834	109.619095184957	0.049981129122898
161300	50	568	0	0	rabbit	1265	259	1	stimuli\rabbit\rabbit_03s.jpg	2	-1	1	0	rabbit_03s.jpg	0	0	0	109.669116542675	109.719074022374	0.0499574796995148
161400	50	569	0	0	walker2	1774	260	1	stimuli\walker2\walker2_11s.jpg	10	-1	1	0	walker2_11s.jpg	0	0	0	109.769101475249	109.81908089784	0.0499794225906953
161500	50	570	0	0	dumpling	532	261	1	stimuli\dumpling\dumpling_04s.jpg	3	-1	1	0	dumpling_04s.jpg	0	0	0	109.869103718316	109.91911800555	0.0500142872333527
161600	50	571	0	0	stove1	1563	262	1	stimuli\stove1\stove1_06s.jpg	5	-1	1	0	stove1_06s.jpg	0	0	0	109.969103035633	110.019088553381	0.0499855177477002
161700	50	572	0	0	baby	46	263	1	stimuli\baby\baby_11s.jpg	10	-1	1	0	baby_11s.jpg	0	0	0	110.069115518709	110.119096160284	0.0499806415755302
161800	50	573	0	0	barbell	72	264	1	stimuli\barbell\barbell_11s.jpg	10	-1	1	0	barbell_11s.jpg	0	0	0	110.169112885604	110.219081824296	0.0499689386924729
161900	50	574	0	0	contact_lens	397	265	1	stimuli\contact_lens\contact_lens_05s.jpg	4	-1	1	0	contact_lens_05s.jpg	0	0	0	110.269111715257	110.319081873051	0.049970157793723
162000	50	575	0	0	chessboard	318	266	1	stimuli\chessboard\chessboard_11s.jpg	10	-1	1	0	chessboard_11s.jpg	0	0	0	110.369117371622	110.419132634066	0.0500152624445036
162100	50	576	0	0	curtain	465	267	1	stimuli\curtain\curtain_04s.jpg	3	-1	1	0	curtain_04s.jpg	0	0	0	110.46913838794	110.519117322867	0.0499789349269122
162200	50	577	0	0	ant	24	268	1	stimuli\ant\ant_11s.jpg	10	-1	1	0	ant_11s.jpg	0	0	0	110.569140631007	110.619114445988	0.0499738149810582
162300	50	578	0	0	fig	581	269	1	stimuli\fig\fig_04s.jpg	3	-1	1	0	fig_04s.jpg	0	0	0	110.669140923652	110.719123271876	0.0499823482241482
162400	50	579	0	0	garter	659	270	1	stimuli\garter\garter_07s.jpg	6	-1	1	0	garter_07s.jpg	0	0	0	110.769145360915	110.819124052068	0.0499786911532283
162500	50	580	0	0	gun	727	271	1	stimuli\gun\gun_02s.jpg	1	-1	1	0	gun_02s.jpg	0	0	0	110.869134682114	110.919130927417	0.0499962453031912
162600	50	581	0	0	dollhouse	500	272	1	stimuli\dollhouse\dollhouse_04s.jpg	3	-1	1	0	dollhouse_04s.jpg	0	0	0	110.969155698433	111.019130732398	0.0499750339658931
162700	50	582	0	0	rack2	1269	273	1	stimuli\rack2\rack2_07s.jpg	6	-1	1	0	rack2_07s.jpg	0	0	0	111.069153552875	111.119131512591	0.0499779597157612
162800	50	583	0	0	mosquito_net	1021	274	1	stimuli\mosquito_net\mosquito_net_07s.jpg	6	-1	1	0	mosquito_net_07s.jpg	0	0	0	111.169154333067	111.219135218533	0.0499808854656294
162900	50	584	0	0	bull	214	275	1	stimuli\bull\bull_04s.jpg	3	-1	1	0	bull_04s.jpg	0	0	0	111.269154869486	111.319122345303	0.0499674758175388
163000	50	585	0	0	stiletto	1554	276	1	stimuli\stiletto\stiletto_10s.jpg	9	-1	1	0	stiletto_10s.jpg	0	0	0	111.369159062975	111.419138729339	0.0499796663643792
163100	50	586	0	0	pizza	1192	277	1	stimuli\pizza\pizza_06s.jpg	5	-1	1	0	pizza_06s.jpg	0	0	0	111.469161549816	111.519142191391	0.0499806415755302
163200	50	587	0	0	can_opener	251	278	1	stimuli\can_opener\can_opener_01b.jpg	0	-1	1	0	can_opener_01b.jpg	0	0	0	111.569165743422	111.619133219239	0.0499674758175388
163300	50	588	0	0	nacho	1045	279	1	stimuli\nacho\nacho_01b.jpg	0	-1	1	0	nacho_01b.jpg	0	0	0	111.669167498825	111.719146677526	0.0499791787005961
163400	50	589	0	0	solar_panel	1493	280	1	stimuli\solar_panel\solar_panel_06s.jpg	5	-1	1	0	solar_panel_06s.jpg	0	0	0	111.769167791354	111.819135023397	0.0499672320438549
163500	50	590	0	0	coop	404	281	1	stimuli\coop\coop_03s.jpg	2	-1	1	0	coop_03s.jpg	0	0	0	111.869151748717	111.919157015043	0.0500052663264796
163600	50	591	0	0	ottoman	1086	282	1	stimuli\ottoman\ottoman_07s.jpg	6	-1	1	0	ottoman_07s.jpg	0	0	0	111.969176178449	112.019154381822	0.0499782033730298
163700	50	592	0	0	landmine	894	283	1	stimuli\landmine\landmine_02s.jpg	1	-1	1	0	landmine_02s.jpg	0	0	0	112.069161842461	112.119171984959	0.0500101424986497
163800	50	593	0	0	backdrop	47	284	1	stimuli\backdrop\backdrop_09s.jpg	8	-1	1	0	backdrop_09s.jpg	0	0	0	112.169182615005	112.219163988018	0.0499813730129972
163900	50	594	0	0	headset	769	285	1	stimuli\headset\headset_09s.jpg	8	-1	1	0	headset_09s.jpg	0	0	0	112.269184126635	112.319164280547	0.049980153911747
164000	50	595	0	0	jersey	846	286	1	stimuli\jersey\jersey_04s.jpg	3	-1	1	0	jersey_04s.jpg	0	0	0	112.369197097258	112.419140435988	0.0499433387303725
164100	50	596	0	0	ostrich	1084	287	1	stimuli\ostrich\ostrich_08s.jpg	7	-1	1	0	ostrich_08s.jpg	0	0	0	112.469191294629	112.51917047333	0.0499791787005961
164200	50	597	0	0	chili	327	288	1	stimuli\chili\chili_03s.jpg	2	-1	1	0	chili_03s.jpg	0	0	0	112.569179884274	112.619152967818	0.0499730835435912
164300	50	598	0	0	ring	1313	289	1	stimuli\ring\ring_06s.jpg	5	-1	1	0	ring_06s.jpg	0	0	0	112.669191148249	112.719181054621	0.0499899063725024
164400	50	599	0	0	corset	418	290	1	stimuli\corset\corset_04s.jpg	3	-1	1	0	corset_04s.jpg	0	0	0	112.769194854191	112.819177446188	0.0499825919978321
164500	50	600	0	0	pacifier	1093	291	1	stimuli\pacifier\pacifier_04s.jpg	3	-1	1	0	pacifier_04s.jpg	0	0	0	112.869200266781	112.919180176919	0.0499799101380631
164600	50	601	0	0	satellite_dish	1361	292	1	stimuli\satellite_dish\satellite_dish_06s.jpg	5	-1	1	0	satellite_dish_06s.jpg	0	0	0	112.969201290747	113.019183151308	0.049981860560365
164700	50	602	0	0	wrap	1837	293	1	stimuli\wrap\wrap_02s.jpg	1	-1	1	0	wrap_02s.jpg	0	0	0	113.069204021478	113.119165889686	0.0499618682079017
164800	50	603	0	0	croissant	442	294	1	stimuli\croissant\croissant_07s.jpg	6	-1	1	0	croissant_07s.jpg	0	0	0	113.169215772999	113.219185687019	0.0499699140200391
164900	50	604	0	0	papaya	1111	295	1	stimuli\papaya\papaya_07s.jpg	6	-1	1	0	papaya_07s.jpg	0	0	0	113.269206800847	113.319186954759	0.049980153911747
165000	50	605	0	0	pliers	1201	296	1	stimuli\pliers\pliers_12s.jpg	11	-1	1	0	pliers_12s.jpg	0	0	0	113.369192708633	113.419172374997	0.0499796663643792
165100	50	606	0	0	stroller	1574	297	1	stimuli\stroller\stroller_07s.jpg	6	-1	1	0	stroller_07s.jpg	0	0	0	113.469196170801	113.519181688549	0.0499855177477002
165200	50	607	0	0	deer	476	298	1	stimuli\deer\deer_02s.jpg	1	-1	1	0	deer_02s.jpg	0	0	0	113.569200120517	113.619180518202	0.0499803976854309
165300	50	608	0	0	gravy	711	299	1	stimuli\gravy\gravy_05s.jpg	4	-1	1	0	gravy_05s.jpg	0	0	0	113.669231620617	113.719196414575	0.0499647939577699
165400	50	609	0	0	coat_rack	370	300	1	stimuli\coat_rack\coat_rack_06s.jpg	5	-1	1	0	coat_rack_06s.jpg	0	0	0	113.76922386745	113.819202314713	0.0499784472631291
165500	50	610	0	0	fruitcake	646	301	1	stimuli\fruitcake\fruitcake_10s.jpg	9	-1	1	0	fruitcake_10s.jpg	0	0	0	113.869224647642	113.919205045444	0.0499803978018463
165600	50	611	0	0	potpourri	1235	302	1	stimuli\potpourri\potpourri_09s.jpg	8	-1	1	0	potpourri_09s.jpg	0	0	0	113.969225915498	114.019205337972	0.04997942247428
165700	50	612	0	0	sleeping_bag	1462	303	1	stimuli\sleeping_bag\sleeping_bag_03s.jpg	2	-1	1	0	sleeping_bag_03s.jpg	0	0	0	114.069231571862	114.119212213438	0.0499806415755302
165800	50	613	0	0	container	398	304	1	stimuli\container\container_11s.jpg	10	-1	1	0	container_11s.jpg	0	0	0	114.169231376844	114.219212018419	0.0499806415755302
165900	50	614	0	0	crow	446	305	1	stimuli\crow\crow_02s.jpg	1	-1	1	0	crow_02s.jpg	0	0	0	114.269233619911	114.319212067174	0.0499784472631291
166000	50	615	0	0	printer	1240	306	1	stimuli\printer\printer_07s.jpg	6	-1	1	0	printer_07s.jpg	0	0	0	114.369237569626	114.419215041562	0.0499774719355628
166100	50	616	0	0	breathalyzer	198	307	1	stimuli\breathalyzer\breathalyzer_03s.jpg	2	-1	1	0	breathalyzer_03s.jpg	0	0	0	114.469238837366	114.51921850373	0.0499796663643792
166200	50	617	0	0	cardinal	274	308	1	stimuli\cardinal\cardinal_07s.jpg	6	-1	1	0	cardinal_07s.jpg	0	0	0	114.569242055644	114.619210262899	0.0499682072550058
174984	50	618	0	0	dishrag	490	0	2	stimuli\dishrag\dishrag_08s.jpg	7	-1	2	0	dishrag_08s.jpg	0	0	0	123.352777035441	123.402751581743	0.04997454630211
175083	50	619	0	0	card	271	1	2	stimuli\card\card_07s.jpg	6	-1	2	0	card_07s.jpg	0	0	0	123.452796832775	123.50277747435	0.0499806415755302
175183	50	620	0	0	bowtie	180	2	2	stimuli\bowtie\bowtie_02s.jpg	1	-1	2	0	bowtie_02s.jpg	0	0	0	123.552798588178	123.60277898598	0.0499803978018463
175284	50	621	0	0	dumbwaiter	531	3	2	stimuli\dumbwaiter\dumbwaiter_08s.jpg	7	-1	2	0	dumbwaiter_08s.jpg	0	0	0	123.652805219754	123.702786592767	0.0499813730129972
175384	50	622	0	0	shoe_polish	1424	4	2	stimuli\shoe_polish\shoe_polish_10s.jpg	9	-1	2	0	shoe_polish_10s.jpg	0	0	0	123.752804780961	123.80278859206	0.0499838110990822
175484	50	623	0	0	power_line	1237	5	2	stimuli\power_line\power_line_01b.jpg	0	-1	2	0	power_line_01b.jpg	0	0	0	123.852810681099	123.902764503611	0.0499538225121796
175583	50	624	0	0	lamb_chop	890	6	2	stimuli\lamb_chop\lamb_chop_03s.jpg	2	-1	2	0	lamb_chop_03s.jpg	0	0	0	123.95277757186	124.002758700983	0.049981129122898
175683	50	625	0	0	sausage	1365	7	2	stimuli\sausage\sausage_01b.jpg	0	-1	2	0	sausage_01b.jpg	0	0	0	124.052781033912	124.10276362591	0.0499825919978321
175784	50	626	0	0	paper	1112	8	2	stimuli\paper\paper_08s.jpg	7	-1	2	0	paper_08s.jpg	0	0	0	124.152793760761	124.2027690385	0.049975277739577
175884	50	627	0	0	tarp	1628	9	2	stimuli\tarp\tarp_09s.jpg	8	-1	2	0	tarp_09s.jpg	0	0	0	124.252791859093	124.302802245365	0.0500103862723336
175984	50	628	0	0	sock	1489	10	2	stimuli\sock\sock_08s.jpg	7	-1	2	0	sock_08s.jpg	0	0	0	124.352819458232	124.402783764643	0.0499643064104021
176084	50	629	0	0	icicle	824	11	2	stimuli\icicle\icicle_08s.jpg	7	-1	2	0	icicle_08s.jpg	0	0	0	124.45279829565	124.502775036264	0.0499767406145111
176184	50	630	0	0	suspenders	1589	12	2	stimuli\suspenders\suspenders_02s.jpg	1	-1	2	0	suspenders_02s.jpg	0	0	0	124.552798344404	124.602779229754	0.0499808853492141
176284	50	631	0	0	breadstick	196	13	2	stimuli\breadstick\breadstick_04s.jpg	3	-1	2	0	breadstick_04s.jpg	0	0	0	124.652829600731	124.702809510869	0.0499799101380631
176384	50	632	0	0	rocking_horse	1322	14	2	stimuli\rocking_horse\rocking_horse_01s.jpg	0	-1	2	0	rocking_horse_01s.jpg	0	0	0	124.752830380923	124.802783228224	0.0499528473010287
176484	50	633	0	0	pickle	1167	15	2	stimuli\pickle\pickle_01b.jpg	0	-1	2	0	pickle_01b.jpg	0	0	0	124.852805073489	124.902787421714	0.0499823482241482
176584	50	634	0	0	surfboard	1587	16	2	stimuli\surfboard\surfboard_10s.jpg	9	-1	2	0	surfboard_10s.jpg	0	0	0	124.952808535658	125.002787958132	0.04997942247428
176684	50	635	0	0	ham	739	17	2	stimuli\ham\ham_08s.jpg	7	-1	2	0	ham_08s.jpg	0	0	0	125.052812241483	125.102792151622	0.0499799101380631
176784	50	636	0	0	shower	1433	18	2	stimuli\shower\shower_10s.jpg	9	-1	2	0	shower_10s.jpg	0	0	0	125.152813265449	125.2027953699	0.0499821044504642
176884	50	637	0	0	muffin	1035	19	2	stimuli\muffin\muffin_12n.jpg	11	-1	2	0	muffin_12n.jpg	0	0	0	125.252818434266	125.302798100631	0.0499796663643792
176984	50	638	0	0	grapefruit	703	20	2	stimuli\grapefruit\grapefruit_02s.jpg	1	-1	2	0	grapefruit_02s.jpg	0	0	0	125.35282018967	125.402801806456	0.0499816167866811
177084	50	639	0	0	screw	1390	21	2	stimuli\screw\screw_09s.jpg	8	-1	2	0	screw_09s.jpg	0	0	0	125.452820238424	125.502802099101	0.0499818606767803
177184	50	640	0	0	collar	387	22	2	stimuli\collar\collar_08s.jpg	7	-1	2	0	collar_08s.jpg	0	0	0	125.552846374805	125.602836037287	0.0499896624824032
177284	50	641	0	0	blouse	144	23	2	stimuli\blouse\blouse_09s.jpg	8	-1	2	0	blouse_09s.jpg	0	0	0	125.652853250271	125.70283413562	0.0499808853492141
177384	50	642	0	0	sugar_cube	1579	24	2	stimuli\sugar_cube\sugar_cube_08s.jpg	7	-1	2	0	sugar_cube_08s.jpg	0	0	0	125.752853542799	125.802834184375	0.0499806415755302
177484	50	643	0	0	bulletin_board	217	25	2	stimuli\bulletin_board\bulletin_board_07s.jpg	6	-1	2	0	bulletin_board_07s.jpg	0	0	0	125.852852860116	125.902834233129	0.0499813730129972
177584	50	644	0	0	backpack	49	26	2	stimuli\backpack\backpack_10s.jpg	9	-1	2	0	backpack_10s.jpg	0	0	0	125.952855590731	126.002840377041	0.0499847863102332
177684	50	645	0	0	scaffold	1369	27	2	stimuli\scaffold\scaffold_04s.jpg	3	-1	2	0	scaffold_04s.jpg	0	0	0	126.052858809009	126.102842132561	0.0499833235517144
177784	50	646	0	0	peach	1129	28	2	stimuli\peach\peach_09n.jpg	8	-1	2	0	peach_09n.jpg	0	0	0	126.152861783514	126.202840962214	0.0499791787005961
177884	50	647	0	0	necklace	1054	29	2	stimuli\necklace\necklace_03s.jpg	2	-1	2	0	necklace_03s.jpg	0	0	0	126.252862076159	126.302852713852	0.0499906376935542
177984	50	648	0	0	scuba	1392	30	2	stimuli\scuba\scuba_12s.jpg	11	-1	2	0	scuba_12s.jpg	0	0	0	126.352865781984	126.402847154997	0.0499813730129972
178084	50	649	0	0	mattress	985	31	2	stimuli\mattress\mattress_11s.jpg	10	-1	2	0	mattress_11s.jpg	0	0	0	126.452865830739	126.502847691416	0.0499818606767803
178184	50	650	0	0	chair	300	32	2	stimuli\chair\chair_11s.jpg	10	-1	2	0	chair_11s.jpg	0	0	0	126.5528807519	126.60285602964	0.049975277739577
178284	50	651	0	0	shutter	1440	33	2	stimuli\shutter\shutter_10s.jpg	9	-1	2	0	shutter_10s.jpg	0	0	0	126.652856419678	126.70282852801	0.0499721083324403
178384	50	652	0	0	coffee	377	34	2	stimuli\coffee\coffee_02s.jpg	1	-1	2	0	coffee_02s.jpg	0	0	0	126.752849154174	126.802832965273	0.0499838110990822
178484	50	653	0	0	cactus	235	35	2	stimuli\cactus\cactus_02s.jpg	1	-1	2	0	cactus_02s.jpg	0	0	0	126.852882848703	126.902862758725	0.0499799100216478
178584	50	654	0	0	tamale	1618	36	2	stimuli\tamale\tamale_11s.jpg	10	-1	2	0	tamale_11s.jpg	0	0	0	126.952884360217	127.002865001792	0.0499806415755302
