onset	duration	eventnumber	blocksequencenumber	isteststim	object	objectnumber	presentationnumber	sequencenumber	stim	stimnumber	teststimnumber	withinsequencenumber	istarget	stimname	response	rt	correct	time_stimon	time_stimoff	stimdur
37970	50	0	0	0	windowsill	1819	0	0	stimuli\windowsill\windowsill_09s.jpg	8	-1	0	0	windowsill_09s.jpg	1	0	0	175.852868041024	175.902848255821	0.0499802147969604
38070	50	1	0	0	bok_choy	156	1	0	stimuli\bok_choy\bok_choy_12s.jpg	11	-1	0	0	bok_choy_12s.jpg	0	0	0	175.952880645636	176.002850620542	0.0499699749052525
38170	50	2	0	0	ice_cube	819	2	0	stimuli\ice_cube\ice_cube_05s.jpg	4	-1	0	0	ice_cube_05s.jpg	0	0	0	176.052871064283	176.10285127908	0.0499802147969604
38270	50	3	0	0	basil	81	3	0	stimuli\basil\basil_10s.jpg	9	-1	0	0	basil_10s.jpg	0	0	0	176.152858069167	176.20282975072	0.0499716815538704
38370	50	4	0	0	pocket	1205	4	0	stimuli\pocket\pocket_09s.jpg	8	-1	0	0	pocket_09s.jpg	0	0	0	176.252853119746	176.302832846995	0.0499797272495925
38470	50	5	0	0	pliers	1201	5	0	stimuli\pliers\pliers_09s.jpg	8	-1	0	0	pliers_09s.jpg	0	0	0	176.352853777818	176.403470335528	0.0506165577098727
38570	50	6	0	0	vial	1760	6	0	stimuli\vial\vial_01s.jpg	0	-1	0	0	vial_01s.jpg	0	0	0	176.452856874559	176.502840746194	0.0499838716350496
38670	50	7	0	0	wind_chimes	1817	7	0	stimuli\wind_chimes\wind_chimes_03s.jpg	2	-1	0	0	wind_chimes_03s.jpg	0	0	0	176.552861189935	176.602841648273	0.0499804583378136
38770	50	8	0	0	cymbal	468	8	0	stimuli\cymbal\cymbal_01b.jpg	0	-1	0	0	cymbal_01b.jpg	0	0	0	176.652862823568	176.702844988555	0.0499821649864316
38870	50	9	0	0	reel	1299	9	0	stimuli\reel\reel_01b.jpg	0	-1	0	0	reel_01b.jpg	0	0	0	176.752863969188	176.802845890634	0.0499819214455783
38970	50	10	0	0	nest	1056	10	0	stimuli\nest\nest_08s.jpg	7	-1	0	0	nest_08s.jpg	0	0	0	176.852867797017	176.902847768273	0.0499799712561071
39070	50	11	0	0	checkers	311	11	0	stimuli\checkers\checkers_10s.jpg	9	-1	0	0	checkers_10s.jpg	0	0	0	176.952871868853	177.002854521852	0.0499826529994607
39170	50	12	0	0	plaster_cast	1195	12	0	stimuli\plaster_cast\plaster_cast_07s.jpg	6	-1	0	0	plaster_cast_07s.jpg	0	0	0	177.052875208668	177.102855911478	0.0499807028099895
39270	50	13	0	0	pallet	1101	13	0	stimuli\pallet\pallet_02s.jpg	1	-1	0	0	pallet_02s.jpg	0	0	0	177.15287659876	177.202858763747	0.0499821649864316
39370	50	14	0	0	tent	1643	14	0	stimuli\tent\tent_04s.jpg	3	-1	0	0	tent_04s.jpg	0	0	0	177.25288067013	177.302861372475	0.0499807023443282
39470	50	15	0	0	banana_split	65	15	0	stimuli\banana_split\banana_split_07s.jpg	6	-1	0	0	banana_split_07s.jpg	0	0	0	177.352880840655	177.402861543465	0.0499807028099895
39570	50	16	0	0	bamboo	62	16	0	stimuli\bamboo\bamboo_06s.jpg	5	-1	0	0	bamboo_06s.jpg	0	0	0	177.452883937396	177.502865614835	0.0499816774390638
39670	50	17	0	0	blinder	141	17	0	stimuli\blinder\blinder_10s.jpg	9	-1	0	0	blinder_10s.jpg	0	0	0	177.552888984326	177.602870174218	0.049981189891696
39770	50	18	0	0	swordfish	1603	18	0	stimuli\swordfish\swordfish_08s.jpg	7	-1	0	0	swordfish_08s.jpg	0	0	0	177.652891836595	177.702868882101	0.0499770455062389
39870	50	19	0	0	garbage	655	19	0	stimuli\garbage\garbage_09s.jpg	8	-1	0	0	garbage_09s.jpg	0	0	0	177.752896151971	177.802877098322	0.0499809463508427
39970	50	20	0	0	recliner	1294	20	0	stimuli\recliner\recliner_12s.jpg	11	-1	0	0	recliner_12s.jpg	0	0	0	177.852894859854	177.902874587104	0.0499797272495925
40070	50	21	0	0	totem_pole	1689	21	0	stimuli\totem_pole\totem_pole_05s.jpg	4	-1	0	0	totem_pole_05s.jpg	0	0	0	177.952896981034	178.002880365588	0.0499833845533431
40170	50	22	0	0	bee	111	22	0	stimuli\bee\bee_01b.jpg	0	-1	0	0	bee_01b.jpg	0	0	0	178.05290105287	178.102886387613	0.0499853347428143
40270	50	23	0	0	tulip	1726	23	0	stimuli\tulip\tulip_09s.jpg	8	-1	0	0	tulip_09s.jpg	0	0	0	178.152903661598	178.202882900834	0.0499792392365634
40370	50	24	0	0	banana	63	24	0	stimuli\banana\banana_10s.jpg	9	-1	0	0	banana_10s.jpg	0	0	0	178.252909927163	178.302890385967	0.0499804588034749
40470	50	25	0	0	carrot	277	25	0	stimuli\carrot\carrot_09s.jpg	8	-1	0	0	carrot_09s.jpg	0	0	0	178.352909122594	178.402890068945	0.0499809463508427
40570	50	26	0	0	pasta	1123	26	0	stimuli\pasta\pasta_04s.jpg	3	-1	0	0	pasta_04s.jpg	0	0	0	178.452912219334	178.502895115875	0.049982896540314
40670	50	27	0	0	fishnet_stockings	604	27	0	stimuli\fishnet_stockings\fishnet_stockings_10s.jpg	9	-1	0	0	fishnet_stockings_10s.jpg	0	0	0	178.552913121413	178.602891629562	0.0499785081483424
40770	50	28	0	0	orangutan	1080	28	0	stimuli\orangutan\orangutan_10s.jpg	9	-1	0	0	orangutan_10s.jpg	0	0	0	178.652915973682	178.702907891478	0.049991917796433
40870	50	29	0	0	giraffe	675	29	0	stimuli\giraffe\giraffe_06s.jpg	5	-1	0	0	giraffe_06s.jpg	0	0	0	178.752918094862	178.802901722956	0.0499836280941963
40970	50	30	0	0	sled	1460	30	0	stimuli\sled\sled_01b.jpg	0	-1	0	0	sled_01b.jpg	0	0	0	178.852922166698	178.902902137488	0.0499799707904458
41070	50	31	0	0	stool	1561	31	0	stimuli\stool\stool_06s.jpg	5	-1	0	0	stool_06s.jpg	0	0	0	178.952923068777	179.002905965317	0.049982896540314
41170	50	32	0	0	braid	190	32	0	stimuli\braid\braid_11s.jpg	10	-1	0	0	braid_11s.jpg	0	0	0	179.052926165052	179.102908330504	0.0499821654520929
41270	50	33	0	0	hyena	815	33	0	stimuli\hyena\hyena_10s.jpg	9	-1	0	0	hyena_10s.jpg	0	0	0	179.152929992881	179.202913377434	0.0499833845533431
41370	50	34	0	0	silicone	1444	34	0	stimuli\silicone\silicone_10s.jpg	9	-1	0	0	silicone_10s.jpg	0	0	0	179.252931138966	179.302918423899	0.0499872849322855
41470	50	35	0	0	mask	980	35	0	stimuli\mask\mask_09s.jpg	8	-1	0	0	mask_09s.jpg	0	0	0	179.352936429437	179.40291274339	0.0499763139523566
41570	50	36	0	0	hairspray	738	36	0	stimuli\hairspray\hairspray_03s.jpg	2	-1	0	0	hairspray_03s.jpg	0	0	0	179.452937819064	179.502916814759	0.0499789956957102
41670	50	37	0	0	chest1	319	37	0	stimuli\chest1\chest1_06s.jpg	5	-1	0	0	chest1_06s.jpg	0	0	0	179.55294018425	179.602919667494	0.049979483243078
41770	50	38	0	0	manatee	964	38	0	stimuli\manatee\manatee_04s.jpg	3	-1	0	0	manatee_04s.jpg	0	0	0	179.652941573877	179.702921544667	0.0499799707904458
41870	50	39	0	0	machete	953	39	0	stimuli\machete\machete_03s.jpg	2	-1	0	0	machete_03s.jpg	0	0	0	179.752946620807	179.802926348057	0.0499797272495925
41970	50	40	0	0	trampoline	1701	40	0	stimuli\trampoline\trampoline_01b.jpg	0	-1	0	0	trampoline_01b.jpg	0	0	0	179.852948985528	179.902929200325	0.0499802147969604
42070	50	41	0	0	board	152	41	0	stimuli\board\board_06s.jpg	5	-1	0	0	board_06s.jpg	0	0	0	179.952951838262	180.002933515701	0.0499816774390638
42170	50	42	0	0	locker	941	42	0	stimuli\locker\locker_04s.jpg	3	-1	0	0	locker_04s.jpg	0	0	0	180.05295444699	180.102936368436	0.0499819214455783
42270	50	43	0	0	stake	1533	43	0	stimuli\stake\stake_10s.jpg	9	-1	0	0	stake_10s.jpg	0	0	0	180.152957055718	180.202935807873	0.0499787521548569
42370	50	44	0	0	shoelace	1426	44	0	stimuli\shoelace\shoelace_11s.jpg	10	-1	0	0	shoelace_11s.jpg	0	0	0	180.252956982702	180.302941098344	0.0499841156415641
42470	50	45	0	0	paper_plate	1114	45	0	stimuli\paper_plate\paper_plate_01b.jpg	0	-1	0	0	paper_plate_01b.jpg	0	0	0	180.352961785626	180.402942000423	0.0499802147969604
42570	50	46	0	0	rack1	1268	46	0	stimuli\rack1\rack1_07s.jpg	6	-1	0	0	rack1_07s.jpg	0	0	0	180.452965613455	180.502945340704	0.0499797272495925
42670	50	47	0	0	burner	224	47	0	stimuli\burner\burner_02s.jpg	1	-1	0	0	burner_02s.jpg	0	0	0	180.552968466189	180.602947949432	0.049979483243078
42770	50	48	0	0	ladder	886	48	0	stimuli\ladder\ladder_09s.jpg	8	-1	0	0	ladder_09s.jpg	0	0	0	180.652967661619	180.702964699361	0.0499970377422869
42870	50	49	0	0	curling_iron	463	49	0	stimuli\curling_iron\curling_iron_10s.jpg	9	-1	0	0	curling_iron_10s.jpg	0	0	0	180.752972220536	180.802952923346	0.0499807028099895
42970	50	50	0	0	golf_cart	689	50	0	stimuli\golf_cart\golf_cart_03s.jpg	2	-1	0	0	golf_cart_03s.jpg	0	0	0	180.852974098176	180.902954556514	0.0499804583378136
43070	50	51	0	0	mulberry	1037	51	0	stimuli\mulberry\mulberry_03s.jpg	2	-1	0	0	mulberry_03s.jpg	0	0	0	180.952975000255	181.002960334998	0.0499853347428143
43170	50	52	0	0	leech	909	52	0	stimuli\leech\leech_10s.jpg	9	-1	0	1	leech_10s.jpg	0	0	0	181.05297809653	181.102961481083	0.0499833845533431
43270	50	53	0	0	sweeper	1594	53	0	stimuli\sweeper\sweeper_04s.jpg	3	-1	0	0	sweeper_04s.jpg	0	0	0	181.152980461251	181.202962139156	0.0499816779047251
43370	50	54	0	0	slingshot	1467	54	0	stimuli\slingshot\slingshot_10s.jpg	9	-1	0	0	slingshot_10s.jpg	0	0	0	181.252984045539	181.302968405187	0.0499843596480787
43470	50	55	0	0	extinguisher	563	55	0	stimuli\extinguisher\extinguisher_01b.jpg	0	-1	0	0	extinguisher_01b.jpg	0	0	0	181.352989092469	181.402968575712	0.049979483243078
43570	50	56	0	0	cheeseburger	313	56	0	stimuli\cheeseburger\cheeseburger_01b.jpg	0	-1	0	0	cheeseburger_01b.jpg	0	0	0	181.452990969643	181.502973135095	0.0499821654520929
43670	50	57	0	0	bulletproof_vest	218	57	0	stimuli\bulletproof_vest\bulletproof_vest_04s.jpg	3	-1	0	0	bulletproof_vest_04s.jpg	1	0.541915606241673	1	181.552994065918	181.602973793168	0.0499797272495925
43770	50	58	0	0	pom-pom	1218	58	0	stimuli\pom-pom\pom-pom_01b.jpg	0	-1	0	0	pom-pom_01b.jpg	0	0	0	181.652995943557	181.702982253395	0.0499863098375499
43870	50	59	0	0	gumdrop	726	59	0	stimuli\gumdrop\gumdrop_09s.jpg	8	-1	0	0	gumdrop_09s.jpg	0	0	0	181.752996845637	181.802979986183	0.0499831405468285
43970	50	60	0	0	worm	1836	60	0	stimuli\worm\worm_06s.jpg	5	-1	0	0	worm_06s.jpg	0	0	0	181.85300164856	181.902981863357	0.0499802147969604
44070	50	61	0	0	puddle	1247	61	0	stimuli\puddle\puddle_11s.jpg	10	-1	0	0	puddle_11s.jpg	0	0	0	181.953009864781	182.002983009443	0.0499731446616352
44170	50	62	0	0	gold	687	62	0	stimuli\gold\gold_08s.jpg	7	-1	0	0	gold_08s.jpg	0	0	0	182.053010279313	182.102986837272	0.0499765579588711
44270	50	63	0	0	locket	942	63	0	stimuli\locket\locket_11s.jpg	10	-1	0	0	locket_11s.jpg	0	0	0	182.153008743189	182.203012119979	0.050003376789391
44370	50	64	0	0	wasp	1785	64	0	stimuli\wasp\wasp_08s.jpg	7	-1	0	0	wasp_08s.jpg	0	0	0	182.253012815025	182.302992054727	0.0499792397022247
44470	50	65	0	0	insole	831	65	0	stimuli\insole\insole_07s.jpg	6	-1	0	0	insole_07s.jpg	0	0	0	182.353013717104	182.402995882556	0.0499821654520929
44570	50	66	0	0	cocoon	376	66	0	stimuli\cocoon\cocoon_11s.jpg	10	-1	0	0	cocoon_11s.jpg	0	0	0	182.453016081825	182.503005073871	0.0499889920465648
44670	50	67	0	0	holster	786	67	0	stimuli\holster\holster_04s.jpg	3	-1	0	0	holster_04s.jpg	0	0	0	182.553019909654	182.603000856005	0.0499809463508427
44770	50	68	0	0	floss	617	68	0	stimuli\floss\floss_07s.jpg	6	-1	0	0	floss_07s.jpg	0	0	0	182.653023493942	182.703003221191	0.0499797272495925
44870	50	69	0	0	gyro	730	69	0	stimuli\gyro\gyro_09s.jpg	8	-1	0	0	gyro_09s.jpg	0	0	0	182.753026590217	182.803007780109	0.049981189891696
44970	50	70	0	0	sundial	1583	70	0	stimuli\sundial\sundial_10s.jpg	9	-1	0	0	sundial_10s.jpg	0	0	0	182.853029686492	182.903008926194	0.0499792397022247
45070	50	71	0	0	suspenders	1589	71	0	stimuli\suspenders\suspenders_01b.jpg	0	-1	0	0	suspenders_01b.jpg	0	0	0	182.953028150368	183.003009584267	0.0499814338982105
45170	50	72	0	0	corsage	417	72	0	stimuli\corsage\corsage_08s.jpg	7	-1	0	0	corsage_08s.jpg	0	0	0	183.053035147954	183.103012681007	0.0499775330536067
45270	50	73	0	0	trailer	1697	73	0	stimuli\trailer\trailer_04s.jpg	3	-1	0	0	trailer_04s.jpg	0	0	0	183.153035318479	183.203015777282	0.0499804588034749
45370	50	74	0	0	cactus	235	74	0	stimuli\cactus\cactus_04s.jpg	3	-1	0	0	cactus_04s.jpg	0	0	0	183.253044022713	183.30301838601	0.049974363297224
45470	50	75	0	0	plant	1194	75	0	stimuli\plant\plant_01b.jpg	0	-1	0	0	plant_01b.jpg	0	0	0	183.353041999042	183.403020994738	0.0499789956957102
45570	50	76	0	0	doorhandle	508	76	0	stimuli\doorhandle\doorhandle_01b.jpg	0	-1	0	0	doorhandle_01b.jpg	0	0	0	183.453044120222	183.503025066573	0.0499809463508427
45670	50	77	0	0	pug	1249	77	0	stimuli\pug\pug_05s.jpg	4	-1	0	0	pug_05s.jpg	0	0	0	183.553047216497	183.603027918842	0.0499807023443282
45770	50	78	0	0	webcam	1799	78	0	stimuli\webcam\webcam_09s.jpg	8	-1	0	0	webcam_09s.jpg	0	0	0	183.653049581219	183.703027845826	0.0499782646074891
45870	50	79	0	0	skirt	1457	79	0	stimuli\skirt\skirt_10s.jpg	9	-1	0	0	skirt_10s.jpg	0	0	0	183.753052190412	183.803034355398	0.0499821649864316
45970	50	80	0	0	zucchini	1853	80	0	stimuli\zucchini\zucchini_10s.jpg	9	-1	0	0	zucchini_10s.jpg	0	0	0	183.853053823579	183.903037208132	0.0499833845533431
46070	50	81	0	0	scrabble	1385	81	0	stimuli\scrabble\scrabble_07s.jpg	6	-1	0	0	scrabble_07s.jpg	0	0	0	183.953058138955	184.003041035961	0.0499828970059752
46170	50	82	0	0	frisbee	643	82	0	stimuli\frisbee\frisbee_03s.jpg	2	-1	0	0	frisbee_03s.jpg	0	0	0	184.053057822399	184.103041206487	0.0499833840876818
46270	50	83	0	0	birthday_cake	132	83	0	stimuli\birthday_cake\birthday_cake_01b.jpg	0	-1	0	0	birthday_cake_01b.jpg	0	0	0	184.153059699573	184.203040889464	0.049981189891696
46370	50	84	0	0	step_stool	1548	84	0	stimuli\step_stool\step_stool_07s.jpg	6	-1	0	0	step_stool_07s.jpg	0	0	0	184.253065477591	184.303045204841	0.0499797272495925
46470	50	85	0	0	fig	581	85	0	stimuli\fig\fig_11s.jpg	10	-1	0	0	fig_11s.jpg	0	0	0	184.353066867683	184.403048789129	0.0499819214455783
46570	50	86	0	0	tinsel	1662	86	0	stimuli\tinsel\tinsel_01b.jpg	0	-1	0	0	tinsel_01b.jpg	0	0	0	184.453072645701	184.503053104505	0.0499804588034749
46670	50	87	0	0	cake	237	87	0	stimuli\cake\cake_02s.jpg	1	-1	0	0	cake_02s.jpg	0	0	0	184.553072085138	184.603054494131	0.0499824089929461
46770	50	88	0	0	harp	755	88	0	stimuli\harp\harp_10s.jpg	9	-1	0	0	harp_10s.jpg	0	0	0	184.653073718771	184.703070512507	0.0499967937357724
46870	50	89	0	0	penlight	1147	89	0	stimuli\penlight\penlight_07s.jpg	6	-1	0	0	penlight_07s.jpg	0	0	0	184.753078277688	184.803068001289	0.0499897236004472
46970	50	90	0	0	cocktail	374	90	0	stimuli\cocktail\cocktail_11s.jpg	10	-1	0	0	cocktail_11s.jpg	0	0	0	184.853078204673	184.903061101213	0.049982896540314
47070	50	91	0	0	handlebar	749	91	0	stimuli\handlebar\handlebar_07s.jpg	6	-1	0	0	handlebar_07s.jpg	0	0	0	184.953083251603	185.003066148143	0.049982896540314
47170	50	92	0	0	otter	1085	92	0	stimuli\otter\otter_06n.jpg	5	-1	0	0	otter_06n.jpg	0	0	0	185.053098781966	185.103065831121	0.0499670491553843
47270	50	93	0	0	staple_gun	1538	93	0	stimuli\staple_gun\staple_gun_11s.jpg	10	-1	0	0	staple_gun_11s.jpg	0	0	0	185.153087737504	185.203068927862	0.0499811903573573
47370	50	94	0	0	sandcastle	1355	94	0	stimuli\sandcastle\sandcastle_10s.jpg	9	-1	0	0	sandcastle_10s.jpg	0	0	0	185.253092052881	185.303072511684	0.0499804588034749
47470	50	95	0	0	photograph	1164	95	0	stimuli\photograph\photograph_05s.jpg	4	-1	0	0	photograph_05s.jpg	0	0	0	185.353094661608	185.40307365777	0.0499789961613715
47570	50	96	0	0	revolving_door	1305	96	0	stimuli\revolving_door\revolving_door_04s.jpg	3	-1	0	0	revolving_door_04s.jpg	0	0	0	185.453094832599	185.503082117997	0.0499872853979468
47670	50	97	0	0	pizza	1192	97	0	stimuli\pizza\pizza_06s.jpg	5	-1	0	1	pizza_06s.jpg	0	0	0	185.553096709773	185.603080094326	0.0499833845533431
47770	50	98	0	0	trashcan	1704	98	0	stimuli\trashcan\trashcan_08s.jpg	7	-1	0	0	trashcan_08s.jpg	0	0	0	185.653102731798	185.703084165696	0.0499814338982105
47870	50	99	0	0	clasp	351	99	0	stimuli\clasp\clasp_08s.jpg	7	-1	0	0	clasp_08s.jpg	0	0	0	185.753104121424	185.803111887071	0.0500077656470239
47970	50	100	0	0	smoothie	1474	100	0	stimuli\smoothie\smoothie_02s.jpg	1	-1	0	0	smoothie_02s.jpg	1	0.34191063279286	1	185.853108436801	185.903086701408	0.0499782646074891
48070	50	101	0	0	papaya	1111	101	0	stimuli\papaya\papaya_10n.jpg	9	-1	0	0	papaya_10n.jpg	0	0	0	185.953107876237	186.00309004169	0.0499821654520929
48170	50	102	0	0	column	388	102	0	stimuli\column\column_11s.jpg	10	-1	0	0	column_11s.jpg	0	0	0	186.053113166708	186.103094113059	0.0499809463508427
48270	50	103	0	0	bison	134	103	0	stimuli\bison\bison_09s.jpg	8	-1	0	0	bison_09s.jpg	0	0	0	186.153116019443	186.2030972098	0.0499811903573573
48370	50	104	0	0	hourglass	807	104	0	stimuli\hourglass\hourglass_02s.jpg	1	-1	0	0	hourglass_02s.jpg	0	0	0	186.253119359724	186.303098842967	0.049979483243078
48470	50	105	0	0	brussels_sprouts	206	105	0	stimuli\brussels_sprouts\brussels_sprouts_06s.jpg	5	-1	0	0	brussels_sprouts_06s.jpg	0	0	0	186.353120749351	186.403100720607	0.0499799712561071
48570	50	106	0	0	spool	1518	106	0	stimuli\spool\spool_04s.jpg	3	-1	0	0	spool_04s.jpg	0	0	0	186.453124821186	186.503103085328	0.0499782641418278
48670	50	107	0	0	golf_club	690	107	0	stimuli\golf_club\golf_club_08s.jpg	7	-1	0	0	golf_club_08s.jpg	0	0	0	186.553124991711	186.603109838907	0.0499848471954465
48770	50	108	0	0	clipper1	356	108	0	stimuli\clipper1\clipper1_12s.jpg	11	-1	0	0	clipper1_12s.jpg	0	0	0	186.653125649784	186.703108790331	0.0499831405468285
48870	50	109	0	0	pigeon	1171	109	0	stimuli\pigeon\pigeon_03s.jpg	2	-1	0	0	pigeon_03s.jpg	0	0	0	186.753129965626	186.803111887071	0.0499819214455783
48970	50	110	0	0	accordion	2	110	0	stimuli\accordion\accordion_06s.jpg	5	-1	0	0	accordion_06s.jpg	0	0	0	186.853135500103	186.90311278915	0.0499772890470922
49070	50	111	0	0	school_bus	1378	111	0	stimuli\school_bus\school_bus_02s.jpg	1	-1	0	0	school_bus_02s.jpg	0	0	0	186.953134939075	187.003116129432	0.0499811903573573
49170	50	112	0	0	sling	1466	112	0	stimuli\sling\sling_12s.jpg	11	-1	0	0	sling_12s.jpg	0	0	0	187.053144130856	187.103130197152	0.0499860662966967
49270	50	113	0	0	coffee_filter	379	113	0	stimuli\coffee_filter\coffee_filter_07s.jpg	6	-1	0	0	coffee_filter_07s.jpg	0	0	0	187.153142838739	187.203125247732	0.0499824089929461
49370	50	114	0	0	float	616	114	0	stimuli\float\float_01b.jpg	0	-1	0	0	float_01b.jpg	0	0	0	187.253148616757	187.303123711608	0.0499750948511064
49470	50	115	0	0	incubator	827	115	0	stimuli\incubator\incubator_11s.jpg	10	-1	0	0	incubator_11s.jpg	0	0	0	187.353148787282	187.403129733633	0.0499809463508427
49570	50	116	0	0	pillow	1176	116	0	stimuli\pillow\pillow_07s.jpg	6	-1	0	0	pillow_07s.jpg	0	0	0	187.453149201814	187.503129660618	0.0499804588034749
49670	50	117	0	0	sandbag	1353	117	0	stimuli\sandbag\sandbag_09s.jpg	8	-1	0	0	sandbag_09s.jpg	0	0	0	187.553152786102	187.603134951089	0.0499821649864316
49770	50	118	0	0	backdrop	47	118	0	stimuli\backdrop\backdrop_02s.jpg	1	-1	0	0	backdrop_02s.jpg	0	0	0	187.653153931722	187.703136341181	0.0499824094586074
49870	50	119	0	0	nightshirt	1058	119	0	stimuli\nightshirt\nightshirt_12s.jpg	11	-1	0	0	nightshirt_12s.jpg	0	0	0	187.753155809361	187.803139193449	0.0499833840876818
49970	50	120	0	0	rooster	1330	120	0	stimuli\rooster\rooster_02s.jpg	1	-1	0	0	rooster_02s.jpg	0	0	0	187.853164757136	187.903143752832	0.0499789956957102
50070	50	121	0	0	sofa_bed	1492	121	0	stimuli\sofa_bed\sofa_bed_07s.jpg	6	-1	0	0	sofa_bed_07s.jpg	0	0	0	187.953162001912	188.003145874012	0.0499838721007109
50170	50	122	0	0	barbed_wire	71	122	0	stimuli\barbed_wire\barbed_wire_04s.jpg	3	-1	0	0	barbed_wire_04s.jpg	0	0	0	188.053171193693	188.103153602686	0.0499824089929461
50270	50	123	0	0	coop	404	123	0	stimuli\coop\coop_02s.jpg	1	-1	0	0	coop_02s.jpg	0	0	0	188.153169901576	188.203158649616	0.0499887480400503
50370	50	124	0	0	sunroof	1586	124	0	stimuli\sunroof\sunroof_09s.jpg	8	-1	0	0	sunroof_09s.jpg	0	0	0	188.253173972946	188.303153944202	0.0499799712561071
50470	50	125	0	0	desk	480	125	0	stimuli\desk\desk_03s.jpg	2	-1	0	0	desk_03s.jpg	0	0	0	188.353178044781	188.403157284483	0.0499792397022247
50570	50	126	0	0	handle	748	126	0	stimuli\handle\handle_03s.jpg	2	-1	0	0	handle_03s.jpg	0	0	0	188.453179921955	188.50316159986	0.0499816779047251
50670	50	127	0	0	bow2	175	127	0	stimuli\bow2\bow2_01s.jpg	0	-1	0	0	bow2_01s.jpg	0	0	0	188.553181311581	188.603162989486	0.0499816779047251
50770	50	128	0	0	bobsled	155	128	0	stimuli\bobsled\bobsled_09s.jpg	8	-1	0	0	bobsled_09s.jpg	0	0	0	188.653183189221	188.703165841755	0.0499826525337994
50870	50	129	0	0	hot-water_bottle	802	129	0	stimuli\hot-water_bottle\hot-water_bottle_07s.jpg	6	-1	0	0	hot-water_bottle_07s.jpg	0	0	0	188.75318701705	188.803167719394	0.0499807023443282
50970	50	130	0	0	laundry_basket	902	130	0	stimuli\laundry_basket\laundry_basket_05s.jpg	4	-1	0	0	laundry_basket_05s.jpg	0	0	0	188.853190113325	188.903168621473	0.0499785081483424
51070	50	131	0	0	rope	1332	131	0	stimuli\rope\rope_11s.jpg	10	-1	0	0	rope_11s.jpg	0	0	0	188.9531932096	189.003175131045	0.0499819214455783
51170	50	132	0	0	cloud	364	132	0	stimuli\cloud\cloud_05s.jpg	4	-1	0	0	cloud_05s.jpg	0	0	0	189.053196549881	189.103178715333	0.0499821654520929
51270	50	133	0	0	cart	278	133	0	stimuli\cart\cart_01b.jpg	0	-1	0	0	cart_01b.jpg	0	0	0	189.153196720406	189.203178154305	0.0499814338982105
51370	50	134	0	0	stir_fry	1557	134	0	stimuli\stir_fry\stir_fry_09s.jpg	8	-1	0	0	stir_fry_09s.jpg	0	0	0	189.253200792242	189.303182713687	0.0499819214455783
51470	50	135	0	0	hip	780	135	0	stimuli\hip\hip_05s.jpg	4	-1	0	0	hip_05s.jpg	0	0	0	189.35320364451	189.403183859307	0.0499802147969604
51570	50	136	0	0	pantyhose	1110	136	0	stimuli\pantyhose\pantyhose_06s.jpg	5	-1	0	0	pantyhose_06s.jpg	0	0	0	189.453206984792	189.503185005393	0.0499780206009746
51670	50	137	0	0	swing	1598	137	0	stimuli\swing\swing_01b.jpg	0	-1	0	0	swing_01b.jpg	0	0	0	189.553208374418	189.603189320769	0.0499809463508427
51770	50	138	0	0	tooth	1678	138	0	stimuli\tooth\tooth_04s.jpg	3	-1	0	0	tooth_04s.jpg	0	0	0	189.653230487835	189.703191929497	0.0499614416621625
51870	50	139	0	0	fast_food	572	139	0	stimuli\fast_food\fast_food_11s.jpg	10	-1	0	0	fast_food_11s.jpg	0	0	0	189.75321676163	189.80319356313	0.0499768014997244
51970	50	140	0	0	soda	1490	140	0	stimuli\soda\soda_08s.jpg	7	-1	0	0	soda_08s.jpg	0	0	0	189.85321595706	189.903197146952	0.049981189891696
52070	50	141	0	0	vest	1759	141	0	stimuli\vest\vest_03s.jpg	2	-1	0	0	vest_03s.jpg	0	0	0	189.953224173281	190.003201218788	0.0499770455062389
52170	50	142	0	0	wick	1815	142	0	stimuli\wick\wick_06s.jpg	5	-1	0	0	wick_06s.jpg	0	0	0	190.053222393617	190.103202364407	0.0499799707904458
52270	50	143	0	0	heater	772	143	0	stimuli\heater\heater_09s.jpg	8	-1	0	0	heater_09s.jpg	0	0	0	190.153223783243	190.203206436243	0.0499826529994607
52370	50	144	0	0	sifter	1443	144	0	stimuli\sifter\sifter_11s.jpg	10	-1	0	0	sifter_11s.jpg	0	0	0	190.25322614843	190.303207825869	0.0499816774390638
52470	50	145	0	0	chandelier	305	145	0	stimuli\chandelier\chandelier_04s.jpg	3	-1	0	0	chandelier_04s.jpg	0	0	0	190.353231926449	190.403209459502	0.0499775330536067
52570	50	146	0	0	tamale	1618	146	0	stimuli\tamale\tamale_09s.jpg	8	-1	0	0	tamale_09s.jpg	0	0	0	190.453230878338	190.503215725534	0.0499848471954465
52670	50	147	0	0	hole	785	147	0	stimuli\hole\hole_08s.jpg	7	-1	0	0	hole_08s.jpg	0	0	0	190.553235681262	190.603216383606	0.0499807023443282
52770	50	148	0	0	sailboat	1347	148	0	stimuli\sailboat\sailboat_05s.jpg	4	-1	0	1	sailboat_05s.jpg	0	0	0	190.653235120233	190.70321923634	0.0499841161072254
52870	50	149	0	0	fox	638	149	0	stimuli\fox\fox_08s.jpg	7	-1	0	0	fox_08s.jpg	0	0	0	190.753243824467	190.803224770818	0.0499809463508427
52970	50	150	0	0	highchair	777	150	0	stimuli\highchair\highchair_03s.jpg	2	-1	0	0	highchair_03s.jpg	1	0.253354880027473	1	190.853246433195	190.903223478701	0.0499770455062389
53070	50	151	0	0	caramel	270	151	0	stimuli\caramel\caramel_09s.jpg	8	-1	0	0	caramel_09s.jpg	0	0	0	190.953247822821	191.003226574976	0.0499787521548569
53170	50	152	0	0	hinge	779	152	0	stimuli\hinge\hinge_05s.jpg	4	-1	0	0	hinge_05s.jpg	0	0	0	191.053248968907	191.103228939697	0.0499799707904458
53270	50	153	0	0	basketball	83	153	0	stimuli\basketball\basketball_02s.jpg	1	-1	0	0	basketball_02s.jpg	0	0	0	191.153253040276	191.203232767526	0.0499797272495925
53370	50	154	0	0	buoy	223	154	0	stimuli\buoy\buoy_12s.jpg	11	-1	0	0	buoy_12s.jpg	0	0	0	191.253252479713	191.303234157618	0.0499816779047251
53470	50	155	0	0	bed	108	155	0	stimuli\bed\bed_10s.jpg	9	-1	0	0	bed_10s.jpg	0	0	0	191.35325679509	191.403235059697	0.0499782646074891
53570	50	156	0	0	cord	407	156	0	stimuli\cord\cord_08s.jpg	7	-1	0	0	cord_08s.jpg	0	0	0	191.453256965615	191.503237911966	0.0499809463508427
53670	50	157	0	0	camera2	247	157	0	stimuli\camera2\camera2_10s.jpg	9	-1	0	0	camera2_10s.jpg	0	0	0	191.553261524998	191.603242227342	0.0499807023443282
53770	50	158	0	0	hedge	773	158	0	stimuli\hedge\hedge_12s.jpg	11	-1	0	0	hedge_12s.jpg	0	0	0	191.653263646178	191.703245080076	0.0499814338982105
53870	50	159	0	0	towel	1692	159	0	stimuli\towel\towel_08s.jpg	7	-1	0	0	towel_08s.jpg	0	0	0	191.75326723	191.803246713709	0.0499794837087393
53970	50	160	0	0	game	654	160	0	stimuli\game\game_06s.jpg	5	-1	0	0	game_06s.jpg	0	0	0	191.853268863633	191.903255661484	0.049986797850579
54070	50	161	0	0	eyeliner	567	161	0	stimuli\eyeliner\eyeliner_10s.jpg	9	-1	0	0	eyeliner_10s.jpg	0	0	0	191.953271472361	192.003257538658	0.0499860662966967
54170	50	162	0	0	saddle	1343	162	0	stimuli\saddle\saddle_04s.jpg	3	-1	0	0	saddle_04s.jpg	0	0	0	192.053274081089	192.103254295886	0.0499802147969604
54270	50	163	0	0	puppet	1257	163	0	stimuli\puppet\puppet_02s.jpg	1	-1	0	0	puppet_02s.jpg	0	0	0	192.153300583363	192.203257880174	0.0499572968110442
54370	50	164	0	0	snowplow	1484	164	0	stimuli\snowplow\snowplow_11s.jpg	10	-1	0	0	snowplow_11s.jpg	0	0	0	192.253278567456	192.303260488901	0.0499819214455783
54470	50	165	0	0	nacho	1045	165	0	stimuli\nacho\nacho_01b.jpg	0	-1	0	0	nacho_01b.jpg	0	0	0	192.353286052123	192.403265291825	0.0499792397022247
54570	50	166	0	0	fruit	645	166	0	stimuli\fruit\fruit_01b.jpg	0	-1	0	0	fruit_01b.jpg	0	0	0	192.453284028452	192.503265706357	0.0499816779047251
54670	50	167	0	0	bell	116	167	0	stimuli\bell\bell_09n.jpg	8	-1	0	0	bell_09n.jpg	0	0	0	192.553288587835	192.603269290179	0.0499807023443282
54770	50	168	0	0	inkwell	830	168	0	stimuli\inkwell\inkwell_03s.jpg	2	-1	0	0	inkwell_03s.jpg	0	0	0	192.653291196562	192.70327238692	0.0499811903573573
54870	50	169	0	0	door	506	169	0	stimuli\door\door_07s.jpg	6	-1	0	0	door_07s.jpg	0	0	0	192.75329478085	192.803273044992	0.0499782641418278
54970	50	170	0	0	engine	557	170	0	stimuli\engine\engine_11s.jpg	10	-1	0	0	engine_11s.jpg	0	0	0	192.853296658024	192.903279311024	0.0499826529994607
55070	50	171	0	0	horn	797	171	0	stimuli\horn\horn_05s.jpg	4	-1	0	0	horn_05s.jpg	0	0	0	192.953300485853	193.003280213103	0.0499797272495925
55170	50	172	0	0	mole	1014	172	0	stimuli\mole\mole_08s.jpg	7	-1	0	0	mole_08s.jpg	0	0	0	193.053301631473	193.103281115182	0.0499794837087393
55270	50	173	0	0	food_processor	627	173	0	stimuli\food_processor\food_processor_08s.jpg	7	-1	0	0	food_processor_08s.jpg	0	0	0	193.153304484207	193.203283723909	0.0499792397022247
55370	50	174	0	0	fishbowl	601	174	0	stimuli\fishbowl\fishbowl_08s.jpg	7	-1	0	0	fishbowl_08s.jpg	0	0	0	193.253329035826	193.303288526833	0.04995949100703
55470	50	175	0	0	peeler	1138	175	0	stimuli\peeler\peeler_01b.jpg	0	-1	0	0	peeler_01b.jpg	0	0	0	193.353310677223	193.40329089202	0.0499802147969604
55570	50	176	0	0	baton4	95	176	0	stimuli\baton4\baton4_01b.jpg	0	-1	0	0	baton4_01b.jpg	0	0	0	193.453311822843	193.503292281646	0.0499804588034749
55670	50	177	0	0	diving_board	494	177	0	stimuli\diving_board\diving_board_01b.jpg	0	-1	0	0	diving_board_01b.jpg	0	0	0	193.553316625766	193.603295621928	0.0499789961613715
55770	50	178	0	0	air_pump	6	178	0	stimuli\air_pump\air_pump_05s.jpg	4	-1	0	0	air_pump_05s.jpg	0	0	0	193.653337276541	193.703296767548	0.04995949100703
55870	50	179	0	0	quill	1263	179	0	stimuli\quill\quill_08s.jpg	7	-1	0	0	quill_08s.jpg	0	0	0	193.753318186384	193.803301326931	0.0499831405468285
55970	50	180	0	0	gift	672	180	0	stimuli\gift\gift_12s.jpg	11	-1	0	0	gift_12s.jpg	0	0	0	193.853321770206	193.903304910753	0.0499831405468285
56070	50	181	0	0	turtle	1736	181	0	stimuli\turtle\turtle_07s.jpg	6	-1	0	0	turtle_07s.jpg	0	0	0	193.953324135393	194.003306300845	0.0499821654520929
56170	50	182	0	0	hose	800	182	0	stimuli\hose\hose_10s.jpg	9	-1	0	0	hose_10s.jpg	0	0	0	194.053328450769	194.103309640661	0.049981189891696
56270	50	183	0	0	torch	1683	183	0	stimuli\torch\torch_06s.jpg	5	-1	0	0	torch_06s.jpg	0	0	0	194.153330327943	194.203312737402	0.0499824094586074
56370	50	184	0	0	stamp1	1535	184	0	stimuli\stamp1\stamp1_10s.jpg	9	-1	0	0	stamp1_10s.jpg	0	0	0	194.253331717569	194.303313883021	0.0499821654520929
56470	50	185	0	0	tortellini	1686	185	0	stimuli\tortellini\tortellini_03s.jpg	2	-1	0	0	tortellini_03s.jpg	0	0	0	194.35333481431	194.403316491749	0.0499816774390638
56570	50	186	0	0	puck	1245	186	0	stimuli\puck\puck_05s.jpg	4	-1	0	0	puck_05s.jpg	0	0	0	194.453338398132	194.503318612929	0.0499802147969604
56670	50	187	0	0	stalagmite	1534	187	0	stimuli\stalagmite\stalagmite_12s.jpg	11	-1	0	0	stalagmite_12s.jpg	0	0	0	194.553342713509	194.603320490569	0.0499777770601213
56770	50	188	0	0	olive	1075	188	0	stimuli\olive\olive_02s.jpg	1	-1	0	0	olive_02s.jpg	0	0	0	194.653342640493	194.70332578104	0.0499831405468285
56870	50	189	0	0	minivan	1003	189	0	stimuli\minivan\minivan_12s.jpg	11	-1	0	0	minivan_12s.jpg	0	0	0	194.753346955869	194.803325951565	0.0499789956957102
56970	50	190	0	0	bin	125	190	0	stimuli\bin\bin_03s.jpg	2	-1	0	0	bin_03s.jpg	0	0	0	194.853348589502	194.903328316752	0.0499797272495925
57070	50	191	0	0	ski_pole	1455	191	0	stimuli\ski_pole\ski_pole_09s.jpg	8	-1	0	0	ski_pole_09s.jpg	0	0	0	194.953351685777	195.003350674175	0.0499989883974195
57170	50	192	0	0	stockings	1559	192	0	stimuli\stockings\stockings_10s.jpg	9	-1	0	0	stockings_10s.jpg	0	0	0	195.0533740432	195.103357183747	0.0499831405468285
57270	50	193	0	0	globe	679	193	0	stimuli\globe\globe_03s.jpg	2	-1	0	0	globe_03s.jpg	0	0	0	195.153358609881	195.20333809359	0.0499794837087393
57370	50	194	0	0	toothbrush	1679	194	0	stimuli\toothbrush\toothbrush_10s.jpg	9	-1	0	0	toothbrush_10s.jpg	0	0	0	195.253358536866	195.303355330601	0.0499967937357724
57470	50	195	0	0	rice	1309	195	0	stimuli\rice\rice_05s.jpg	4	-1	0	0	rice_05s.jpg	0	0	0	195.353373579681	195.403355257586	0.0499816779047251
57570	50	196	0	0	landmine	894	196	0	stimuli\landmine\landmine_04s.jpg	3	-1	0	0	landmine_04s.jpg	0	0	0	195.453378139064	195.503345432226	0.0499672931618989
57670	50	197	0	0	parrot	1121	197	0	stimuli\parrot\parrot_04s.jpg	3	-1	0	0	parrot_04s.jpg	0	0	0	195.553379772697	195.603347065393	0.0499672926962376
57770	50	198	0	0	antenna	27	198	0	stimuli\antenna\antenna_08n.jpg	7	-1	0	0	antenna_08n.jpg	0	0	0	195.653386038728	195.703361864667	0.0499758259393275
57870	50	199	0	0	board_game	153	199	0	stimuli\board_game\board_game_08s.jpg	7	-1	0	0	board_game_08s.jpg	0	0	0	195.753388159443	195.803368618246	0.0499804588034749
57970	50	200	0	0	centrifuge	296	200	0	stimuli\centrifuge\centrifuge_03s.jpg	2	-1	0	0	centrifuge_03s.jpg	0	0	0	195.853386867326	195.903357573785	0.0499707064591348
58070	50	201	0	0	router	1336	201	0	stimuli\router\router_11s.jpg	10	-1	0	0	router_11s.jpg	0	0	0	195.953391182702	196.003393096849	0.0500019141472876
58170	50	202	0	0	pretzel	1239	202	0	stimuli\pretzel\pretzel_04s.jpg	3	-1	0	0	pretzel_04s.jpg	0	0	0	196.053411345929	196.103371812031	0.0499604661017656
58270	50	203	0	0	popsicle	1225	203	0	stimuli\popsicle\popsicle_03s.jpg	2	-1	0	0	popsicle_03s.jpg	0	0	0	196.153393962421	196.20337661542	0.0499826529994607
58370	50	204	0	0	wall	1775	204	0	stimuli\wall\wall_05s.jpg	4	-1	0	0	wall_05s.jpg	0	0	0	196.253398765344	196.303379224148	0.0499804588034749
58470	50	205	0	0	cougar	423	205	0	stimuli\cougar\cougar_07s.jpg	6	-1	0	0	cougar_07s.jpg	0	0	0	196.35339991143	196.403381345328	0.0499814338982105
58570	50	206	0	0	applesauce	32	206	0	stimuli\applesauce\applesauce_06s.jpg	5	-1	0	0	applesauce_06s.jpg	0	0	0	196.453405689448	196.503373226151	0.0499675367027521
58670	50	207	0	0	headdress	763	207	0	stimuli\headdress\headdress_10s.jpg	9	-1	0	0	headdress_10s.jpg	0	0	0	196.553408298176	196.603375591338	0.0499672931618989
58770	50	208	0	0	flag	605	208	0	stimuli\flag\flag_10n.jpg	9	-1	0	0	flag_10n.jpg	0	0	0	196.653411394916	196.703377224971	0.0499658300541341
58870	50	209	0	0	cigarette_butt	345	209	0	stimuli\cigarette_butt\cigarette_butt_07s.jpg	6	-1	0	0	cigarette_butt_07s.jpg	0	0	0	196.753408883698	196.803390317596	0.0499814338982105
58970	50	210	0	0	scoreboard	1383	210	0	stimuli\scoreboard\scoreboard_02s.jpg	1	-1	0	0	scoreboard_02s.jpg	0	0	0	196.853413930163	196.903395852074	0.0499819219112396
59070	50	211	0	0	umbrella	1743	211	0	stimuli\umbrella\umbrella_04s.jpg	3	-1	0	0	umbrella_04s.jpg	0	0	0	196.95341653889	197.003395535052	0.0499789961613715
59170	50	212	0	0	armor	37	212	0	stimuli\armor\armor_07s.jpg	6	-1	0	0	armor_07s.jpg	0	0	0	197.053417928983	197.103387659881	0.0499697308987379
59270	50	213	0	0	saffron	1345	213	0	stimuli\saffron\saffron_06s.jpg	5	-1	0	0	saffron_06s.jpg	0	0	0	197.153423951007	197.203402215149	0.0499782641418278
59370	50	214	0	0	peanut	1131	214	0	stimuli\peanut\peanut_01b.jpg	0	-1	0	0	peanut_01b.jpg	0	0	0	197.253429241478	197.303405555431	0.0499763139523566
59470	50	215	0	0	speaker	1509	215	0	stimuli\speaker\speaker_04s.jpg	3	-1	0	0	speaker_04s.jpg	0	0	0	197.353425511159	197.403407676611	0.0499821654520929
59570	50	216	0	0	rattlesnake	1288	216	0	stimuli\rattlesnake\rattlesnake_02s.jpg	1	-1	0	0	rattlesnake_02s.jpg	0	0	0	197.453429826535	197.503409066238	0.0499792397022247
59670	50	217	0	0	slot	1469	217	0	stimuli\slot\slot_03s.jpg	2	-1	0	0	slot_03s.jpg	0	0	0	197.553431460168	197.603413138073	0.0499816779047251
59770	50	218	0	0	hummus	812	218	0	stimuli\hummus\hummus_10s.jpg	9	-1	0	0	hummus_10s.jpg	0	0	0	197.653433093801	197.703404775355	0.0499716815538704
59870	50	219	0	0	bowtie	180	219	0	stimuli\bowtie\bowtie_05s.jpg	4	-1	0	0	bowtie_05s.jpg	0	0	0	197.753426193725	197.803408359177	0.0499821654520929
59970	50	220	0	0	toaster_oven	1667	220	0	stimuli\toaster_oven\toaster_oven_04s.jpg	3	-1	0	0	toaster_oven_04s.jpg	0	0	0	197.853439286351	197.903409505263	0.049970218911767
60070	50	221	0	0	dalmatian	471	221	0	stimuli\dalmatian\dalmatian_01b.jpg	0	-1	0	0	dalmatian_01b.jpg	0	0	0	197.953443358187	198.003423328977	0.0499799707904458
60170	50	222	0	0	sticker	1553	222	0	stimuli\sticker\sticker_12s.jpg	11	-1	0	0	sticker_12s.jpg	0	0	0	198.053443528712	198.103413260076	0.0499697313643992
60270	50	223	0	0	paperclip	1116	223	0	stimuli\paperclip\paperclip_09s.jpg	8	-1	0	0	paperclip_09s.jpg	0	0	0	198.153446868993	198.203428546898	0.0499816779047251
60370	50	224	0	0	camel	245	224	0	stimuli\camel\camel_01b.jpg	0	-1	0	0	camel_01b.jpg	0	0	0	198.253448502626	198.303427498322	0.0499789956957102
60470	50	225	0	0	thread	1651	225	0	stimuli\thread\thread_11s.jpg	10	-1	0	0	thread_11s.jpg	0	0	0	198.353448673151	198.403428887948	0.0499802147969604
60570	50	226	0	0	hard_disk	752	226	0	stimuli\hard_disk\hard_disk_05s.jpg	4	-1	0	0	hard_disk_05s.jpg	0	0	0	198.453453232534	198.503432715777	0.049979483243078
60670	50	227	0	0	spider_web	1514	227	0	stimuli\spider_web\spider_web_08s.jpg	7	-1	0	0	spider_web_08s.jpg	0	0	0	198.553455597255	198.603438006714	0.0499824094586074
60770	50	228	0	0	touchpad	1691	228	0	stimuli\touchpad\touchpad_09s.jpg	8	-1	0	0	touchpad_09s.jpg	0	0	0	198.653456011787	198.70343842078	0.0499824089929461
60870	50	229	0	0	appetizer	29	229	0	stimuli\appetizer\appetizer_04s.jpg	3	-1	0	0	appetizer_04s.jpg	0	0	0	198.753460083622	198.803442736622	0.0499826529994607
60970	50	230	0	0	jackhammer	837	230	0	stimuli\jackhammer\jackhammer_05s.jpg	4	-1	0	0	jackhammer_05s.jpg	0	0	0	198.853463911451	198.903445832897	0.0499819214455783
61070	50	231	0	0	ruby	1338	231	0	stimuli\ruby\ruby_07s.jpg	6	-1	0	0	ruby_07s.jpg	0	0	0	198.95346676372	199.003443321679	0.0499765579588711
61170	50	232	0	0	chalice	301	232	0	stimuli\chalice\chalice_07s.jpg	6	-1	0	1	chalice_07s.jpg	0	0	0	199.053466934711	199.103448856156	0.0499819214455783
61270	50	233	0	0	credit_card	438	233	0	stimuli\credit_card\credit_card_01b.jpg	0	-1	0	0	credit_card_01b.jpg	0	0	0	199.153470274527	199.203452196438	0.0499819219112396
61370	50	234	0	0	bell_pepper	117	234	0	stimuli\bell_pepper\bell_pepper_09s.jpg	8	-1	0	0	bell_pepper_09s.jpg	0	0	0	199.25347190816	199.303455048706	0.0499831405468285
61470	50	235	0	0	gramophone	699	235	0	stimuli\gramophone\gramophone_03s.jpg	2	-1	0	0	gramophone_03s.jpg	0	0	0	199.353475979995	199.403457901441	0.0499819214455783
61570	50	236	0	0	purse	1259	236	0	stimuli\purse\purse_09s.jpg	8	-1	0	0	purse_09s.jpg	1	0.392139776609838	1	199.45348200202	199.503458315972	0.0499763139523566
61670	50	237	0	0	chessboard	318	237	0	stimuli\chessboard\chessboard_08s.jpg	7	-1	0	0	chessboard_08s.jpg	0	0	0	199.553479490802	199.603462631349	0.0499831405468285
61770	50	238	0	0	skeleton	1450	238	0	stimuli\skeleton\skeleton_11s.jpg	10	-1	0	0	skeleton_11s.jpg	0	0	0	199.653484293725	199.703462558333	0.0499782646074891
61870	50	239	0	0	mongoose	1016	239	0	stimuli\mongoose\mongoose_02s.jpg	1	-1	0	0	mongoose_02s.jpg	0	0	0	199.753488121554	199.803467604797	0.049979483243078
61970	50	240	0	0	drum	522	240	0	stimuli\drum\drum_01b.jpg	0	-1	0	0	drum_01b.jpg	0	0	0	199.853488779627	199.903471189085	0.0499824094586074
62070	50	241	0	0	horse	798	241	0	stimuli\horse\horse_04s.jpg	3	-1	0	0	horse_04s.jpg	0	0	0	199.953492363915	200.003461851273	0.0499694873578846
62170	50	242	0	0	ram	1282	242	0	stimuli\ram\ram_04s.jpg	3	-1	0	0	ram_04s.jpg	0	0	0	200.053494972643	200.103474943433	0.0499799707904458
62270	50	243	0	0	chick	321	243	0	stimuli\chick\chick_12s.jpg	11	-1	0	0	chick_12s.jpg	0	0	0	200.153495874722	200.203482185025	0.0499863103032112
62370	50	244	0	0	file2	584	244	0	stimuli\file2\file2_11s.jpg	10	-1	0	0	file2_11s.jpg	0	0	0	200.253500921652	200.303480892442	0.0499799707904458
62470	50	245	0	0	calzone	243	245	0	stimuli\calzone\calzone_08s.jpg	7	-1	0	0	calzone_08s.jpg	0	0	0	200.353500848636	200.403481794521	0.0499809458851814
62570	50	246	0	0	coconut	375	246	0	stimuli\coconut\coconut_08s.jpg	7	-1	0	0	coconut_08s.jpg	0	0	0	200.453505895101	200.503485134803	0.0499792397022247
62670	50	247	0	0	ginger	673	247	0	stimuli\ginger\ginger_04s.jpg	3	-1	0	0	ginger_04s.jpg	0	0	0	200.553508016281	200.603487012442	0.0499789961613715
62770	50	248	0	0	deer	476	248	0	stimuli\deer\deer_07s.jpg	6	-1	0	0	deer_07s.jpg	0	0	0	200.653500141576	200.703491571359	0.0499914297834039
62870	50	249	0	0	flamingo	608	249	0	stimuli\flamingo\flamingo_02s.jpg	1	-1	0	0	flamingo_02s.jpg	0	0	0	200.753512746189	200.803494424094	0.0499816779047251
62970	50	250	0	0	straw1	1568	250	0	stimuli\straw1\straw1_07s.jpg	6	-1	0	0	straw1_07s.jpg	0	0	0	200.853504627477	200.903496301267	0.0499916737899184
63070	50	251	0	0	wineglass	1826	251	0	stimuli\wineglass\wineglass_07s.jpg	6	-1	0	0	wineglass_07s.jpg	0	0	0	200.953507236205	201.00348598836	0.0499787521548569
63170	50	252	0	0	tile	1660	252	0	stimuli\tile\tile_01s.jpg	0	-1	0	0	tile_01s.jpg	0	0	0	201.053507894278	201.103491522837	0.0499836285598576
63270	50	253	0	0	hail	732	253	0	stimuli\hail\hail_03s.jpg	2	-1	0	0	hail_03s.jpg	0	0	0	201.153513672762	201.203496081755	0.0499824089929461
63370	50	254	0	0	poker	1210	254	0	stimuli\poker\poker_12s.jpg	11	-1	0	0	poker_12s.jpg	0	0	0	201.253517256584	201.303495033644	0.0499777770601213
63470	50	255	0	0	stained_glass	1531	255	0	stimuli\stained_glass\stained_glass_02s.jpg	1	-1	0	0	stained_glass_02s.jpg	0	0	0	201.353516696021	201.403496667277	0.0499799712561071
63570	50	256	0	0	poster	1229	256	0	stimuli\poster\poster_09s.jpg	8	-1	0	0	poster_09s.jpg	0	0	0	201.453521742951	201.503499763552	0.0499780206009746
63670	50	257	0	0	riser	1314	257	0	stimuli\riser\riser_11s.jpg	10	-1	0	0	riser_11s.jpg	0	0	0	201.553524107672	201.603504566476	0.0499804588034749
63770	50	258	0	0	scone	1380	258	0	stimuli\scone\scone_02s.jpg	1	-1	0	0	scone_02s.jpg	0	0	0	201.65352476621	201.703505956102	0.049981189891696
63870	50	259	0	0	bottle	170	259	0	stimuli\bottle\bottle_04s.jpg	3	-1	0	0	bottle_04s.jpg	0	0	0	201.753526643384	201.803508808836	0.0499821654520929
63970	50	260	0	0	mint	1004	260	0	stimuli\mint\mint_09s.jpg	8	-1	0	0	mint_09s.jpg	0	0	0	201.853530227672	201.903512149118	0.0499819214455783
64070	50	261	0	0	pulpit	1251	261	0	stimuli\pulpit\pulpit_06s.jpg	5	-1	0	0	pulpit_06s.jpg	0	0	0	201.953534299042	202.003514270298	0.0499799712561071
64170	50	262	0	0	margarita	973	262	0	stimuli\margarita\margarita_07s.jpg	6	-1	0	0	margarita_07s.jpg	0	0	0	202.053535932675	202.103515903465	0.0499799707904458
64270	50	263	0	0	parfait	1119	263	0	stimuli\parfait\parfait_11s.jpg	10	-1	0	0	parfait_11s.jpg	0	0	0	202.153540735599	202.203519000206	0.0499782646074891
64370	50	264	0	0	elephant	554	264	0	stimuli\elephant\elephant_05n.jpg	4	-1	0	0	elephant_05n.jpg	0	0	0	202.253542612772	202.30352087738	0.0499782646074891
64470	50	265	0	0	polar_bear	1211	265	0	stimuli\polar_bear\polar_bear_01b.jpg	0	-1	0	0	polar_bear_01b.jpg	0	0	0	202.353545953054	202.40352592431	0.0499799712561071
64570	50	266	0	0	dishwasher	491	266	0	stimuli\dishwasher\dishwasher_12n.jpg	11	-1	0	0	dishwasher_12n.jpg	0	0	0	202.453548318241	202.503527801484	0.049979483243078
64670	50	267	0	0	rag	1276	267	0	stimuli\rag\rag_04s.jpg	3	-1	0	0	rag_04s.jpg	0	0	0	202.553550926968	202.603531141765	0.0499802147969604
64770	50	268	0	0	jigsaw_puzzle	851	268	0	stimuli\jigsaw_puzzle\jigsaw_puzzle_05s.jpg	4	-1	0	0	jigsaw_puzzle_05s.jpg	0	0	0	202.653551097494	202.703532775398	0.0499816779047251
64870	50	269	0	0	mattress	985	269	0	stimuli\mattress\mattress_01s.jpg	0	-1	0	0	mattress_01s.jpg	0	0	0	202.753553706221	202.803538797423	0.049985091201961
64970	50	270	0	0	rudder	1339	270	0	stimuli\rudder\rudder_02s.jpg	1	-1	0	0	rudder_02s.jpg	0	0	0	202.853561922908	202.903552621137	0.0499906982295215
65070	50	271	0	0	keyhole	871	271	0	stimuli\keyhole\keyhole_11s.jpg	10	-1	0	1	keyhole_11s.jpg	0	0	0	202.953564775176	203.003543527331	0.0499787521548569
65170	50	272	0	0	videocassette	1761	272	0	stimuli\videocassette\videocassette_08n.jpg	7	-1	0	0	videocassette_08n.jpg	0	0	0	203.053564945702	203.103547598701	0.0499826529994607
65270	50	273	0	0	wheat	1805	273	0	stimuli\wheat\wheat_06s.jpg	5	-1	0	0	wheat_06s.jpg	0	0	0	203.153569749091	203.203550207429	0.0499804583378136
65370	50	274	0	0	coaster	368	274	0	stimuli\coaster\coaster_01b.jpg	0	-1	0	0	coaster_01b.jpg	1	0.341921116691083	1	203.253572113812	203.303553791717	0.0499816779047251
65470	50	275	0	0	taffy	1615	275	0	stimuli\taffy\taffy_02s.jpg	1	-1	0	0	taffy_02s.jpg	0	0	0	203.353581793141	203.403555181343	0.0499733882024884
65570	50	276	0	0	pheasant	1160	276	0	stimuli\pheasant\pheasant_11s.jpg	10	-1	0	0	pheasant_11s.jpg	0	0	0	203.45357684372	203.503558521625	0.0499816779047251
65670	50	277	0	0	boxing_gloves	183	277	0	stimuli\boxing_gloves\boxing_gloves_11s.jpg	10	-1	0	0	boxing_gloves_11s.jpg	0	0	0	203.553580915555	203.603572345339	0.0499914297834039
65770	50	278	0	0	diamond	484	278	0	stimuli\diamond\diamond_01b.jpg	0	-1	0	0	diamond_01b.jpg	0	0	0	203.653580842074	203.703573978972	0.0499931368976831
65870	50	279	0	0	koala	884	279	0	stimuli\koala\koala_08s.jpg	7	-1	0	0	koala_08s.jpg	0	0	0	203.753588571213	203.803566347808	0.04997777659446
65970	50	280	0	0	tag	1616	280	0	stimuli\tag\tag_08s.jpg	7	-1	0	0	tag_08s.jpg	0	0	0	203.85358703509	203.903568956535	0.0499819214455783
66070	50	281	0	0	candy_cane	257	281	0	stimuli\candy_cane\candy_cane_06s.jpg	5	-1	0	0	candy_cane_06s.jpg	0	0	0	203.95359208202	204.003571321722	0.0499792397022247
66170	50	282	0	0	seal	1397	282	0	stimuli\seal\seal_09s.jpg	8	-1	0	0	seal_09s.jpg	0	0	0	204.053591520991	204.103577831294	0.0499863103032112
66270	50	283	0	0	birdcage	130	283	0	stimuli\birdcage\birdcage_07s.jpg	6	-1	0	0	birdcage_07s.jpg	0	0	0	204.15359632438	204.203576782718	0.0499804583378136
66370	50	284	0	0	sundae	1582	284	0	stimuli\sundae\sundae_07s.jpg	6	-1	0	0	sundae_07s.jpg	0	0	0	204.253597714007	204.303580123	0.0499824089929461
66470	50	285	0	0	bathmat	89	285	0	stimuli\bathmat\bathmat_04s.jpg	3	-1	0	0	bathmat_04s.jpg	0	0	0	204.353613488376	204.403582975734	0.0499694873578846
66570	50	286	0	0	garlic	658	286	0	stimuli\garlic\garlic_02s.jpg	1	-1	0	0	garlic_02s.jpg	0	0	0	204.453602687456	204.503584609367	0.0499819219112396
66670	50	287	0	0	porcupine	1226	287	0	stimuli\porcupine\porcupine_03s.jpg	2	-1	0	0	porcupine_03s.jpg	0	0	0	204.553606271744	204.603588193189	0.0499819214455783
66770	50	288	0	0	sawhorse	1367	288	0	stimuli\sawhorse\sawhorse_03s.jpg	2	-1	0	0	sawhorse_03s.jpg	0	0	0	204.653607905377	204.703589826822	0.0499819214455783
66870	50	289	0	0	watermelon	1793	289	0	stimuli\watermelon\watermelon_11s.jpg	10	-1	0	0	watermelon_11s.jpg	0	0	0	204.7536127083	204.803592679091	0.0499799707904458
66970	50	290	0	0	coil	384	290	0	stimuli\coil\coil_07s.jpg	6	-1	0	0	coil_07s.jpg	0	0	0	204.853615804575	204.903595775831	0.0499799712561071
67070	50	291	0	0	raccoon	1266	291	0	stimuli\raccoon\raccoon_04n.jpg	3	-1	0	0	raccoon_04n.jpg	0	0	0	204.953617925756	205.003597653005	0.0499797272495925
67170	50	292	0	0	gearshift	668	292	0	stimuli\gearshift\gearshift_02s.jpg	1	-1	0	0	gearshift_02s.jpg	0	0	0	205.053618827835	205.103599530179	0.0499807023443282
67270	50	293	0	0	bulletin_board	217	293	0	stimuli\bulletin_board\bulletin_board_02s.jpg	1	-1	0	0	bulletin_board_02s.jpg	0	0	0	205.153622655664	205.203618718311	0.0499960626475513
67370	50	294	0	0	noodle	1061	294	0	stimuli\noodle\noodle_11s.jpg	10	-1	0	0	noodle_11s.jpg	0	0	0	205.253623070195	205.303605479188	0.0499824089929461
67470	50	295	0	0	yolk	1850	295	0	stimuli\yolk\yolk_03s.jpg	2	-1	0	0	yolk_03s.jpg	0	0	0	205.353625434916	205.403607600369	0.0499821654520929
67570	50	296	0	0	cape	266	296	0	stimuli\cape\cape_03s.jpg	2	-1	0	0	cape_03s.jpg	0	0	0	205.453628287651	205.503611915745	0.0499836280941963
67670	50	297	0	0	turtleneck	1737	297	0	stimuli\turtleneck\turtleneck_01b.jpg	0	-1	0	1	turtleneck_01b.jpg	0	0	0	205.553631627932	205.603608429432	0.0499768014997244
67770	50	298	0	0	cot	420	298	0	stimuli\cot\cot_04s.jpg	3	-1	0	0	cot_04s.jpg	0	0	0	205.653634968214	205.703614939004	0.0499799707904458
67870	50	299	0	0	fan	571	299	0	stimuli\fan\fan_04s.jpg	3	-1	0	0	fan_04s.jpg	0	0	0	205.75363635784	205.803618523292	0.0499821654520929
67970	50	300	0	0	harmonica	753	300	0	stimuli\harmonica\harmonica_01b.jpg	0	-1	0	0	harmonica_01b.jpg	1	0.341950129717588	1	205.853652863763	205.903621619567	0.0499687558040023
68070	50	301	0	0	microwave	1000	301	0	stimuli\microwave\microwave_12s.jpg	11	-1	0	0	microwave_12s.jpg	0	0	0	205.953643281944	206.00362227764	0.0499789956957102
68170	50	302	0	0	ferret	578	302	0	stimuli\ferret\ferret_07s.jpg	6	-1	0	0	ferret_07s.jpg	0	0	0	206.053651742171	206.103625373915	0.0499736317433417
68270	50	303	0	0	radiator	1272	303	0	stimuli\radiator\radiator_02n.jpg	1	-1	0	0	radiator_02n.jpg	0	0	0	206.153644842096	206.203623838257	0.0499789961613715
68370	50	304	0	0	knitting_needle	881	304	0	stimuli\knitting_needle\knitting_needle_07s.jpg	6	-1	0	0	knitting_needle_07s.jpg	0	0	0	206.253647938836	206.303629616275	0.0499816774390638
68470	50	305	0	0	loveseat	947	305	0	stimuli\loveseat\loveseat_03s.jpg	2	-1	0	0	loveseat_03s.jpg	0	0	0	206.353649572004	206.403630274814	0.0499807028099895
68570	50	306	0	0	chalkboard	303	306	0	stimuli\chalkboard\chalkboard_09s.jpg	8	-1	0	0	chalkboard_09s.jpg	0	0	0	206.45365486294	206.503635077737	0.0499802147969604
68670	50	307	0	0	crown	448	307	0	stimuli\crown\crown_05n.jpg	4	-1	0	0	crown_05n.jpg	0	0	0	206.553656252567	206.603636467364	0.0499802147969604
68770	50	308	0	0	glass	677	308	0	stimuli\glass\glass_05s.jpg	4	-1	0	0	glass_05s.jpg	0	0	0	206.653658129741	206.70363785699	0.0499797272495925
74404	50	309	0	0	flip_flop	614	0	1	stimuli\flip_flop\flip_flop_08s.jpg	7	-1	1	0	flip_flop_08s.jpg	0	0	0	212.287140292581	212.337123920675	0.0499836280941963
74504	50	310	0	0	jukebox	857	1	1	stimuli\jukebox\jukebox_10s.jpg	9	-1	1	0	jukebox_10s.jpg	0	0	0	212.387143145315	212.43712384766	0.0499807023443282
74604	50	311	0	0	tortilla	1687	2	1	stimuli\tortilla\tortilla_02s.jpg	1	-1	1	0	tortilla_02s.jpg	0	0	0	212.487144290935	212.537125481293	0.0499811903573573
74704	50	312	0	0	grain	698	3	1	stimuli\grain\grain_08s.jpg	7	-1	1	0	grain_08s.jpg	0	0	0	212.587150069419	212.637133209966	0.0499831405468285
74804	50	313	0	0	grits	717	4	1	stimuli\grits\grits_02s.jpg	1	-1	1	0	grits_02s.jpg	1	0	0	212.687147070654	212.73713313695	0.0499860662966967
74904	50	314	0	0	couch	422	5	1	stimuli\couch\couch_02s.jpg	1	-1	1	0	couch_02s.jpg	0	0	0	212.787154067773	212.837144522928	0.0499904551543295
75004	50	315	0	0	terrarium	1644	6	1	stimuli\terrarium\terrarium_12s.jpg	11	-1	1	0	terrarium_12s.jpg	0	0	0	212.887154482305	212.937140305061	0.0499858227558434
75104	50	316	0	0	grille	715	7	1	stimuli\grille\grille_03s.jpg	2	-1	1	0	grille_03s.jpg	0	0	0	212.987162210979	213.037140719127	0.0499785081483424
75204	50	317	0	0	root	1331	8	1	stimuli\root\root_06s.jpg	5	-1	1	0	root_06s.jpg	0	0	0	213.087159212213	213.137142109219	0.0499828970059752
75304	50	318	0	0	acorn	3	9	1	stimuli\acorn\acorn_07s.jpg	6	-1	1	0	acorn_07s.jpg	0	0	0	213.187166940887	213.237151056994	0.0499841161072254
75404	50	319	0	0	domino	503	10	1	stimuli\domino\domino_01b.jpg	0	-1	1	0	domino_01b.jpg	0	0	0	213.287166136317	213.33715244662	0.0499863103032112
75504	50	320	0	0	sewage	1405	11	1	stimuli\sewage\sewage_04s.jpg	3	-1	1	0	sewage_04s.jpg	0	0	0	213.38716776995	213.437150910497	0.0499831405468285
75604	50	321	0	0	snorkel	1478	12	1	stimuli\snorkel\snorkel_05s.jpg	4	-1	1	0	snorkel_05s.jpg	0	0	0	213.487167940475	213.537153275684	0.0499853352084756
75704	50	322	0	0	manhole	967	13	1	stimuli\manhole\manhole_04n.jpg	3	-1	1	0	manhole_04n.jpg	0	0	0	213.587173718959	213.637154177763	0.0499804588034749
75804	50	323	0	0	rearview_mirror	1293	14	1	stimuli\rearview_mirror\rearview_mirror_07s.jpg	6	-1	1	0	rearview_mirror_07s.jpg	0	0	0	213.687174133491	213.737162150443	0.0499880169518292
75904	50	324	0	0	bazooka	98	15	1	stimuli\bazooka\bazooka_03s.jpg	2	-1	1	0	bazooka_03s.jpg	0	0	0	213.78718088707	213.837175486609	0.0499945995397866
76004	50	325	0	0	cherry	316	16	1	stimuli\cherry\cherry_06n.jpg	5	-1	1	0	cherry_06n.jpg	0	0	0	213.88717910694	213.937164685689	0.0499855787493289
76104	50	326	0	0	goldfish	688	17	1	stimuli\goldfish\goldfish_08s.jpg	7	-1	1	0	goldfish_08s.jpg	0	0	0	213.987190005369	214.037163393572	0.0499733882024884
76204	50	327	0	0	bowling_ball	179	18	1	stimuli\bowling_ball\bowling_ball_01b.jpg	0	-1	1	0	bowling_ball_01b.jpg	0	0	0	214.087187981699	214.137176486198	0.049988504499197
76304	50	328	0	0	catfish	287	19	1	stimuli\catfish\catfish_02s.jpg	1	-1	1	0	catfish_02s.jpg	0	0	0	214.187188883778	214.237170805223	0.0499819214455783
76404	50	329	0	0	stew	1551	20	1	stimuli\stew\stew_05s.jpg	4	-1	1	0	stew_05s.jpg	0	0	0	214.28719027387	214.337174877059	0.0499846031889319
76504	50	330	0	0	bracelet2	188	21	1	stimuli\bracelet2\bracelet2_10s.jpg	9	-1	1	0	bracelet2_10s.jpg	0	0	0	214.387197270989	214.437197478022	0.0500002070330083
76604	50	331	0	0	pelican	1140	22	1	stimuli\pelican\pelican_03s.jpg	2	-1	1	0	pelican_03s.jpg	0	0	0	214.487198904622	214.537179606967	0.0499807023443282
76704	50	332	0	0	lifesaver	925	23	1	stimuli\lifesaver\lifesaver_02s.jpg	1	-1	1	0	lifesaver_02s.jpg	0	0	0	214.587202244904	214.637183922343	0.0499816774390638
76804	50	333	0	0	detonator	482	24	1	stimuli\detonator\detonator_07s.jpg	6	-1	1	0	detonator_07s.jpg	0	0	0	214.687199002132	214.737183849327	0.0499848471954465
76904	50	334	0	0	awning	44	25	1	stimuli\awning\awning_04s.jpg	3	-1	1	0	awning_04s.jpg	0	0	0	214.787207949907	214.837187677156	0.0499797272495925
77004	50	335	0	0	string_cheese	1573	26	1	stimuli\string_cheese\string_cheese_04s.jpg	3	-1	1	0	string_cheese_04s.jpg	0	0	0	214.887206170242	214.937189066783	0.049982896540314
77104	50	336	0	0	cruise_ship	450	27	1	stimuli\cruise_ship\cruise_ship_03s.jpg	2	-1	1	0	cruise_ship_03s.jpg	0	0	0	214.987214874011	215.037193869706	0.0499789956957102
77204	50	337	0	0	tablet	1610	28	1	stimuli\tablet\tablet_12s.jpg	11	-1	1	0	tablet_12s.jpg	0	0	0	215.087211387698	215.137196965981	0.0499855782836676
77304	50	338	0	0	clothes	361	29	1	stimuli\clothes\clothes_03s.jpg	2	-1	1	0	clothes_03s.jpg	0	0	0	215.187219847925	215.23720079381	0.0499809458851814
77404	50	339	0	0	counter	424	30	1	stimuli\counter\counter_07s.jpg	6	-1	1	0	counter_07s.jpg	0	0	0	215.287219530903	215.337200964801	0.0499814338982105
77504	50	340	0	0	hamster	743	31	1	stimuli\hamster\hamster_01b.jpg	0	-1	1	0	hamster_01b.jpg	0	0	0	215.387223114725	215.437204305083	0.0499811903573573
77604	50	341	0	0	tattoo	1629	32	1	stimuli\tattoo\tattoo_08s.jpg	7	-1	1	0	tattoo_08s.jpg	0	0	0	215.487220847514	215.537207157351	0.0499863098375499
77704	50	342	0	0	air_conditioner	4	33	1	stimuli\air_conditioner\air_conditioner_01b.jpg	0	-1	1	0	air_conditioner_01b.jpg	0	0	0	215.587226869538	215.637211960275	0.0499850907362998
77804	50	343	0	0	dice	486	34	1	stimuli\dice\dice_01s.jpg	0	-1	1	0	dice_01s.jpg	0	0	0	215.687228746712	215.737211643718	0.0499828970059752
77904	50	344	0	0	gingerbread_man	674	35	1	stimuli\gingerbread_man\gingerbread_man_03s.jpg	2	-1	1	0	gingerbread_man_03s.jpg	0	0	0	215.787230867893	215.837217421737	0.0499865538440645
78004	50	345	0	0	marble	972	36	1	stimuli\marble\marble_03s.jpg	2	-1	1	0	marble_03s.jpg	0	0	0	215.88723347662	215.937216373626	0.0499828970059752
78104	50	346	0	0	dreidel	517	37	1	stimuli\dreidel\dreidel_11s.jpg	10	-1	1	0	dreidel_11s.jpg	0	0	0	215.987239498645	216.037218738347	0.0499792397022247
78204	50	347	0	0	stove1	1563	38	1	stimuli\stove1\stove1_05s.jpg	4	-1	1	0	stove1_05s.jpg	0	0	0	216.087241376285	216.137222078629	0.0499807023443282
78304	50	348	0	0	pitchfork	1191	39	1	stimuli\pitchfork\pitchfork_07s.jpg	6	-1	1	0	pitchfork_07s.jpg	0	0	0	216.187243497465	216.237225906458	0.0499824089929461
78404	50	349	0	0	horseshoe	799	40	1	stimuli\horseshoe\horseshoe_09s.jpg	8	-1	1	0	horseshoe_09s.jpg	0	0	0	216.287242204882	216.337229246739	0.0499870418570936
78504	50	350	0	0	mud	1033	41	1	stimuli\mud\mud_07s.jpg	6	-1	1	0	mud_07s.jpg	0	0	0	216.387249446008	216.437228685711	0.0499792397022247
78604	50	351	0	0	robe	1317	42	1	stimuli\robe\robe_06s.jpg	5	-1	1	0	robe_06s.jpg	0	0	0	216.487249129452	216.537234707735	0.0499855782836676
78704	50	352	0	0	fingerprint	589	43	1	stimuli\fingerprint\fingerprint_12s.jpg	11	-1	1	0	fingerprint_12s.jpg	0	0	0	216.587255395018	216.637234391179	0.0499789961613715
78804	50	353	0	0	hummingbird	811	44	1	stimuli\hummingbird\hummingbird_07s.jpg	6	-1	1	0	hummingbird_07s.jpg	0	0	0	216.687254102901	216.737238950096	0.0499848471954465
78904	50	354	0	0	playpen	1200	45	1	stimuli\playpen\playpen_05s.jpg	4	-1	1	0	playpen_05s.jpg	0	0	0	216.787264757324	216.837241071276	0.0499763139523566
79004	50	355	0	0	target	1627	46	1	stimuli\target\target_08s.jpg	7	-1	1	0	target_08s.jpg	0	0	0	216.887259564362	216.937244655564	0.049985091201961
79104	50	356	0	0	gavel	665	47	1	stimuli\gavel\gavel_02s.jpg	1	-1	1	0	gavel_02s.jpg	0	0	0	216.98726802459	217.037247020286	0.0499789956957102
79204	50	357	0	0	bulldozer	215	48	1	stimuli\bulldozer\bulldozer_03n.jpg	2	-1	1	0	bulldozer_03n.jpg	0	0	0	217.087264050264	217.137249141466	0.049985091201961
79304	50	358	0	0	gem	670	49	1	stimuli\gem\gem_02s.jpg	1	-1	1	0	gem_02s.jpg	0	0	0	217.187272754498	217.23725101864	0.0499782641418278
79404	50	359	0	0	red_carpet	1298	50	1	stimuli\red_carpet\red_carpet_08s.jpg	7	-1	1	0	red_carpet_08s.jpg	0	0	0	217.287269999273	217.33725606557	0.0499860662966967
79504	50	360	0	0	handprint	750	51	1	stimuli\handprint\handprint_02s.jpg	1	-1	1	0	handprint_02s.jpg	0	0	0	217.38727529021	217.437257699203	0.0499824089929461
79604	50	361	0	0	boa	150	52	1	stimuli\boa\boa_06s.jpg	5	-1	1	0	boa_06s.jpg	0	0	0	217.487275704276	217.537260063924	0.0499843596480787
79704	50	362	0	0	diskette	493	53	1	stimuli\diskette\diskette_03s.jpg	2	-1	1	0	diskette_03s.jpg	0	0	0	217.587283189408	217.637262916658	0.0499797272495925
79804	50	363	0	0	kayak	863	54	1	stimuli\kayak\kayak_10s.jpg	9	-1	1	0	kayak_10s.jpg	0	0	0	217.687282140832	217.737264550291	0.0499824094586074
79904	50	364	0	0	cigarette	344	55	1	stimuli\cigarette\cigarette_12s.jpg	11	-1	1	0	cigarette_12s.jpg	0	0	0	217.787285968661	217.83726837812	0.0499824094586074
80004	50	365	0	0	bungee	221	56	1	stimuli\bungee\bungee_09s.jpg	8	-1	1	0	bungee_09s.jpg	0	0	0	217.887287114747	217.937270011753	0.0499828970059752
80104	50	366	0	0	book	165	57	1	stimuli\book\book_08s.jpg	7	-1	1	0	book_08s.jpg	0	0	0	217.987292161677	218.037272376474	0.0499802147969604
80204	50	367	0	0	sewing_kit	1406	58	1	stimuli\sewing_kit\sewing_kit_11s.jpg	10	-1	1	0	sewing_kit_11s.jpg	0	0	0	218.087293307297	218.137278886046	0.0499855787493289
80304	50	368	0	0	tab	1607	59	1	stimuli\tab\tab_10s.jpg	9	-1	1	0	tab_10s.jpg	0	0	0	218.187297379132	218.237276618835	0.0499792397022247
80404	50	369	0	0	croissant	442	60	1	stimuli\croissant\croissant_05s.jpg	4	-1	1	0	croissant_05s.jpg	0	0	0	218.287296818569	218.337279959116	0.0499831405468285
80504	50	370	0	0	bandage	66	61	1	stimuli\bandage\bandage_10s.jpg	9	-1	1	0	bandage_10s.jpg	0	0	0	218.387307716534	218.437282323837	0.0499746073037386
80604	50	371	0	0	saxophone	1368	62	1	stimuli\saxophone\saxophone_05s.jpg	4	-1	1	0	saxophone_05s.jpg	0	0	0	218.487301060464	218.537284689024	0.0499836285598576
80704	50	372	0	0	sword	1602	63	1	stimuli\sword\sword_06s.jpg	5	-1	1	0	sword_06s.jpg	0	0	0	218.58731122734	218.6372890044	0.0499777770601213
80804	50	373	0	0	grill	714	64	1	stimuli\grill\grill_11s.jpg	10	-1	1	0	grill_11s.jpg	0	0	0	218.687305790372	218.737291856669	0.0499860662966967
80904	50	374	0	0	top_hat	1682	65	1	stimuli\top_hat\top_hat_02s.jpg	1	-1	1	0	top_hat_02s.jpg	0	0	0	218.787314007059	218.83729495341	0.0499809463508427
81004	50	375	0	0	switch	1600	66	1	stimuli\switch\switch_12s.jpg	11	-1	1	0	switch_12s.jpg	0	0	0	218.887312226929	218.937296830583	0.0499846036545932
81104	50	376	0	0	figurine	582	67	1	stimuli\figurine\figurine_02s.jpg	1	-1	1	0	figurine_02s.jpg	0	0	0	218.987320443615	219.037297732662	0.0499772890470922
81204	50	377	0	0	strawberry	1570	68	1	stimuli\strawberry\strawberry_06n.jpg	5	-1	1	0	strawberry_06n.jpg	0	0	0	219.087319639046	219.137302048039	0.0499824089929461
81304	50	378	0	0	bench	120	69	1	stimuli\bench\bench_01b.jpg	0	-1	1	0	bench_01b.jpg	0	0	0	219.187323954422	219.237303925212	0.0499799707904458
81404	50	379	0	0	cantaloupe	263	70	1	stimuli\cantaloupe\cantaloupe_06s.jpg	5	-1	1	0	cantaloupe_06s.jpg	0	0	0	219.287322905846	219.337308728602	0.0499858227558434
81504	50	380	0	0	unicycle	1746	71	1	stimuli\unicycle\unicycle_11s.jpg	10	-1	1	0	unicycle_11s.jpg	0	0	0	219.387328196783	219.437307680026	0.049979483243078
81604	50	381	0	0	toilet	1670	72	1	stimuli\toilet\toilet_02s.jpg	1	-1	1	0	toilet_02s.jpg	0	0	0	219.487326904666	219.537333694752	0.050006790086627
81704	50	382	0	0	home_plate	787	73	1	stimuli\home_plate\home_plate_07s.jpg	6	-1	1	0	home_plate_07s.jpg	0	0	0	219.587333657779	219.637316798791	0.0499831410124898
81804	50	383	0	0	arugula	40	74	1	stimuli\arugula\arugula_12s.jpg	11	-1	1	0	arugula_12s.jpg	0	0	0	219.687332122121	219.73731965106	0.0499875289388001
81904	50	384	0	0	barnacle	75	75	1	stimuli\barnacle\barnacle_08s.jpg	7	-1	1	0	barnacle_08s.jpg	0	0	0	219.787340094801	219.837321040686	0.0499809458851814
82004	50	385	0	0	shoehorn	1425	76	1	stimuli\shoehorn\shoehorn_09s.jpg	8	-1	1	0	shoehorn_09s.jpg	0	0	0	219.887339046225	219.937325356063	0.0499863098375499
82104	50	386	0	0	treadmill	1706	77	1	stimuli\treadmill\treadmill_10s.jpg	9	-1	1	0	treadmill_10s.jpg	0	0	0	219.987344580702	220.037325770594	0.049981189891696
82204	50	387	0	0	paint	1096	78	1	stimuli\paint\paint_06s.jpg	5	-1	1	0	paint_06s.jpg	0	0	0	220.087344507687	220.137325941585	0.0499814338982105
82304	50	388	0	0	spark_plug	1506	79	1	stimuli\spark_plug\spark_plug_01b.jpg	0	-1	1	0	spark_plug_01b.jpg	0	0	0	220.18735418655	220.237330744509	0.0499765579588711
82404	50	389	0	0	sparkler	1507	80	1	stimuli\sparkler\sparkler_08s.jpg	7	-1	1	0	sparkler_08s.jpg	0	0	0	220.287349725142	220.337332134135	0.0499824089929461
82504	50	390	0	0	nail_file	1048	81	1	stimuli\nail_file\nail_file_03s.jpg	2	-1	1	0	nail_file_03s.jpg	0	0	0	220.387360379566	220.437335718423	0.049975338857621
82604	50	391	0	0	hearing_aid	770	82	1	stimuli\hearing_aid\hearing_aid_03s.jpg	2	-1	1	0	hearing_aid_03s.jpg	0	0	0	220.487356649246	220.537341252435	0.0499846031889319
82704	50	392	0	0	shredder	1437	83	1	stimuli\shredder\shredder_07s.jpg	6	-1	1	0	shredder_07s.jpg	0	0	0	220.58736242773	220.637339960318	0.0499775325879455
82804	50	393	0	0	toilet_paper	1671	84	1	stimuli\toilet_paper\toilet_paper_06s.jpg	5	-1	1	0	toilet_paper_06s.jpg	0	0	0	220.687359916512	220.737343788147	0.0499838716350496
82904	50	394	0	0	nail_polish	1049	85	1	stimuli\nail_polish\nail_polish_06s.jpg	5	-1	1	0	nail_polish_06s.jpg	0	0	0	220.787365450989	220.837346884888	0.0499814338982105
83004	50	395	0	0	mustard	1044	86	1	stimuli\mustard\mustard_12s.jpg	11	-1	1	0	mustard_12s.jpg	0	0	0	220.887365865055	220.937349981163	0.0499841161072254
83104	50	396	0	0	jug	853	87	1	stimuli\jug\jug_05s.jpg	4	-1	1	0	jug_05s.jpg	0	0	0	220.987374081742	221.037351858336	0.04997777659446
83204	50	397	0	0	flashlight	611	88	1	stimuli\flashlight\flashlight_07s.jpg	6	-1	1	0	flashlight_07s.jpg	0	0	0	221.087371326517	221.137355442159	0.0499841156415641
83304	50	398	0	0	meat	987	89	1	stimuli\meat\meat_02s.jpg	1	-1	1	0	meat_02s.jpg	0	0	0	221.187375641894	221.2373585389	0.0499828970059752
83404	50	399	0	0	railing	1277	90	1	stimuli\railing\railing_04s.jpg	3	-1	1	0	railing_04s.jpg	0	0	0	221.287375324871	221.337358709425	0.0499833845533431
83504	50	400	0	0	tablecloth	1609	91	1	stimuli\tablecloth\tablecloth_08s.jpg	7	-1	1	0	tablecloth_08s.jpg	0	0	0	221.387380859349	221.43736278126	0.0499819219112396
83604	50	401	0	0	dough	513	92	1	stimuli\dough\dough_03s.jpg	2	-1	1	0	dough_03s.jpg	0	0	0	221.487381517887	221.537383188028	0.0500016701407731
83704	50	402	0	0	stirrup	1558	93	1	stimuli\stirrup\stirrup_11s.jpg	10	-1	1	0	stirrup_11s.jpg	0	0	0	221.587386808358	221.637367267162	0.0499804588034749
83804	50	403	0	0	spam	1504	94	1	stimuli\spam\spam_11s.jpg	10	-1	1	0	spam_11s.jpg	0	0	0	221.68738722289	221.737369875889	0.0499826529994607
83904	50	404	0	0	earwig	541	95	1	stimuli\earwig\earwig_02s.jpg	1	-1	1	0	earwig_02s.jpg	0	0	0	221.78741908865	221.837374191266	0.0499551026150584
84004	50	405	0	0	barrel	76	96	1	stimuli\barrel\barrel_05s.jpg	4	-1	1	0	barrel_05s.jpg	0	0	0	221.887391952798	221.937374361791	0.0499824089929461
84104	50	406	0	0	bull	214	97	1	stimuli\bull\bull_06s.jpg	5	-1	1	0	bull_06s.jpg	0	0	0	221.987398218829	222.037381846923	0.0499836280941963
84204	50	407	0	0	chaps	306	98	1	stimuli\chaps\chaps_11s.jpg	10	-1	1	0	chaps_11s.jpg	0	0	0	222.087399364449	222.137381042354	0.0499816779047251
84304	50	408	0	0	gargoyle	657	99	1	stimuli\gargoyle\gargoyle_07s.jpg	6	-1	1	0	gargoyle_07s.jpg	0	0	0	222.187403923832	222.237382675987	0.0499787521548569
84404	50	409	0	0	beet	114	100	1	stimuli\beet\beet_04s.jpg	3	-1	1	1	beet_04s.jpg	0	0	0	222.287401900161	222.337386503816	0.0499846036545932
84504	50	410	0	0	clothesline	362	101	1	stimuli\clothesline\clothesline_06s.jpg	5	-1	1	0	clothesline_06s.jpg	0	0	0	222.387408166192	222.437391062733	0.049982896540314
84604	50	411	0	0	footprint	632	102	1	stimuli\footprint\footprint_05s.jpg	4	-1	1	0	footprint_05s.jpg	0	0	0	222.487407361623	222.537405130919	0.0499977692961693
84704	50	412	0	0	flower	619	103	1	stimuli\flower\flower_07s.jpg	6	-1	1	0	flower_07s.jpg	1	0.341912826988846	1	222.587414115202	222.637395792641	0.0499816774390638
84804	50	413	0	0	baton3	94	104	1	stimuli\baton3\baton3_03s.jpg	2	-1	1	0	baton3_03s.jpg	0	0	0	222.687412823085	222.737395719625	0.049982896540314
84904	50	414	0	0	potpie	1234	105	1	stimuli\potpie\potpie_04s.jpg	3	-1	1	0	potpie_04s.jpg	0	0	0	222.78741908865	222.837401498109	0.0499824094586074
85004	50	415	0	0	banner	70	106	1	stimuli\banner\banner_04s.jpg	3	-1	1	0	banner_04s.jpg	0	0	0	222.887416333891	222.937404838391	0.049988504499197
85104	50	416	0	0	vise	1765	107	1	stimuli\vise\vise_02s.jpg	1	-1	1	0	vise_02s.jpg	0	0	0	222.987422599923	223.037406228017	0.0499836280941963
85204	50	417	0	0	ladle	887	108	1	stimuli\ladle\ladle_02s.jpg	1	-1	1	0	ladle_02s.jpg	0	0	0	223.087426427286	223.13740786165	0.0499814343638718
85304	50	418	0	0	valve	1751	109	1	stimuli\valve\valve_01b.jpg	0	-1	1	0	valve_01b.jpg	0	0	0	223.187430743128	223.237412177026	0.0499814338982105
85404	50	419	0	0	polo_shirt	1216	110	1	stimuli\polo_shirt\polo_shirt_03s.jpg	2	-1	1	0	polo_shirt_03s.jpg	0	0	0	223.287429938558	223.337414785754	0.0499848471954465
85504	50	420	0	0	tee	1636	111	1	stimuli\tee\tee_08s.jpg	7	-1	1	0	tee_08s.jpg	0	0	0	223.387437179685	223.437415931374	0.0499787516891956
85604	50	421	0	0	fudge	647	112	1	stimuli\fudge\fudge_05s.jpg	4	-1	1	0	fudge_05s.jpg	0	0	0	223.487432961818	223.537419515662	0.0499865538440645
85704	50	422	0	0	screen1	1388	113	1	stimuli\screen1\screen1_08s.jpg	7	-1	1	0	screen1_08s.jpg	0	0	0	223.58744239714	223.637420905288	0.0499785081483424
85804	50	423	0	0	gate	662	114	1	stimuli\gate\gate_01b.jpg	0	-1	1	0	gate_01b.jpg	0	0	0	223.68744451832	223.737435948104	0.0499914297834039
85904	50	424	0	0	spider	1513	115	1	stimuli\spider\spider_01b.jpg	0	-1	1	0	spider_01b.jpg	0	0	0	223.787444932852	223.837426854298	0.0499819214455783
86004	50	425	0	0	spareribs	1505	116	1	stimuli\spareribs\spareribs_03s.jpg	2	-1	1	0	spareribs_03s.jpg	0	0	0	223.887445346918	223.937427756377	0.0499824094586074
86104	50	426	0	0	spur	1525	117	1	stimuli\spur\spur_02s.jpg	1	-1	1	0	spur_02s.jpg	0	0	0	223.9874486872	224.037430852652	0.0499821654520929
86204	50	427	0	0	squirt_gun	1530	118	1	stimuli\squirt_gun\squirt_gun_11s.jpg	10	-1	1	0	squirt_gun_11s.jpg	0	0	0	224.087451295927	224.137434192933	0.0499828970059752
86304	50	428	0	0	straightjacket	1565	119	1	stimuli\straightjacket\straightjacket_08s.jpg	7	-1	1	0	straightjacket_08s.jpg	0	0	0	224.18745585531	224.237437776756	0.0499819214455783
86404	50	429	0	0	suit	1580	120	1	stimuli\suit\suit_04s.jpg	3	-1	1	0	suit_04s.jpg	0	0	0	224.287454806734	224.337441361044	0.0499865543097258
86504	50	430	0	0	tape	1622	121	1	stimuli\tape\tape_02s.jpg	1	-1	1	0	tape_02s.jpg	0	0	0	224.387459853664	224.437445919961	0.0499860662966967
86604	50	431	0	0	yarn	1846	122	1	stimuli\yarn\yarn_06s.jpg	5	-1	1	0	yarn_06s.jpg	0	0	0	224.487460512202	224.537447309587	0.0499867973849177
86704	50	432	0	0	water_cooler	1788	123	1	stimuli\water_cooler\water_cooler_07s.jpg	6	-1	1	0	water_cooler_07s.jpg	0	0	0	224.587469703518	224.637447968125	0.0499782646074891
86804	50	433	0	0	closet	360	124	1	stimuli\closet\closet_02s.jpg	1	-1	1	0	closet_02s.jpg	0	0	0	224.68746524211	224.737450576853	0.0499853347428143
86904	50	434	0	0	pine_needle	1180	125	1	stimuli\pine_needle\pine_needle_03s.jpg	2	-1	1	0	pine_needle_03s.jpg	0	0	0	224.787472970784	224.837455379777	0.0499824089929461
87004	50	435	0	0	pedal	1136	126	1	stimuli\pedal\pedal_12s.jpg	11	-1	1	0	pedal_12s.jpg	0	0	0	224.887473872863	224.937455550767	0.0499816779047251
87104	50	436	0	0	hawk	760	127	1	stimuli\hawk\hawk_04s.jpg	3	-1	1	0	hawk_04s.jpg	0	0	0	224.987475994043	225.03745913459	0.0499831405468285
87204	50	437	0	0	paper_bag	1113	128	1	stimuli\paper_bag\paper_bag_07s.jpg	6	-1	1	0	paper_bag_07s.jpg	0	0	0	225.087478602771	225.137461987324	0.0499833845533431
87304	50	438	0	0	napkin_ring	1051	129	1	stimuli\napkin_ring\napkin_ring_02s.jpg	1	-1	1	0	napkin_ring_02s.jpg	0	0	0	225.187483162154	225.237466058694	0.049982896540314
87404	50	439	0	0	chisel	336	130	1	stimuli\chisel\chisel_10s.jpg	9	-1	1	0	chisel_10s.jpg	0	0	0	225.287482113577	225.337465985678	0.0499838721007109
87504	50	440	0	0	snowsuit	1486	131	1	stimuli\snowsuit\snowsuit_03s.jpg	2	-1	1	0	snowsuit_03s.jpg	0	0	0	225.38748667296	225.437468350399	0.0499816774390638
87604	50	441	0	0	dish	489	132	1	stimuli\dish\dish_12s.jpg	11	-1	1	0	dish_12s.jpg	0	0	0	225.487491963431	225.537472665776	0.0499807023443282
87704	50	442	0	0	scallop	1373	133	1	stimuli\scallop\scallop_11s.jpg	10	-1	1	0	scallop_11s.jpg	0	0	0	225.587495059706	225.637476250064	0.0499811903573573
87804	50	443	0	0	teepee	1637	134	1	stimuli\teepee\teepee_08s.jpg	7	-1	1	0	teepee_08s.jpg	0	0	0	225.687494255137	225.737478371244	0.0499841161072254
87904	50	444	0	0	bumper	219	135	1	stimuli\bumper\bumper_02s.jpg	1	-1	1	0	bumper_02s.jpg	0	0	0	225.787499546073	225.837479516864	0.0499799707904458
88004	50	445	0	0	girl	676	136	1	stimuli\girl\girl_08s.jpg	7	-1	1	0	girl_08s.jpg	0	0	0	225.887496790849	225.937480906956	0.0499841161072254
88104	50	446	0	0	goggles	686	137	1	stimuli\goggles\goggles_03s.jpg	2	-1	1	0	goggles_03s.jpg	0	0	0	225.987503788434	226.03748595342	0.0499821649864316
88204	50	447	0	0	oatmeal	1069	138	1	stimuli\oatmeal\oatmeal_08s.jpg	7	-1	1	0	oatmeal_08s.jpg	0	0	0	226.087502983864	226.137486367952	0.0499833840876818
88304	50	448	0	0	coffeemaker	382	139	1	stimuli\coffeemaker\coffeemaker_09s.jpg	8	-1	1	0	coffeemaker_09s.jpg	0	0	0	226.187511200085	226.237490195781	0.0499789956957102
88404	50	449	0	0	gasket	661	140	1	stimuli\gasket\gasket_03s.jpg	2	-1	1	0	gasket_03s.jpg	0	0	0	226.287507225759	226.33749207342	0.0499848476611078
88504	50	450	0	0	iron	832	141	1	stimuli\iron\iron_10s.jpg	9	-1	1	0	iron_10s.jpg	0	0	0	226.387514954899	226.437494682148	0.0499797272495925
88604	50	451	0	0	tongs	1674	142	1	stimuli\tongs\tongs_03s.jpg	2	-1	1	0	tongs_03s.jpg	0	0	0	226.48751536943	226.53749826597	0.049982896540314
88704	50	452	0	0	clock	359	143	1	stimuli\clock\clock_01b.jpg	0	-1	1	0	clock_01b.jpg	0	0	0	226.587522122543	226.637502093799	0.0499799712561071
88804	50	453	0	0	cheese	312	144	1	stimuli\cheese\cheese_04s.jpg	3	-1	1	1	cheese_04s.jpg	0	0	0	226.687517904676	226.737502508331	0.0499846036545932
88904	50	454	0	0	garter	659	145	1	stimuli\garter\garter_03s.jpg	2	-1	1	0	garter_03s.jpg	0	0	0	226.787526364904	226.837509017903	0.0499826529994607
89004	50	455	0	0	wrist	1842	146	1	stimuli\wrist\wrist_02s.jpg	1	-1	1	0	wrist_02s.jpg	0	0	0	226.88752165949	226.93751138309	0.0499897236004472
89104	50	456	0	0	guacamole	719	147	1	stimuli\guacamole\guacamole_10s.jpg	9	-1	1	0	guacamole_10s.jpg	1	0.292138874996454	1	226.987532313913	227.03751252871	0.0499802147969604
89204	50	457	0	0	waterwheel	1794	148	1	stimuli\waterwheel\waterwheel_11s.jpg	10	-1	1	0	waterwheel_11s.jpg	0	0	0	227.087529802695	227.137512211688	0.0499824089929461
89304	50	458	0	0	palette	1100	149	1	stimuli\palette\palette_08s.jpg	7	-1	1	0	palette_08s.jpg	0	0	0	227.18753680028	227.237517746165	0.0499809458851814
89404	50	459	0	0	peach	1129	150	1	stimuli\peach\peach_01b.jpg	0	-1	1	0	peach_01b.jpg	0	0	0	227.287536239251	227.337524012197	0.0499877729453146
89504	50	460	0	0	mailbox	960	151	1	stimuli\mailbox\mailbox_07s.jpg	6	-1	1	0	mailbox_07s.jpg	0	0	0	227.387538847979	227.437523939181	0.049985091201961
89604	50	461	0	0	tostada	1688	152	1	stimuli\tostada\tostada_02s.jpg	1	-1	1	0	tostada_02s.jpg	0	0	0	227.487539994065	227.537523378152	0.0499833840876818
89704	50	462	0	0	jewel	849	153	1	stimuli\jewel\jewel_08s.jpg	7	-1	1	0	jewel_08s.jpg	0	0	0	227.587546747644	227.637530619279	0.0499838716350496
89804	50	463	0	0	container	398	154	1	stimuli\container\container_10s.jpg	9	-1	1	0	container_10s.jpg	0	0	0	227.68754521152	227.737530058715	0.0499848471954465
89904	50	464	0	0	pacifier	1093	155	1	stimuli\pacifier\pacifier_08s.jpg	7	-1	1	0	pacifier_08s.jpg	0	0	0	227.787555865943	227.837534861639	0.0499789956957102
90004	50	465	0	0	motorcycle	1025	156	1	stimuli\motorcycle\motorcycle_01b.jpg	0	-1	1	0	motorcycle_01b.jpg	0	0	0	227.887551892083	227.93753503263	0.0499831405468285
90104	50	466	0	0	caviar	289	157	1	stimuli\caviar\caviar_08s.jpg	7	-1	1	0	caviar_08s.jpg	0	0	0	227.987556695007	228.037535934709	0.0499792397022247
90204	50	467	0	0	torpedo	1684	158	1	stimuli\torpedo\torpedo_02s.jpg	1	-1	1	0	torpedo_02s.jpg	0	0	0	228.08755832864	228.137539762538	0.0499814338982105
90304	50	468	0	0	pine_tree	1181	159	1	stimuli\pine_tree\pine_tree_12s.jpg	11	-1	1	0	pine_tree_12s.jpg	0	0	0	228.187560937367	228.237543590367	0.0499826529994607
90404	50	469	0	0	bear	105	160	1	stimuli\bear\bear_06n.jpg	5	-1	1	0	bear_06n.jpg	0	0	0	228.28756452119	228.337545223534	0.0499807023443282
90504	50	470	0	0	kimono	873	161	1	stimuli\kimono\kimono_07s.jpg	6	-1	1	0	kimono_07s.jpg	0	0	0	228.387569080573	228.437549782917	0.0499807023443282
90604	50	471	0	0	mistletoe	1007	162	1	stimuli\mistletoe\mistletoe_11s.jpg	10	-1	1	0	mistletoe_11s.jpg	0	0	0	228.487569251098	228.53755141655	0.0499821654520929
90704	50	472	0	0	prune	1244	163	1	stimuli\prune\prune_05s.jpg	4	-1	1	0	prune_05s.jpg	0	0	0	228.587573078927	228.637554512825	0.0499814338982105
90804	50	473	0	0	hairpin	737	164	1	stimuli\hairpin\hairpin_09s.jpg	8	-1	1	0	hairpin_09s.jpg	0	0	0	228.687573249452	228.737554927357	0.0499816779047251
90904	50	474	0	0	ice	816	165	1	stimuli\ice\ice_12s.jpg	11	-1	1	0	ice_12s.jpg	0	0	0	228.787580490578	228.83756265603	0.0499821654520929
91004	50	475	0	0	penguin	1145	166	1	stimuli\penguin\penguin_01b.jpg	0	-1	1	0	penguin_01b.jpg	0	0	0	228.887577248272	228.937562826555	0.0499855782836676
91104	50	476	0	0	tripod	1714	167	1	stimuli\tripod\tripod_07s.jpg	6	-1	1	0	tripod_07s.jpg	0	0	0	228.987583757844	229.037572505884	0.0499887480400503
91204	50	477	0	0	cage	236	168	1	stimuli\cage\cage_08s.jpg	7	-1	1	0	cage_08s.jpg	0	0	0	229.087593437172	229.137569994666	0.0499765574932098
91304	50	478	0	0	foot	628	169	1	stimuli\foot\foot_03s.jpg	2	-1	1	0	foot_03s.jpg	0	0	0	229.187589462847	229.237570896745	0.0499814338982105
91404	50	479	0	0	periscope	1155	170	1	stimuli\periscope\periscope_04s.jpg	3	-1	1	0	periscope_04s.jpg	0	0	0	229.28758817073	229.33757399302	0.0499858222901821
91504	50	480	0	0	mascara	978	171	1	stimuli\mascara\mascara_12s.jpg	11	-1	1	0	mascara_12s.jpg	0	0	0	229.387594924308	229.437576845754	0.0499819214455783
91604	50	481	0	0	bra	185	172	1	stimuli\bra\bra_06s.jpg	5	-1	1	0	bra_06s.jpg	0	0	0	229.487593144644	229.53757823538	0.0499850907362998
91704	50	482	0	0	pocket_watch	1206	173	1	stimuli\pocket_watch\pocket_watch_06s.jpg	5	-1	1	0	pocket_watch_06s.jpg	0	0	0	229.587602092419	229.637579381466	0.0499772890470922
91804	50	483	0	0	light_switch	926	174	1	stimuli\light_switch\light_switch_01b.jpg	0	-1	1	0	light_switch_01b.jpg	0	0	0	229.687611040194	229.737581746187	0.0499707059934735
91904	50	484	0	0	gurney	728	175	1	stimuli\gurney\gurney_12s.jpg	11	-1	1	0	gurney_12s.jpg	0	0	0	229.787604140118	229.837587037124	0.0499828970059752
92004	50	485	0	0	scoop	1381	176	1	stimuli\scoop\scoop_01b.jpg	0	-1	1	0	scoop_01b.jpg	0	0	0	229.887602848001	229.937588670757	0.0499858227558434
92104	50	486	0	0	kangaroo	862	177	1	stimuli\kangaroo\kangaroo_10s.jpg	9	-1	1	0	kangaroo_10s.jpg	0	0	0	229.987608382478	230.037595667876	0.0499872853979468
92204	50	487	0	0	stomach	1560	178	1	stimuli\stomach\stomach_06s.jpg	5	-1	1	0	stomach_06s.jpg	0	0	0	230.087611478753	230.137596569955	0.049985091201961
92304	50	488	0	0	pie	1168	179	1	stimuli\pie\pie_05s.jpg	4	-1	1	0	pie_05s.jpg	0	0	0	230.187615550589	230.23759649694	0.0499809463508427
92404	50	489	0	0	joystick	852	180	1	stimuli\joystick\joystick_11s.jpg	10	-1	1	0	joystick_11s.jpg	0	0	0	230.287619134411	230.337602762505	0.0499836280941963
92504	50	490	0	0	maple_syrup	971	181	1	stimuli\maple_syrup\maple_syrup_02s.jpg	1	-1	1	0	maple_syrup_02s.jpg	0	0	0	230.387623449787	230.437605127692	0.0499816779047251
92604	50	491	0	0	camera_lens	248	182	1	stimuli\camera_lens\camera_lens_08s.jpg	7	-1	1	0	camera_lens_08s.jpg	0	0	0	230.487623133231	230.537608467974	0.0499853347428143
92704	50	492	0	0	photo_booth	1163	183	1	stimuli\photo_booth\photo_booth_03s.jpg	2	-1	1	0	photo_booth_03s.jpg	0	0	0	230.587631592993	230.637608638499	0.0499770455062389
92804	50	493	0	0	caterpillar	286	184	1	stimuli\caterpillar\caterpillar_04s.jpg	3	-1	1	0	caterpillar_04s.jpg	0	0	0	230.687630544882	230.737613685429	0.0499831405468285
92904	50	494	0	0	dashboard	475	185	1	stimuli\dashboard\dashboard_01b.jpg	0	-1	1	0	dashboard_01b.jpg	0	0	0	230.787634128705	230.837617269251	0.0499831405468285
93004	50	495	0	0	stereo	1549	186	1	stimuli\stereo\stereo_06s.jpg	5	-1	1	0	stereo_06s.jpg	0	0	0	230.887636249885	230.937618415337	0.0499821654520929
93104	50	496	0	0	spatula	1508	187	1	stimuli\spatula\spatula_01b.jpg	0	-1	1	0	spatula_01b.jpg	0	0	0	230.987643735018	231.037624924909	0.049981189891696
93204	50	497	0	0	piano	1165	188	1	stimuli\piano\piano_10n.jpg	9	-1	1	0	piano_10n.jpg	0	0	0	231.087640979793	231.137624607887	0.0499836280941963
93304	50	498	0	0	mulch	1038	189	1	stimuli\mulch\mulch_07s.jpg	6	-1	1	0	mulch_07s.jpg	0	0	0	231.18764651427	231.237628923263	0.0499824089929461
93404	50	499	0	0	slipper	1468	190	1	stimuli\slipper\slipper_08s.jpg	7	-1	1	0	slipper_08s.jpg	0	0	0	231.287646928802	231.337629094254	0.0499821654520929
93504	50	500	0	0	beehive	112	191	1	stimuli\beehive\beehive_12s.jpg	11	-1	1	0	beehive_12s.jpg	0	0	0	231.387650025077	231.437630727887	0.0499807028099895
93604	50	501	0	0	whale	1804	192	1	stimuli\whale\whale_01b.jpg	0	-1	1	0	whale_01b.jpg	0	0	0	231.487650439609	231.537635530811	0.049985091201961
93704	50	502	0	0	road_sign	1315	193	1	stimuli\road_sign\road_sign_08s.jpg	7	-1	1	0	road_sign_08s.jpg	0	0	0	231.58765670564	231.63764837943	0.0499916737899184
93804	50	503	0	0	sheath	1413	194	1	stimuli\sheath\sheath_01b.jpg	0	-1	1	0	sheath_01b.jpg	0	0	0	231.687657607719	231.73764050426	0.049982896540314
93904	50	504	0	0	moose	1018	195	1	stimuli\moose\moose_12s.jpg	11	-1	1	0	moose_12s.jpg	0	0	0	231.787660948001	231.837645307649	0.0499843596480787
94004	50	505	0	0	cloak	358	196	1	stimuli\cloak\cloak_10s.jpg	9	-1	1	0	cloak_10s.jpg	0	0	0	231.887662825175	231.937645234168	0.0499824089929461
94104	50	506	0	0	crystal2	454	197	1	stimuli\crystal2\crystal2_02s.jpg	1	-1	1	0	crystal2_02s.jpg	0	0	0	231.9876817693	232.037648574449	0.0499668051488698
94204	50	507	0	0	viewfinder	1763	198	1	stimuli\viewfinder\viewfinder_11s.jpg	10	-1	1	0	viewfinder_11s.jpg	0	0	0	232.087667067535	232.137650695629	0.0499836280941963
94304	50	508	0	0	pita	1189	199	1	stimuli\pita\pita_12s.jpg	11	-1	1	0	pita_12s.jpg	0	0	0	232.187672114465	232.237655986566	0.0499838721007109
94404	50	509	0	0	sweet_potato	1595	200	1	stimuli\sweet_potato\sweet_potato_01b.jpg	0	-1	1	0	sweet_potato_01b.jpg	0	0	0	232.287672772538	232.337655181997	0.0499824094586074
94504	50	510	0	0	crouton	445	201	1	stimuli\crouton\crouton_11n.jpg	10	-1	1	0	crouton_11n.jpg	0	0	0	232.387680501211	232.43765900936	0.0499785081483424
94604	50	511	0	0	humvee	813	202	1	stimuli\humvee\humvee_03s.jpg	2	-1	1	0	humvee_03s.jpg	0	0	0	232.487678721547	232.537659911904	0.0499811903573573
94704	50	512	0	0	cork	409	203	1	stimuli\cork\cork_07s.jpg	6	-1	1	0	cork_07s.jpg	0	0	0	232.587683524471	232.637662276626	0.0499787521548569
94804	50	513	0	0	fish	600	204	1	stimuli\fish\fish_05s.jpg	4	-1	1	0	fish_05s.jpg	0	0	0	232.687683451455	232.737666348461	0.0499828970059752
94904	50	514	0	0	chime	328	205	1	stimuli\chime\chime_10s.jpg	9	-1	1	0	chime_10s.jpg	0	0	0	232.787690692581	232.837670907378	0.0499802147969604
95004	50	515	0	0	letter_opener	919	206	1	stimuli\letter_opener\letter_opener_03s.jpg	2	-1	1	0	letter_opener_03s.jpg	0	0	0	232.887690863106	232.937670590356	0.0499797272495925
95104	50	516	0	0	wheel	1806	207	1	stimuli\wheel\wheel_10s.jpg	9	-1	1	0	wheel_10s.jpg	0	0	0	232.987693228293	233.037675393745	0.0499821654520929
95204	50	517	0	0	penholder	1146	208	1	stimuli\penholder\penholder_11s.jpg	10	-1	1	0	penholder_11s.jpg	0	0	0	233.087708271109	233.137677270919	0.0499689998105168
95304	50	518	0	0	muffin	1035	209	1	stimuli\muffin\muffin_12n.jpg	11	-1	1	0	muffin_12n.jpg	0	0	0	233.187696983106	233.237681830302	0.0499848471954465
95404	50	519	0	0	modem	1011	210	1	stimuli\modem\modem_06s.jpg	5	-1	1	0	modem_06s.jpg	0	0	0	233.287699103821	233.337682732381	0.0499836285598576
95504	50	520	0	0	sewing_machine	1407	211	1	stimuli\sewing_machine\sewing_machine_08s.jpg	7	-1	1	0	sewing_machine_08s.jpg	0	0	0	233.387704882305	233.437684853561	0.0499799712561071
95604	50	521	0	0	hula_hoop	810	212	1	stimuli\hula_hoop\hula_hoop_02s.jpg	1	-1	1	0	hula_hoop_02s.jpg	0	0	0	233.487711635884	233.53768868139	0.0499770455062389
95704	50	522	0	0	tree_trunk	1709	213	1	stimuli\tree_trunk\tree_trunk_04s.jpg	3	-1	1	0	tree_trunk_04s.jpg	0	0	0	233.587707661558	233.637691046111	0.0499833845533431
95804	50	523	0	0	piggy_bank	1172	214	1	stimuli\piggy_bank\piggy_bank_10s.jpg	9	-1	1	0	piggy_bank_10s.jpg	0	0	0	233.687708563637	233.737708527129	0.0499999634921551
95904	50	524	0	0	knob	882	215	1	stimuli\knob\knob_06s.jpg	5	-1	1	1	knob_06s.jpg	0	0	0	233.787714098115	233.837698457763	0.0499843596480787
96004	50	525	0	0	scarf	1377	216	1	stimuli\scarf\scarf_01s.jpg	0	-1	1	0	scarf_01s.jpg	1	0.1419034646824	1	233.887714756653	233.937698628753	0.0499838721007109
96104	50	526	0	0	cornbread	413	217	1	stimuli\cornbread\cornbread_02s.jpg	1	-1	1	0	cornbread_02s.jpg	0	0	0	233.987720778678	234.03770001838	0.0499792397022247
96204	50	527	0	0	goat	684	218	1	stimuli\goat\goat_04s.jpg	3	-1	1	0	goat_04s.jpg	0	0	0	234.087719730567	234.137705308851	0.0499855782836676
96304	50	528	0	0	seatbelt	1399	219	1	stimuli\seatbelt\seatbelt_08s.jpg	7	-1	1	0	seatbelt_08s.jpg	0	0	0	234.187729165889	234.237713525537	0.0499843596480787
96404	50	529	0	0	breathalyzer	198	220	1	stimuli\breathalyzer\breathalyzer_01b.jpg	0	-1	1	0	breathalyzer_01b.jpg	0	0	0	234.287729092408	234.337709795218	0.0499807028099895
96504	50	530	0	0	cup	460	221	1	stimuli\cup\cup_12s.jpg	11	-1	1	0	cup_12s.jpg	0	0	0	234.3877304825	234.437710940838	0.0499804583378136
96604	50	531	0	0	filing_cabinet	585	222	1	stimuli\filing_cabinet\filing_cabinet_12s.jpg	11	-1	1	0	filing_cabinet_12s.jpg	0	0	0	234.48773162812	234.537713062018	0.0499814338982105
96704	50	532	0	0	skull	1458	223	1	stimuli\skull\skull_09s.jpg	8	-1	1	0	skull_09s.jpg	0	0	0	234.587736919057	234.637716158293	0.0499792392365634
96804	50	533	0	0	doghouse	497	224	1	stimuli\doghouse\doghouse_04s.jpg	3	-1	1	0	doghouse_04s.jpg	0	0	0	234.687736845575	234.737719986122	0.0499831405468285
96904	50	534	0	0	cardinal	274	225	1	stimuli\cardinal\cardinal_02s.jpg	1	-1	1	0	cardinal_02s.jpg	0	0	0	234.787739942316	234.8377255206	0.0499855782836676
97004	50	535	0	0	cheesecake	314	226	1	stimuli\cheesecake\cheesecake_03s.jpg	2	-1	1	0	cheesecake_03s.jpg	0	0	0	234.887743770145	234.937724228483	0.0499804583378136
97104	50	536	0	0	mosquito_net	1021	227	1	stimuli\mosquito_net\mosquito_net_10s.jpg	9	-1	1	0	mosquito_net_10s.jpg	0	0	0	234.987747353967	235.037728543859	0.049981189891696
97204	50	537	0	0	metal_detector	996	228	1	stimuli\metal_detector\metal_detector_12s.jpg	11	-1	1	0	metal_detector_12s.jpg	0	0	0	235.087749475148	235.137731152587	0.0499816774390638
97304	50	538	0	0	cornhusk	414	229	1	stimuli\cornhusk\cornhusk_09s.jpg	8	-1	1	0	cornhusk_09s.jpg	0	0	0	235.18775013322	235.237734492868	0.0499843596480787
97404	50	539	0	0	mosquito	1020	230	1	stimuli\mosquito\mosquito_07s.jpg	6	-1	1	0	mosquito_07s.jpg	0	0	0	235.287751279306	235.337738808244	0.0499875289388001
97504	50	540	0	0	bag	54	231	1	stimuli\bag\bag_06s.jpg	5	-1	1	0	bag_06s.jpg	0	0	0	235.387756569777	235.437737272587	0.0499807028099895
97604	50	541	0	0	rocking_chair	1321	232	1	stimuli\rocking_chair\rocking_chair_06s.jpg	5	-1	1	0	rocking_chair_06s.jpg	0	0	0	235.487757715862	235.537739881314	0.0499821654520929
97704	50	542	0	0	magnifier	957	233	1	stimuli\magnifier\magnifier_11s.jpg	10	-1	1	0	magnifier_11s.jpg	0	0	0	235.587762762792	235.637744196691	0.0499814338982105
97804	50	543	0	0	fuse	652	234	1	stimuli\fuse\fuse_12s.jpg	11	-1	1	0	fuse_12s.jpg	0	0	0	235.68779804185	235.737747536972	0.0499494951218367
97904	50	544	0	0	wrap	1837	235	1	stimuli\wrap\wrap_05s.jpg	4	-1	1	0	wrap_05s.jpg	0	0	0	235.787769930903	235.837750389241	0.0499804583378136
98004	50	545	0	0	jewelry	850	236	1	stimuli\jewelry\jewelry_12s.jpg	11	-1	1	0	jewelry_12s.jpg	0	0	0	235.887771808077	235.937751535326	0.0499797272495925
98104	50	546	0	0	gravel	709	237	1	stimuli\gravel\gravel_05n.jpg	4	-1	1	0	gravel_05n.jpg	0	0	0	235.98777368525	236.037754144054	0.0499804588034749
98204	50	547	0	0	badger	53	238	1	stimuli\badger\badger_12s.jpg	11	-1	1	0	badger_12s.jpg	0	0	0	236.08777263714	236.137758703437	0.0499860662966967
98304	50	548	0	0	gourd	696	239	1	stimuli\gourd\gourd_04s.jpg	3	-1	1	0	gourd_04s.jpg	0	0	0	236.187777196057	236.237759117968	0.0499819219112396
98404	50	549	0	0	turban	1730	240	1	stimuli\turban\turban_02s.jpg	1	-1	1	0	turban_02s.jpg	0	0	0	236.287778098136	236.337762701791	0.0499846036545932
98504	50	550	0	0	bib	122	241	1	stimuli\bib\bib_04s.jpg	3	-1	1	1	bib_04s.jpg	0	0	0	236.387785339262	236.43776652962	0.0499811903573573
98604	50	551	0	0	vase	1753	242	1	stimuli\vase\vase_09s.jpg	8	-1	1	0	vase_09s.jpg	0	0	0	236.487785753794	236.537768894341	0.0499831405468285
98704	50	552	0	0	spinach	1515	243	1	stimuli\spinach\spinach_10s.jpg	9	-1	1	0	spinach_10s.jpg	0	0	0	236.587789094076	236.637770284433	0.0499811903573573
98804	50	553	0	0	man	963	244	1	stimuli\man\man_10s.jpg	9	-1	1	0	man_10s.jpg	0	0	0	236.687792921904	236.737773380708	0.0499804588034749
98904	50	554	0	0	trombone	1716	245	1	stimuli\trombone\trombone_06s.jpg	5	-1	1	0	trombone_06s.jpg	1	0.392144897021353	1	236.787795287091	236.837778427638	0.0499831405468285
99004	50	555	0	0	yoke	1849	246	1	stimuli\yoke\yoke_05s.jpg	4	-1	1	0	yoke_05s.jpg	0	0	0	236.887796432711	236.937779085711	0.0499826529994607
99104	50	556	0	0	baseball	78	247	1	stimuli\baseball\baseball_06s.jpg	5	-1	1	0	baseball_06s.jpg	0	0	0	236.98780318629	237.037780719344	0.0499775330536067
99204	50	557	0	0	chimney	329	248	1	stimuli\chimney\chimney_06s.jpg	5	-1	1	0	chimney_06s.jpg	0	0	0	237.087804819923	237.137784790713	0.0499799707904458
99304	50	558	0	0	sea_urchin	1393	249	1	stimuli\sea_urchin\sea_urchin_03s.jpg	2	-1	1	0	sea_urchin_03s.jpg	0	0	0	237.187804258894	237.237785692792	0.0499814338982105
99404	50	559	0	0	statue	1543	250	1	stimuli\statue\statue_12s.jpg	11	-1	1	0	statue_12s.jpg	0	0	0	237.287805892527	237.337786838878	0.0499809463508427
99504	50	560	0	0	tweezers	1739	251	1	stimuli\tweezers\tweezers_06s.jpg	5	-1	1	0	tweezers_06s.jpg	0	0	0	237.387809720356	237.437794811558	0.049985091201961
99604	50	561	0	0	bologna	158	252	1	stimuli\bologna\bologna_02s.jpg	1	-1	1	0	bologna_02s.jpg	0	0	0	237.487810866442	237.537793031428	0.0499821649864316
99704	50	562	0	0	whip	1809	253	1	stimuli\whip\whip_12s.jpg	11	-1	1	0	whip_12s.jpg	0	0	0	237.587815913372	237.637798565906	0.0499826525337994
99804	50	563	0	0	tadpole	1614	254	1	stimuli\tadpole\tadpole_10s.jpg	9	-1	1	0	tadpole_10s.jpg	0	0	0	237.687816083897	237.737801175099	0.049985091201961
99904	50	564	0	0	coal	367	255	1	stimuli\coal\coal_09s.jpg	8	-1	1	0	coal_09s.jpg	0	0	0	237.787822105922	237.837804758921	0.0499826529994607
100004	50	565	0	0	cooker	399	256	1	stimuli\cooker\cooker_03s.jpg	2	-1	1	0	cooker_03s.jpg	0	0	0	237.887820813805	237.937803710345	0.049982896540314
100104	50	566	0	0	ring	1313	257	1	stimuli\ring\ring_06s.jpg	5	-1	1	0	ring_06s.jpg	0	0	0	237.987826591823	238.037809732836	0.0499831410124898
100204	50	567	0	0	hotdog	805	258	1	stimuli\hotdog\hotdog_12s.jpg	11	-1	1	0	hotdog_12s.jpg	0	0	0	238.087826762814	238.137812585104	0.0499858222901821
100304	50	568	0	0	soccer_ball	1488	259	1	stimuli\soccer_ball\soccer_ball_01b.jpg	0	-1	1	0	soccer_ball_01b.jpg	0	0	0	238.187832784839	238.237811536994	0.0499787521548569
100404	50	569	0	0	lamb_chop	890	260	1	stimuli\lamb_chop\lamb_chop_12s.jpg	11	-1	1	0	lamb_chop_12s.jpg	0	0	0	238.287831005175	238.337815364823	0.0499843596480787
100504	50	570	0	0	breadstick	196	261	1	stimuli\breadstick\breadstick_10s.jpg	9	-1	1	0	breadstick_10s.jpg	0	0	0	238.387838246301	238.437818461098	0.0499802147969604
100604	50	571	0	0	hammer	741	262	1	stimuli\hammer\hammer_01b.jpg	0	-1	1	0	hammer_01b.jpg	0	0	0	238.487838172819	238.537820825819	0.0499826529994607
100704	50	572	0	0	eye_patch	565	263	1	stimuli\eye_patch\eye_patch_08s.jpg	7	-1	1	0	eye_patch_08s.jpg	0	0	0	238.587842000648	238.637826360296	0.0499843596480787
100804	50	573	0	0	can	250	264	1	stimuli\can\can_03s.jpg	2	-1	1	0	can_03s.jpg	0	0	0	238.687841683626	238.737827749923	0.0499860662966967
100904	50	574	0	0	notebook	1064	265	1	stimuli\notebook\notebook_08s.jpg	7	-1	1	0	notebook_08s.jpg	0	0	0	238.787846243009	238.837832065765	0.0499858227558434
101004	50	575	0	0	videogame	1762	266	1	stimuli\videogame\videogame_02s.jpg	1	-1	1	0	videogame_02s.jpg	0	0	0	238.887847632635	238.937830285635	0.0499826529994607
101104	50	576	0	0	fireplace	595	267	1	stimuli\fireplace\fireplace_07s.jpg	6	-1	1	0	fireplace_07s.jpg	0	0	0	238.987854142673	239.037833869923	0.0499797272495925
101204	50	577	0	0	flamethrower	607	268	1	stimuli\flamethrower\flamethrower_11s.jpg	10	-1	1	0	flamethrower_11s.jpg	0	0	0	239.087853825651	239.137838185299	0.0499843596480787
101304	50	578	0	0	pantsuit	1109	269	1	stimuli\pantsuit\pantsuit_08s.jpg	7	-1	1	0	pantsuit_08s.jpg	0	0	0	239.187859847676	239.23784055002	0.0499807023443282
101404	50	579	0	0	dragonfly	514	270	1	stimuli\dragonfly\dragonfly_04s.jpg	3	-1	1	0	dragonfly_04s.jpg	0	0	0	239.287861237302	239.337843646295	0.0499824089929461
101504	50	580	0	0	jeans	842	271	1	stimuli\jeans\jeans_09s.jpg	8	-1	1	0	jeans_09s.jpg	0	0	0	239.387864577584	239.437843817286	0.0499792397022247
101604	50	581	0	0	retainer	1303	272	1	stimuli\retainer\retainer_08s.jpg	7	-1	1	1	retainer_08s.jpg	0	0	0	239.487863773014	239.537846182007	0.0499824089929461
101704	50	582	0	0	car_seat	269	273	1	stimuli\car_seat\car_seat_09s.jpg	8	-1	1	0	car_seat_09s.jpg	0	0	0	239.587873695884	239.63785074139	0.0499770455062389
101804	50	583	0	0	mold1	1012	274	1	stimuli\mold1\mold1_03s.jpg	2	-1	1	0	mold1_03s.jpg	0	0	0	239.68787191622	239.73785286257	0.0499809463508427
101904	50	584	0	0	macadamia	951	275	1	stimuli\macadamia\macadamia_03s.jpg	2	-1	1	0	macadamia_03s.jpg	1	0.341918190475553	1	239.787872818299	239.837857909501	0.049985091201961
102004	50	585	0	0	truck	1720	276	1	stimuli\truck\truck_12s.jpg	11	-1	1	0	truck_12s.jpg	0	0	0	239.887876646128	239.937856617384	0.0499799712561071
102104	50	586	0	0	curb	462	277	1	stimuli\curb\curb_02s.jpg	1	-1	1	0	curb_02s.jpg	0	0	0	239.987879742403	240.037862151861	0.0499824094586074
102204	50	587	0	0	mitten	1008	278	1	stimuli\mitten\mitten_10s.jpg	9	-1	1	0	mitten_10s.jpg	0	0	0	240.087879913393	240.137864272576	0.0499843591824174
102304	50	588	0	0	patch	1125	279	1	stimuli\patch\patch_04s.jpg	3	-1	1	0	patch_04s.jpg	0	0	0	240.187888861168	240.237865906209	0.0499770450405777
102404	50	589	0	0	crayon	435	280	1	stimuli\crayon\crayon_04s.jpg	3	-1	1	0	crayon_04s.jpg	0	0	0	240.287887081038	240.337868271396	0.0499811903573573
102504	50	590	0	0	soy_sauce	1500	281	1	stimuli\soy_sauce\soy_sauce_10s.jpg	9	-1	1	0	soy_sauce_10s.jpg	0	0	0	240.387890665326	240.437871367671	0.0499807023443282
102604	50	591	0	0	puppy	1258	282	1	stimuli\puppy\puppy_09s.jpg	8	-1	1	0	puppy_09s.jpg	0	0	0	240.487892054953	240.537874951493	0.049982896540314
102704	50	592	0	0	onion	1077	283	1	stimuli\onion\onion_11n.jpg	10	-1	1	0	onion_11n.jpg	0	0	0	240.58789466368	240.637876585126	0.0499819214455783
102804	50	593	0	0	jeep	843	284	1	stimuli\jeep\jeep_01b.jpg	0	-1	1	0	jeep_01b.jpg	0	0	0	240.687895809766	240.737877243664	0.0499814338982105
102904	50	594	0	0	hat	757	285	1	stimuli\hat\hat_04s.jpg	3	-1	1	0	hat_04s.jpg	0	0	0	240.787899637129	240.837880339939	0.0499807028099895
103004	50	595	0	0	skunk	1459	286	1	stimuli\skunk\skunk_04s.jpg	3	-1	1	0	skunk_04s.jpg	0	0	0	240.88789980812	240.937882948667	0.0499831405468285
103104	50	596	0	0	backpack	49	287	1	stimuli\backpack\backpack_12s.jpg	11	-1	1	0	backpack_12s.jpg	0	0	0	240.98790387949	241.037885069847	0.0499811903573573
103204	50	597	0	0	walrus	1779	288	1	stimuli\walrus\walrus_01b.jpg	0	-1	1	0	walrus_01b.jpg	0	0	0	241.08790600067	241.137889628764	0.0499836280941963
103304	50	598	0	0	weed	1802	289	1	stimuli\weed\weed_11s.jpg	10	-1	1	0	weed_11s.jpg	0	0	0	241.187911535148	241.237894675694	0.0499831405468285
103404	50	599	0	0	fountain_pen	637	290	1	stimuli\fountain_pen\fountain_pen_07s.jpg	6	-1	1	0	fountain_pen_07s.jpg	0	0	0	241.287913656328	241.337897772435	0.0499841161072254
103504	50	600	0	0	cane	258	291	1	stimuli\cane\cane_05n.jpg	4	-1	1	0	cane_05n.jpg	0	0	0	241.387915533967	241.437901356257	0.0499858222901821
103604	50	601	0	0	dessert	481	292	1	stimuli\dessert\dessert_12s.jpg	11	-1	1	0	dessert_12s.jpg	0	0	0	241.487917898688	241.537901039235	0.0499831405468285
103704	50	602	0	0	slug	1472	293	1	stimuli\slug\slug_11s.jpg	10	-1	1	0	slug_11s.jpg	0	0	0	241.587922701612	241.637902185321	0.0499794837087393
103804	50	603	0	0	butterfly	229	294	1	stimuli\butterfly\butterfly_07s.jpg	6	-1	1	0	butterfly_07s.jpg	0	0	0	241.687921165954	241.737904794049	0.0499836280941963
103904	50	604	0	0	sauce	1362	295	1	stimuli\sauce\sauce_06s.jpg	5	-1	1	0	sauce_06s.jpg	0	0	0	241.787927919067	241.837906671222	0.0499787521548569
104004	50	605	0	0	plunger	1204	296	1	stimuli\plunger\plunger_03s.jpg	2	-1	1	0	plunger_03s.jpg	0	0	0	241.88792638341	241.937910499051	0.0499841156415641
104104	50	606	0	0	thumbtack	1654	297	1	stimuli\thumbtack\thumbtack_06s.jpg	5	-1	1	0	thumbtack_06s.jpg	0	0	0	241.987932892982	242.037915058434	0.0499821654520929
104204	50	607	0	0	chip	333	298	1	stimuli\chip\chip_06n.jpg	5	-1	1	0	chip_06n.jpg	0	0	0	242.087936720811	242.137915960513	0.0499792397022247
104304	50	608	0	0	barbell	72	299	1	stimuli\barbell\barbell_10s.jpg	9	-1	1	0	barbell_10s.jpg	0	0	0	242.187937378883	242.237919544335	0.0499821654520929
104404	50	609	0	0	train_set	1700	300	1	stimuli\train_set\train_set_10s.jpg	9	-1	1	0	train_set_10s.jpg	0	0	0	242.287937793415	242.337920933962	0.0499831405468285
104504	50	610	0	0	lamppost	892	301	1	stimuli\lamppost\lamppost_06s.jpg	5	-1	1	0	lamppost_06s.jpg	0	0	0	242.387943571899	242.437923055142	0.049979483243078
104604	50	611	0	0	slicer	1463	302	1	stimuli\slicer\slicer_09s.jpg	8	-1	1	0	slicer_09s.jpg	0	0	0	242.487944717519	242.53792663943	0.0499819219112396
104704	50	612	0	0	bullet	216	303	1	stimuli\bullet\bullet_05s.jpg	4	-1	1	0	bullet_05s.jpg	0	0	0	242.58794781426	242.637929735705	0.0499819214455783
104804	50	613	0	0	leaf	906	304	1	stimuli\leaf\leaf_09s.jpg	8	-1	1	0	leaf_09s.jpg	0	0	0	242.687949447427	242.73793283198	0.0499833845533431
104904	50	614	0	0	mouthpiece	1032	305	1	stimuli\mouthpiece\mouthpiece_06s.jpg	5	-1	1	0	mouthpiece_06s.jpg	0	0	0	242.787954738364	242.837935684714	0.0499809463508427
105004	50	615	0	0	kale	860	306	1	stimuli\kale\kale_12s.jpg	11	-1	1	0	kale_12s.jpg	0	0	0	242.887953933794	242.937937561888	0.0499836280941963
105104	50	616	0	0	needle	1055	307	1	stimuli\needle\needle_10n.jpg	9	-1	1	0	needle_10n.jpg	0	0	0	242.98795824917	243.037939927075	0.0499816779047251
105204	50	617	0	0	crate	433	308	1	stimuli\crate\crate_09s.jpg	8	-1	1	0	crate_09s.jpg	0	0	0	243.087958663702	243.137941804249	0.0499831405468285
109171	50	618	0	0	bottle_opener	171	0	2	stimuli\bottle_opener\bottle_opener_05s.jpg	4	-1	2	0	bottle_opener_05s.jpg	0	0	0	247.054739376064	247.104722516611	0.0499831405468285
109271	50	619	0	0	towel_rack	1693	1	2	stimuli\towel_rack\towel_rack_03s.jpg	2	-1	2	0	towel_rack_03s.jpg	0	0	0	247.154732964002	247.204715861008	0.0499828970059752
109371	50	620	0	0	dandelion	472	2	2	stimuli\dandelion\dandelion_10s.jpg	9	-1	2	0	dandelion_10s.jpg	0	0	0	247.254735085182	247.304717250634	0.0499821654520929
109471	50	621	0	0	tuxedo	1738	3	2	stimuli\tuxedo\tuxedo_04s.jpg	3	-1	2	0	tuxedo_04s.jpg	0	0	0	247.35473574372	247.404717665166	0.0499819214455783
109571	50	622	0	0	curry	464	4	2	stimuli\curry\curry_04s.jpg	3	-1	2	0	curry_04s.jpg	0	0	0	247.45474274084	247.504723199643	0.0499804588034749
109671	50	623	0	0	breakfast	197	5	2	stimuli\breakfast\breakfast_08s.jpg	7	-1	2	0	breakfast_08s.jpg	0	0	0	247.554741448723	247.604724345263	0.049982896540314
109771	50	624	0	0	teapot	1634	6	2	stimuli\teapot\teapot_01b.jpg	0	-1	2	0	teapot_01b.jpg	0	0	0	247.6547469832	247.704726222903	0.0499792397022247
109871	50	625	0	0	refrigerator	1300	7	2	stimuli\refrigerator\refrigerator_08s.jpg	7	-1	2	0	refrigerator_08s.jpg	0	0	0	247.754748616833	247.80472883163	0.0499802147969604
109971	50	626	0	0	arm	36	8	2	stimuli\arm\arm_03s.jpg	2	-1	2	0	arm_03s.jpg	0	0	0	247.85475000646	247.904730708804	0.0499807023443282
110071	50	627	0	0	tool	1676	9	2	stimuli\tool\tool_02s.jpg	1	-1	2	0	tool_02s.jpg	0	0	0	247.954756760038	248.005042224191	0.0502854641526937
110171	50	628	0	0	bedpan	109	10	2	stimuli\bedpan\bedpan_03s.jpg	2	-1	2	0	bedpan_03s.jpg	0	0	0	248.054760587867	248.10473690182	0.0499763139523566
110271	50	629	0	0	brace	186	11	2	stimuli\brace\brace_11s.jpg	10	-1	2	0	brace_11s.jpg	0	0	0	248.154756613541	248.204740241636	0.0499836280941963
110371	50	630	0	0	stove2	1564	12	2	stimuli\stove2\stove2_03s.jpg	2	-1	2	0	stove2_03s.jpg	0	0	0	248.254762392025	248.304741631728	0.0499792397022247
110471	50	631	0	0	padlock	1095	13	2	stimuli\padlock\padlock_11s.jpg	10	-1	2	0	padlock_11s.jpg	0	0	0	248.354765731841	248.40474521555	0.0499794837087393
110571	50	632	0	0	hydrant	814	14	2	stimuli\hydrant\hydrant_11s.jpg	10	-1	2	0	hydrant_11s.jpg	0	0	0	248.454766146373	248.50474928692	0.0499831405468285
110671	50	633	0	0	marijuana	974	15	2	stimuli\marijuana\marijuana_10s.jpg	9	-1	2	0	marijuana_10s.jpg	0	0	0	248.554768999107	248.604750677012	0.0499816779047251
110771	50	634	0	0	shaving_cream	1410	16	2	stimuli\shaving_cream\shaving_cream_02s.jpg	1	-1	2	0	shaving_cream_02s.jpg	0	0	0	248.654770876281	248.704751822632	0.0499809463508427
110871	50	635	0	0	hair	733	17	2	stimuli\hair\hair_03s.jpg	2	-1	2	0	hair_03s.jpg	0	0	0	248.754779092968	248.804756869562	0.04997777659446
110971	50	636	0	0	tomato	1672	18	2	stimuli\tomato\tomato_01b.jpg	0	-1	2	0	tomato_01b.jpg	0	0	0	248.854779263493	248.90475655254	0.0499772890470922
111071	50	637	0	0	shortbread	1429	19	2	stimuli\shortbread\shortbread_12s.jpg	11	-1	2	0	shortbread_12s.jpg	0	0	0	248.954782603774	249.004760867916	0.0499782641418278
111171	50	638	0	0	powder	1236	20	2	stimuli\powder\powder_07s.jpg	6	-1	2	0	powder_07s.jpg	0	0	0	249.054783261847	249.104765914846	0.0499826529994607
111271	50	639	0	0	bagpipe	56	21	2	stimuli\bagpipe\bagpipe_10s.jpg	9	-1	2	0	bagpipe_10s.jpg	0	0	0	249.154783676378	249.204777056817	0.0499933804385364
111371	50	640	0	0	car_door	268	22	2	stimuli\car_door\car_door_06s.jpg	5	-1	2	0	car_door_06s.jpg	0	0	0	249.25478701666	249.304768694565	0.0499816779047251
111471	50	641	0	0	stroller	1574	23	2	stimuli\stroller\stroller_10s.jpg	9	-1	2	0	stroller_10s.jpg	0	0	0	249.354789869394	249.404773009941	0.0499831405468285
111571	50	642	0	0	candy_bar	256	24	2	stimuli\candy_bar\candy_bar_04s.jpg	3	-1	2	0	candy_bar_04s.jpg	0	0	0	249.45479320921	249.504775131121	0.0499819219112396
111671	50	643	0	0	swimsuit	1597	25	2	stimuli\swimsuit\swimsuit_03s.jpg	2	-1	2	0	swimsuit_03s.jpg	0	0	0	249.554801425897	249.604788711295	0.0499872853979468
111771	50	644	0	0	tongue	1675	26	2	stimuli\tongue\tongue_04s.jpg	3	-1	2	0	tongue_04s.jpg	0	0	0	249.654798670672	249.704781323671	0.0499826529994607
111871	50	645	0	0	flagpole	606	27	2	stimuli\flagpole\flagpole_07s.jpg	6	-1	2	0	flagpole_07s.jpg	0	0	0	249.75480225496	249.804783200845	0.0499809458851814
111971	50	646	0	0	basket	82	28	2	stimuli\basket\basket_12s.jpg	11	-1	2	0	basket_12s.jpg	0	0	0	249.854803644586	249.904786053579	0.0499824089929461
112071	50	647	0	0	test_tube	1645	29	2	stimuli\test_tube\test_tube_06s.jpg	5	-1	2	0	test_tube_06s.jpg	0	0	0	249.954808203503	250.004788906313	0.0499807028099895
112171	50	648	0	0	uniform	1747	30	2	stimuli\uniform\uniform_02s.jpg	1	-1	2	0	uniform_02s.jpg	0	0	0	250.054808862042	250.104790051933	0.049981189891696
112271	50	649	0	0	keyboard	870	31	2	stimuli\keyboard\keyboard_07s.jpg	6	-1	2	0	keyboard_07s.jpg	0	0	0	250.154811226763	250.204792904668	0.0499816779047251
112371	50	650	0	0	toast	1665	32	2	stimuli\toast\toast_01b.jpg	0	-1	2	0	toast_01b.jpg	0	0	0	250.254817248788	250.304796244949	0.0499789961613715
112471	50	651	0	0	clipper2	357	33	2	stimuli\clipper2\clipper2_12s.jpg	11	-1	2	0	clipper2_12s.jpg	0	0	0	250.35481571313	250.404800560325	0.0499848471954465
112571	50	652	0	0	whiteboard	1813	34	2	stimuli\whiteboard\whiteboard_09s.jpg	8	-1	2	0	whiteboard_09s.jpg	0	0	0	250.454819053411	250.504800974857	0.0499819214455783
112671	50	653	0	0	mousse	1030	35	2	stimuli\mousse\mousse_06s.jpg	5	-1	2	0	mousse_06s.jpg	0	0	0	250.554824099876	250.604802364483	0.0499782646074891
112771	50	654	0	0	dumbwaiter	531	36	2	stimuli\dumbwaiter\dumbwaiter_12s.jpg	11	-1	2	0	dumbwaiter_12s.jpg	0	0	0	250.654825001955	250.704812043812	0.0499870418570936
112871	50	655	0	0	cornucopia	416	37	2	stimuli\cornucopia\cornucopia_05s.jpg	4	-1	2	0	cornucopia_05s.jpg	0	0	0	250.75482907379	250.804807581939	0.0499785081483424
112971	50	656	0	0	shaker	1408	38	2	stimuli\shaker\shaker_05s.jpg	4	-1	2	0	shaker_05s.jpg	0	0	0	250.854829731863	250.904809947126	0.0499802152626216
113071	50	657	0	0	ivy	834	39	2	stimuli\ivy\ivy_10s.jpg	9	-1	2	0	ivy_10s.jpg	0	0	0	250.954833072145	251.004814262502	0.0499811903573573
