onset	duration	eventnumber	blocksequencenumber	isteststim	object	objectnumber	presentationnumber	sequencenumber	stim	stimnumber	teststimnumber	withinsequencenumber	istarget	stimname	response	rt	correct	time_stimon	time_stimoff	stimdur
72996	50	0	0	0	heater	772	0	0	stimuli\heater\heater_11s.jpg	10	-1	0	0	heater_11s.jpg	0	0	0	58.9854282273086	59.0353843415678	0.0499561142592029
73096	50	1	0	0	string_cheese	1573	1	0	stimuli\string_cheese\string_cheese_02s.jpg	1	-1	0	0	string_cheese_02s.jpg	0	0	0	59.0854094539641	59.1353787339453	0.0499692799812692
73196	50	2	0	0	tumbleweed	1727	2	0	stimuli\tumbleweed\tumbleweed_11s.jpg	10	-1	0	0	tumbleweed_11s.jpg	0	0	0	59.1854023834835	59.2353814158514	0.0499790323679008
73296	50	3	0	0	zebra	1851	3	0	stimuli\zebra\zebra_01b.jpg	0	-1	0	0	zebra_01b.jpg	0	0	0	59.2854423682697	59.3353943377642	0.0499519694944865
73396	50	4	0	0	apple_tree	31	4	0	stimuli\apple_tree\apple_tree_03s.jpg	2	-1	0	0	apple_tree_03s.jpg	0	0	0	59.385432372073	59.435413111109	0.0499807390360729
73496	50	5	0	0	credit_card	438	5	0	stimuli\credit_card\credit_card_01b.jpg	0	-1	0	0	credit_card_01b.jpg	0	0	0	59.4854343225506	59.5360860258047	0.0506517032540614
73596	50	6	0	0	wasp	1785	6	0	stimuli\wasp\wasp_04s.jpg	3	-1	0	0	wasp_04s.jpg	0	0	0	59.5854360292183	59.6354070158673	0.0499709866489866
73696	50	7	0	0	foam	624	7	0	stimuli\foam\foam_10s.jpg	9	-1	0	0	foam_10s.jpg	0	0	0	59.6854223758764	59.7353948253835	0.049972449507095
73796	50	8	0	0	retainer	1303	8	0	stimuli\retainer\retainer_10s.jpg	9	-1	0	0	retainer_10s.jpg	0	0	0	59.7854435873182	59.8354223758765	0.0499787885582919
73896	50	9	0	0	mantle	969	9	0	stimuli\mantle\mantle_05s.jpg	4	-1	0	0	mantle_05s.jpg	0	0	0	59.8854306654052	59.9354111606317	0.049980495226464
73996	50	10	0	0	bassoon	86	10	0	stimuli\bassoon\bassoon_05s.jpg	4	-1	0	0	bassoon_05s.jpg	0	0	0	59.9854465130343	60.0354267644507	0.0499802514164003
74096	50	11	0	0	vending_machine	1757	11	0	stimuli\vending_machine\vending_machine_01b.jpg	0	-1	0	0	vending_machine_01b.jpg	0	0	0	60.0854250577831	60.1354072596769	0.0499822018937266
74196	50	12	0	0	stew	1551	12	0	stimuli\stew\stew_02s.jpg	1	-1	0	0	stew_02s.jpg	0	0	0	60.1854287149281	60.2354260330217	0.049997318093574
74296	50	13	0	0	drumstick	523	13	0	stimuli\drumstick\drumstick_07s.jpg	6	-1	0	0	drumstick_07s.jpg	0	0	0	60.2854326158827	60.3354372482668	0.0500046323841161
74396	50	14	0	0	barbed_wire	71	14	0	stimuli\barbed_wire\barbed_wire_03s.jpg	2	-1	0	0	barbed_wire_03s.jpg	0	0	0	60.3854616292338	60.4354221320668	0.0499605028330734
74496	50	15	0	0	fondue	626	15	0	stimuli\fondue\fondue_05s.jpg	4	-1	0	0	fondue_05s.jpg	0	0	0	60.4854379796957	60.535432372073	0.0499943923773571
74596	50	16	0	0	pesto	1156	16	0	stimuli\pesto\pesto_11s.jpg	10	-1	0	0	pesto_11s.jpg	0	0	0	60.5854560216112	60.6354377358862	0.0499817142749635
74696	50	17	0	0	kettle	868	17	0	stimuli\kettle\kettle_01b.jpg	0	-1	0	0	kettle_01b.jpg	0	0	0	60.6854599225662	60.7354360292184	0.0499761066521387
74796	50	18	0	0	breadstick	196	18	0	stimuli\breadstick\breadstick_07s.jpg	6	-1	0	0	breadstick_07s.jpg	0	0	0	60.7854601663757	60.8354404177921	0.0499802514164003
74896	50	19	0	0	pocket	1205	19	0	stimuli\pocket\pocket_07s.jpg	6	-1	0	0	pocket_07s.jpg	0	0	0	60.8854560216114	60.935429690167	0.0499736685555945
74996	50	20	0	0	vent	1758	20	0	stimuli\vent\vent_11s.jpg	10	-1	0	0	vent_11s.jpg	0	0	0	60.9854445625569	61.0354255454022	0.0499809828452271
75096	50	21	0	0	candlestick	254	21	0	stimuli\candlestick\candlestick_11s.jpg	10	-1	0	0	candlestick_11s.jpg	0	0	0	61.0854467568438	61.135458703518	0.0500119466742035
75196	50	22	0	0	pincushion	1179	22	0	stimuli\pincushion\pincushion_12s.jpg	11	-1	0	0	pincushion_12s.jpg	0	0	0	61.1854633359017	61.2354611416145	0.0499978057127919
75296	50	23	0	0	sewing_kit	1406	23	0	stimuli\sewing_kit\sewing_kit_10s.jpg	9	-1	0	0	sewing_kit_10s.jpg	0	0	0	61.2854796711495	61.3354635797114	0.0499839085618987
75396	50	24	0	0	sofa_bed	1492	24	0	stimuli\sofa_bed\sofa_bed_12s.jpg	11	-1	0	0	sofa_bed_12s.jpg	0	0	0	61.385488448298	61.4354660178078	0.0499775695097924
75496	50	25	0	0	trashcan	1704	25	0	stimuli\trashcan\trashcan_01b.jpg	0	-1	0	0	trashcan_01b.jpg	0	0	0	61.4854721130496	61.5354686997143	0.0499965866647472
75596	50	26	0	0	cooler	403	26	0	stimuli\cooler\cooler_10s.jpg	9	-1	0	0	cooler_10s.jpg	0	0	0	61.5854925930621	61.635468212095	0.0499756190329208
75696	50	27	0	0	nail_polish	1049	27	0	stimuli\nail_polish\nail_polish_03s.jpg	2	-1	0	0	nail_polish_03s.jpg	0	0	0	61.6854957625878	61.7354560216113	0.0499602590234645
75796	50	28	0	0	target	1627	28	0	stimuli\target\target_11s.jpg	10	-1	0	0	target_11s.jpg	0	0	0	61.7854791835302	61.8354765016238	0.049997318093574
75896	50	29	0	0	raincoat	1279	29	0	stimuli\raincoat\raincoat_05s.jpg	4	-1	0	0	raincoat_05s.jpg	0	0	0	61.8855052711651	61.9354818654365	0.0499765942713566
75996	50	30	0	0	fruitcake	646	30	0	stimuli\fruitcake\fruitcake_11s.jpg	10	-1	0	0	fruitcake_11s.jpg	0	0	0	61.9855018578296	62.0354821092465	0.049980251416855
76096	50	31	0	0	totem_pole	1689	31	0	stimuli\totem_pole\totem_pole_03s.jpg	2	-1	0	0	totem_pole_03s.jpg	0	0	0	62.0854855225816	62.1354613854242	0.0499758628425298
76196	50	32	0	0	coat_rack	370	32	0	stimuli\coat_rack\coat_rack_02s.jpg	1	-1	0	0	coat_rack_02s.jpg	0	0	0	62.1854755263853	62.2354587035179	0.0499831771326171
76296	50	33	0	0	pasta	1123	33	0	stimuli\pasta\pasta_09s.jpg	8	-1	0	0	pasta_09s.jpg	0	0	0	62.2854784521014	62.3354921054429	0.0500136533414661
76396	50	34	0	0	hairbrush	734	34	0	stimuli\hairbrush\hairbrush_09s.jpg	8	-1	0	0	hairbrush_09s.jpg	0	0	0	62.3855113664072	62.4354957625878	0.0499843961806619
76496	50	35	0	0	navel	1052	35	0	stimuli\navel\navel_05s.jpg	4	-1	0	0	navel_05s.jpg	0	0	0	62.4854991759235	62.5354938121104	0.0499946361869661
76596	50	36	0	0	makeup	961	36	0	stimuli\makeup\makeup_03s.jpg	2	-1	0	0	makeup_03s.jpg	0	0	0	62.5855208749845	62.6354984444943	0.0499775695097924
76696	50	37	0	0	okra	1074	37	0	stimuli\okra\okra_01b.jpg	0	-1	0	0	okra_01b.jpg	0	0	0	62.6855181930778	62.7354840597236	0.0499658666458345
76796	50	38	0	0	bug	212	38	0	stimuli\bug\bug_09s.jpg	8	-1	0	0	bug_09s.jpg	0	0	0	62.7854950311589	62.835485278772	0.0499902476130956
76896	50	39	0	0	whip	1809	39	0	stimuli\whip\whip_03s.jpg	2	-1	0	0	whip_03s.jpg	0	0	0	62.8855016140201	62.9354945435398	0.0499929295197035
76996	50	40	0	0	treasure	1707	40	0	stimuli\treasure\treasure_10s.jpg	9	-1	0	0	treasure_10s.jpg	0	0	0	62.9855174616487	63.0355006387813	0.0499831771326171
77096	50	41	0	0	remote_control	1302	41	0	stimuli\remote_control\remote_control_10s.jpg	9	-1	0	0	remote_control_10s.jpg	0	0	0	63.0855206311744	63.1354845473429	0.0499639161685081
77196	50	42	0	0	screen1	1388	42	0	stimuli\screen1\screen1_02s.jpg	1	-1	0	0	screen1_02s.jpg	0	0	0	63.1855035644976	63.2354843035332	0.0499807390356182
77296	50	43	0	0	broccoli	201	43	0	stimuli\broccoli\broccoli_02s.jpg	1	-1	0	0	broccoli_02s.jpg	0	0	0	63.285536722613	63.335517461649	0.0499807390360729
77396	50	44	0	0	poster	1229	44	0	stimuli\poster\poster_12s.jpg	11	-1	0	0	poster_12s.jpg	0	0	0	63.3855394045195	63.4355103911685	0.0499709866489866
77496	50	45	0	0	place_mat	1193	45	0	stimuli\place_mat\place_mat_09s.jpg	8	-1	0	0	place_mat_09s.jpg	0	0	0	63.485530139752	63.5355216064131	0.0499914666611403
77596	50	46	0	0	gutter	729	46	0	stimuli\gutter\gutter_01b.jpg	0	-1	0	0	gutter_01b.jpg	0	0	0	63.5855503759544	63.6355272140358	0.0499768380814203
77696	50	47	0	0	jetski	848	47	0	stimuli\jetski\jetski_08s.jpg	7	-1	0	0	jetski_08s.jpg	0	0	0	63.6855498883351	63.7355250197488	0.0499751314137029
77796	50	48	0	0	guitar	723	48	0	stimuli\guitar\guitar_10s.jpg	9	-1	0	0	guitar_10s.jpg	0	0	0	63.7855537892901	63.8355138045035	0.0499600152134008
77896	50	49	0	0	collar	387	49	0	stimuli\collar\collar_11s.jpg	10	-1	0	0	collar_11s.jpg	0	0	0	63.8855515950031	63.9355140483135	0.0499624533103997
77996	50	50	0	0	scorpion	1384	50	0	stimuli\scorpion\scorpion_08s.jpg	7	-1	0	0	scorpion_08s.jpg	0	0	0	63.9855540330996	64.0355138045038	0.0499597714042466
78096	50	51	0	0	chimney	329	51	0	stimuli\chimney\chimney_02s.jpg	1	-1	0	0	chimney_02s.jpg	0	0	0	64.0855340407065	64.1355091721198	0.0499751314132482
78196	50	52	0	0	raccoon	1266	52	0	stimuli\raccoon\raccoon_09s.jpg	8	-1	0	0	raccoon_09s.jpg	0	0	0	64.1855284330841	64.2355101473586	0.0499817142745087
78296	50	53	0	0	log	943	53	0	stimuli\log\log_01b.jpg	0	-1	0	0	log_01b.jpg	0	0	0	64.2855335530871	64.3355038083073	0.0499702552201597
78396	50	54	0	0	blowtorch	148	54	0	stimuli\blowtorch\blowtorch_02s.jpg	1	-1	0	0	blowtorch_02s.jpg	0	0	0	64.385547694048	64.4355281892745	0.049980495226464
78496	50	55	0	0	blouse	144	55	0	stimuli\blouse\blouse_07s.jpg	6	-1	0	0	blouse_07s.jpg	0	0	0	64.4855652483448	64.5355286768936	0.0499634285488355
78596	50	56	0	0	incense	826	56	0	stimuli\incense\incense_11s.jpg	10	-1	0	0	incense_11s.jpg	0	0	0	64.5855459873806	64.6355259949873	0.0499800076067913
78696	50	57	0	0	pepperoni	1153	57	0	stimuli\pepperoni\pepperoni_08s.jpg	7	-1	0	0	pepperoni_08s.jpg	0	0	0	64.6855476940482	64.735527701655	0.0499800076067913
78796	50	58	0	0	blindfold	142	58	0	stimuli\blindfold\blindfold_01b.jpg	0	-1	0	0	blindfold_01b.jpg	0	0	0	64.7855474502385	64.8355608597703	0.0500134095318572
78896	50	59	0	0	necklace	1054	59	0	stimuli\necklace\necklace_05s.jpg	4	-1	0	0	necklace_05s.jpg	0	0	0	64.8855789016861	64.9355574464353	0.0499785447491377
78996	50	60	0	0	whistle	1812	60	0	stimuli\whistle\whistle_08s.jpg	7	-1	0	0	whistle_08s.jpg	0	0	0	64.9855664673928	65.0355620788191	0.0499956114263114
79096	50	61	0	0	cannon	260	61	0	stimuli\cannon\cannon_09n.jpg	8	-1	0	0	cannon_09n.jpg	0	0	0	65.0855674426316	65.1355496445258	0.0499822018941813
79196	50	62	0	0	solar_panel	1493	62	0	stimuli\solar_panel\solar_panel_02s.jpg	1	-1	0	0	solar_panel_02s.jpg	0	0	0	65.1855618350091	65.2355569588158	0.0499951238066387
79296	50	63	0	0	basket	82	63	0	stimuli\basket\basket_11s.jpg	10	-1	0	0	basket_11s.jpg	0	0	0	65.2855832902605	65.3355615911996	0.049978300939074
79396	50	64	0	0	pantyhose	1110	64	0	stimuli\pantyhose\pantyhose_09s.jpg	8	-1	0	0	pantyhose_09s.jpg	0	0	0	65.3855730502542	65.4355418426162	0.0499687923620513
79496	50	65	0	0	clay	352	65	0	stimuli\clay\clay_07s.jpg	6	-1	0	0	clay_07s.jpg	0	0	0	65.4855669550125	65.5355479378577	0.0499809828452271
79596	50	66	0	0	bologna	158	66	0	stimuli\bologna\bologna_11s.jpg	10	-1	0	0	bologna_11s.jpg	0	0	0	65.5856035264633	65.6355842654989	0.0499807390356182
79696	50	67	0	0	tomato_sauce	1673	67	0	stimuli\tomato_sauce\tomato_sauce_10s.jpg	9	-1	0	0	tomato_sauce_10s.jpg	0	0	0	65.6856018197955	65.7355818274023	0.0499800076067913
79796	50	68	0	0	pitchfork	1191	68	0	stimuli\pitchfork\pitchfork_11s.jpg	10	-1	0	0	pitchfork_11s.jpg	0	0	0	65.7855762197801	65.8355518388125	0.0499756190324661
79896	50	69	0	0	crutch	452	69	0	stimuli\crutch\crutch_08s.jpg	7	-1	0	0	crutch_08s.jpg	0	0	0	65.8855789016861	65.9355552521479	0.0499763504617476
79996	50	70	0	0	suitcase	1581	70	0	stimuli\suitcase\suitcase_06s.jpg	5	-1	0	0	suitcase_06s.jpg	0	0	0	65.9855801207345	66.0355898731214	0.0500097523868135
80096	50	71	0	0	worm	1836	71	0	stimuli\worm\worm_02s.jpg	1	-1	0	0	worm_02s.jpg	0	0	0	66.0855918235989	66.1355747569219	0.0499829333230082
80196	50	72	0	0	violin	1764	72	0	stimuli\violin\violin_09s.jpg	8	-1	0	0	violin_09s.jpg	0	0	0	66.1855991378893	66.2355796331153	0.0499804952260092
80297	50	73	0	0	penholder	1146	73	0	stimuli\penholder\penholder_06s.jpg	5	-1	0	0	penholder_06s.jpg	0	0	0	66.2856220559984	66.3355974312212	0.0499753752228571
80396	50	74	0	0	lemonade	915	74	0	stimuli\lemonade\lemonade_03s.jpg	2	-1	0	0	lemonade_03s.jpg	0	0	0	66.3855966997926	66.4355732940639	0.0499765942713566
80496	50	75	0	0	lamppost	892	75	0	stimuli\lamppost\lamppost_04s.jpg	3	-1	0	0	lamppost_04s.jpg	0	0	0	66.4856003569375	66.53560572075	0.0500053638124882
80596	50	76	0	0	thermos	1647	76	0	stimuli\thermos\thermos_08s.jpg	7	-1	0	0	thermos_08s.jpg	0	0	0	66.5856222998082	66.6356045017019	0.0499822018937266
80697	50	77	0	0	modem	1011	77	0	stimuli\modem\modem_04s.jpg	3	-1	0	0	modem_04s.jpg	0	0	0	66.6856271760016	66.7356052331311	0.049978057129465
80796	50	78	0	0	pump	1252	78	0	stimuli\pump\pump_06s.jpg	5	-1	0	0	pump_06s.jpg	0	0	0	66.7856037702727	66.8355884102634	0.0499846399907256
80896	50	79	0	0	mud	1033	79	0	stimuli\mud\mud_03s.jpg	2	-1	0	0	mud_03s.jpg	0	0	0	66.8856074274181	66.9355867035956	0.0499792761775097
80996	50	80	0	0	rudder	1339	80	0	stimuli\rudder\rudder_08s.jpg	7	-1	0	0	rudder_08s.jpg	0	0	0	66.9856030388437	67.0355849969283	0.0499819580845724
81096	50	81	0	0	meat_grinder	988	81	0	stimuli\meat_grinder\meat_grinder_11s.jpg	10	-1	0	0	meat_grinder_11s.jpg	0	0	0	67.0856064521795	67.135579876925	0.0499734247455308
81197	50	82	0	0	lawnmower	905	82	0	stimuli\lawnmower\lawnmower_07s.jpg	6	-1	0	0	lawnmower_07s.jpg	0	0	0	67.1856120598018	67.2355901169312	0.049978057129465
81296	50	83	0	0	bell_pepper	117	83	0	stimuli\bell_pepper\bell_pepper_01b.jpg	0	-1	0	0	bell_pepper_01b.jpg	0	0	0	67.285620105521	67.3355935302666	0.0499734247455308
81397	50	84	0	0	toothbrush	1679	84	0	stimuli\toothbrush\toothbrush_11s.jpg	10	-1	0	0	toothbrush_11s.jpg	0	0	0	67.3856220559983	67.4356013321762	0.0499792761779645
81497	50	85	0	0	toilet_paper	1671	85	0	stimuli\toilet_paper\toilet_paper_08s.jpg	7	-1	0	0	toilet_paper_08s.jpg	0	0	0	67.4856232750467	67.535599869318	0.0499765942713566
81597	50	86	0	0	mold2	1013	86	0	stimuli\mold2\mold2_12s.jpg	11	-1	0	0	mold2_12s.jpg	0	0	0	67.5856557017332	67.6356349779107	0.0499792761775097
81697	50	87	0	0	ferris_wheel	579	87	0	stimuli\ferris_wheel\ferris_wheel_03s.jpg	2	-1	0	0	ferris_wheel_03s.jpg	0	0	0	67.6856400979141	67.7356186426628	0.0499785447486829
81797	50	88	0	0	cigarette_holder	346	88	0	stimuli\cigarette_holder\cigarette_holder_06s.jpg	5	-1	0	0	cigarette_holder_06s.jpg	0	0	0	67.7856625284039	67.8356383912464	0.0499758628425298
81897	50	89	0	0	battery	97	89	0	stimuli\battery\battery_06s.jpg	5	-1	0	0	battery_06s.jpg	0	0	0	67.8856432674397	67.9356232750465	0.0499800076067913
81997	50	90	0	0	jacket	836	90	0	stimuli\jacket\jacket_10s.jpg	9	-1	0	0	jacket_10s.jpg	0	0	0	67.985660821736	68.0356169359952	0.0499561142592029
82097	50	91	0	0	train_set	1700	91	0	stimuli\train_set\train_set_06s.jpg	5	-1	0	0	train_set_06s.jpg	0	0	0	68.085634977911	68.135617911234	0.0499829333230082
82197	50	92	0	0	toaster_oven	1667	92	0	stimuli\toaster_oven\toaster_oven_12s.jpg	11	-1	0	0	toaster_oven_12s.jpg	0	0	0	68.1856371721979	68.2356188864724	0.0499817142745087
82297	50	93	0	0	hearse	771	93	0	stimuli\hearse\hearse_10s.jpg	9	-1	0	0	hearse_10s.jpg	0	0	0	68.2856769131745	68.3356513131589	0.0499743999844213
82397	50	94	0	0	rattle	1287	94	0	stimuli\rattle\rattle_05s.jpg	4	-1	0	0	rattle_05s.jpg	0	0	0	68.3856461931559	68.4356759379357	0.0500297447797493
82497	50	95	0	0	lipstick	936	95	0	stimuli\lipstick\lipstick_06s.jpg	5	-1	0	0	lipstick_06s.jpg	0	0	0	68.485657164591	68.5356293702885	0.0499722056974861
82597	50	96	0	0	armor	37	96	0	stimuli\armor\armor_08s.jpg	7	-1	0	0	armor_08s.jpg	0	0	0	68.5856532636362	68.635629614098	0.0499763504617476
82697	50	97	0	0	mascara	978	97	0	stimuli\mascara\mascara_08s.jpg	7	-1	0	0	mascara_08s.jpg	0	0	0	68.68565058173	68.735631076956	0.0499804952260092
82797	50	98	0	0	crucifix	449	98	0	stimuli\crucifix\crucifix_02s.jpg	1	-1	0	0	crucifix_02s.jpg	0	0	0	68.7856542388749	68.835634977911	0.0499807390360729
82897	50	99	0	0	knife	879	99	0	stimuli\knife\knife_01b.jpg	0	-1	0	0	knife_01b.jpg	0	0	0	68.8856564331622	68.9356376598175	0.0499812266552908
82997	50	100	0	0	rabbit	1265	100	0	stimuli\rabbit\rabbit_04n.jpg	3	-1	0	0	rabbit_04n.jpg	0	0	0	68.985660821736	69.0356717931713	0.050010971435313
83097	50	101	0	0	pine_needle	1180	101	0	stimuli\pine_needle\pine_needle_02s.jpg	1	-1	0	0	pine_needle_02s.jpg	0	0	0	69.0856895912775	69.1356549703041	0.0499653790266166
83197	50	102	0	0	grits	717	102	0	stimuli\grits\grits_12s.jpg	11	-1	0	0	grits_12s.jpg	0	0	0	69.1856917855648	69.2356730122196	0.0499812266548361
83297	50	103	0	0	birdhouse	131	103	0	stimuli\birdhouse\birdhouse_04s.jpg	3	-1	0	0	birdhouse_04s.jpg	0	0	0	69.2856939798517	69.3356576522106	0.0499636723588992
83397	50	104	0	0	trowel	1719	104	0	stimuli\trowel\trowel_10s.jpg	9	-1	0	0	trowel_10s.jpg	0	0	0	69.3856695988843	69.4356503379204	0.0499807390360729
83497	50	105	0	0	cape	266	105	0	stimuli\cape\cape_06s.jpg	5	-1	0	0	cape_06s.jpg	0	0	0	69.48567276841	69.5356805703195	0.0500078019094872
83597	50	106	0	0	candy	255	106	0	stimuli\candy\candy_07s.jpg	6	-1	0	0	candy_07s.jpg	0	0	0	69.5856856903229	69.6356600903073	0.0499743999844213
83697	50	107	0	0	bracket	189	107	0	stimuli\bracket\bracket_09s.jpg	8	-1	0	0	bracket_09s.jpg	0	0	0	69.6856825207969	69.7356620407845	0.0499795199875734
83797	50	108	0	0	deodorant	479	108	0	stimuli\deodorant\deodorant_03s.jpg	2	-1	0	0	deodorant_03s.jpg	0	0	0	69.7857105589096	69.8356786198424	0.0499680609327697
83897	50	109	0	0	seed	1401	109	0	stimuli\seed\seed_08s.jpg	7	-1	0	0	seed_08s.jpg	0	0	0	69.885715191293	69.9356781322231	0.0499629409300724
83997	50	110	0	0	coffin	383	110	0	stimuli\coffin\coffin_08s.jpg	7	-1	0	0	coffin_08s.jpg	0	0	0	69.9857186046288	70.0357000750937	0.0499814704648998
84097	50	111	0	0	reindeer	1301	111	0	stimuli\reindeer\reindeer_03s.jpg	2	-1	0	0	reindeer_03s.jpg	0	0	0	70.085708608432	70.1356988560451	0.0499902476130956
84197	50	112	0	0	stem	1547	112	0	stimuli\stem\stem_08s.jpg	7	-1	0	0	stem_08s.jpg	0	0	0	70.1857039760484	70.2357017817612	0.0499978057127919
84297	50	113	0	0	carriage	276	113	0	stimuli\carriage\carriage_03s.jpg	2	-1	0	0	carriage_03s.jpg	0	0	0	70.2857259189186	70.3357051950966	0.0499792761779645
84397	50	114	0	0	veil	1755	114	0	stimuli\veil\veil_09s.jpg	8	-1	0	0	veil_09s.jpg	0	0	0	70.3857256751089	70.4357047074773	0.0499790323683555
84497	50	115	0	0	chalice	301	115	0	stimuli\chalice\chalice_02s.jpg	1	-1	0	0	chalice_02s.jpg	0	0	0	70.4857312827316	70.5356973931871	0.0499661104554434
84597	50	116	0	0	sticker	1553	116	0	stimuli\sticker\sticker_02s.jpg	1	-1	0	0	sticker_02s.jpg	0	0	0	70.5857312827316	70.6357127531965	0.0499814704648998
84697	50	117	0	0	headlight	765	117	0	stimuli\headlight\headlight_02s.jpg	1	-1	0	0	headlight_02s.jpg	0	0	0	70.6857339646381	70.7357137284353	0.0499797637971824
84797	50	118	0	0	crane	431	118	0	stimuli\crane\crane_05s.jpg	4	-1	0	0	crane_05s.jpg	0	0	0	70.7857400598796	70.8357156789125	0.0499756190329208
84897	50	119	0	0	chute	342	119	0	stimuli\chute\chute_06s.jpg	5	-1	0	0	chute_06s.jpg	0	0	0	70.8857417665477	70.9357039760484	0.0499622095007908
84997	50	120	0	0	ready_meal	1292	120	0	stimuli\ready_meal\ready_meal_11s.jpg	10	-1	0	0	ready_meal_11s.jpg	0	0	0	70.9857422541668	71.0357300636833	0.0499878095165514
85097	50	121	0	0	pig	1170	121	0	stimuli\pig\pig_02s.jpg	1	-1	0	0	pig_02s.jpg	0	0	0	71.0857468865506	71.1357246998705	0.0499778133198561
85197	50	122	0	0	racehorse	1267	122	0	stimuli\racehorse\racehorse_07s.jpg	6	-1	0	0	racehorse_07s.jpg	0	0	0	71.185748105599	71.2357288446347	0.0499807390356182
85297	50	123	0	0	taillight	1617	123	0	stimuli\taillight\taillight_08s.jpg	7	-1	0	0	taillight_08s.jpg	0	0	0	71.2857556636986	71.3357166541514	0.049960990452746
85397	50	124	0	0	panties	1107	124	0	stimuli\panties\panties_04s.jpg	3	-1	0	0	panties_04s.jpg	0	0	0	71.3857273817766	71.4357083646223	0.0499809828456819
85497	50	125	0	0	octopus	1070	125	0	stimuli\octopus\octopus_11n.jpg	10	-1	0	0	octopus_11n.jpg	0	0	0	71.4857298198735	71.5357108027192	0.0499809828456819
85597	50	126	0	0	lifesaver	925	126	0	stimuli\lifesaver\lifesaver_06s.jpg	5	-1	0	0	lifesaver_06s.jpg	0	0	0	71.5857364027347	71.6357142160546	0.0499778133198561
85697	50	127	0	0	hash	756	127	0	stimuli\hash\hash_06s.jpg	5	-1	0	0	hash_06s.jpg	0	0	0	71.6857364027346	71.7357151912934	0.0499787885587466
85797	50	128	0	0	flypaper	622	128	0	stimuli\flypaper\flypaper_02s.jpg	1	-1	0	0	flypaper_02s.jpg	0	0	0	71.7857351836865	71.8357471303602	0.0500119466737488
85897	50	129	0	0	hammock	742	129	0	stimuli\hammock\hammock_01b.jpg	0	-1	0	0	hammock_01b.jpg	0	0	0	71.8857678541826	71.9357459113121	0.049978057129465
85997	50	130	0	0	volleyball	1767	130	0	stimuli\volleyball\volleyball_12s.jpg	11	-1	0	0	volleyball_12s.jpg	0	0	0	71.9857522503635	72.035749568457	0.049997318093574
86097	50	131	0	0	mongoose	1016	131	0	stimuli\mongoose\mongoose_08s.jpg	7	-1	0	0	mongoose_08s.jpg	0	0	0	72.0857507875053	72.135727137967	0.0499763504617476
86197	50	132	0	0	wood	1833	132	0	stimuli\wood\wood_11s.jpg	10	-1	0	0	wood_11s.jpg	0	0	0	72.1857476179798	72.2357281132058	0.0499804952260092
86297	50	133	0	0	maggot	955	133	0	stimuli\maggot\maggot_08s.jpg	7	-1	0	0	maggot_08s.jpg	0	0	0	72.2857500560763	72.3357651722758	0.0500151161995745
86397	50	134	0	0	seagull	1395	134	0	stimuli\seagull\seagull_07s.jpg	6	-1	0	0	seagull_07s.jpg	0	0	0	72.3857798008562	72.4357351836861	0.0499553828299213
86497	50	135	0	0	kazoo	864	135	0	stimuli\kazoo\kazoo_04s.jpg	3	-1	0	0	kazoo_04s.jpg	0	0	0	72.4857549322696	72.5357690732308	0.0500141409611388
86597	50	136	0	0	leotard	918	136	0	stimuli\leotard\leotard_10s.jpg	9	-1	0	0	leotard_10s.jpg	0	0	0	72.5857856522885	72.6357676103726	0.0499819580841177
86697	50	137	0	0	hearing_aid	770	137	0	stimuli\hearing_aid\hearing_aid_11s.jpg	10	-1	0	0	hearing_aid_11s.jpg	0	0	0	72.6857710237082	72.7357707798983	0.0499997561901182
86797	50	138	0	0	gumdrop	726	138	0	stimuli\gumdrop\gumdrop_09s.jpg	8	-1	0	1	gumdrop_09s.jpg	0	0	0	72.7857715113273	72.8357471303602	0.0499756190329208
86897	50	139	0	0	mousepad	1028	139	0	stimuli\mousepad\mousepad_09s.jpg	8	-1	0	0	mousepad_09s.jpg	0	0	0	72.8857668789437	72.9357527379825	0.0499858590387703
86997	50	140	0	0	bus	226	140	0	stimuli\bus\bus_08s.jpg	7	-1	0	0	bus_08s.jpg	0	0	0	72.9857851646693	73.0357663913242	0.0499812266548361
87097	50	141	0	0	typewriter	1741	141	0	stimuli\typewriter\typewriter_12s.jpg	11	-1	0	0	typewriter_12s.jpg	0	0	0	73.0857895532431	73.1357680979922	0.0499785447491377
87197	50	142	0	0	earplug	539	142	0	stimuli\earplug\earplug_10s.jpg	9	-1	0	0	earplug_10s.jpg	0	0	0	73.1857751684724	73.2357566389373	0.0499814704648998
87297	50	143	0	0	juice	854	143	0	stimuli\juice\juice_05s.jpg	4	-1	0	0	juice_05s.jpg	1	0.50018797725761	1	73.2857841894306	73.3357593208439	0.0499751314132482
87397	50	144	0	0	furnace	651	144	0	stimuli\furnace\furnace_05s.jpg	4	-1	0	0	furnace_05s.jpg	0	0	0	73.3857802884759	73.4357607837019	0.0499804952260092
87497	50	145	0	0	thimble	1649	145	0	stimuli\thimble\thimble_07s.jpg	6	-1	0	0	thimble_07s.jpg	0	0	0	73.4857829703819	73.5357663913242	0.0499834209422261
87597	50	146	0	0	baklava	57	146	0	stimuli\baklava\baklava_02s.jpg	1	-1	0	0	baklava_02s.jpg	0	0	0	73.5857897970527	73.6357520065535	0.0499622095007908
87697	50	147	0	0	skeleton	1450	147	0	stimuli\skeleton\skeleton_05s.jpg	4	-1	0	0	skeleton_05s.jpg	0	0	0	73.6857990618205	73.735792722769	0.0499936609485303
87797	50	148	0	0	petri_dish	1159	148	0	stimuli\petri_dish\petri_dish_08s.jpg	7	-1	0	0	petri_dish_08s.jpg	0	0	0	73.7857917475303	73.8357741932341	0.0499824457037903
87897	50	149	0	0	timer	1661	149	0	stimuli\timer\timer_11s.jpg	10	-1	0	0	timer_11s.jpg	0	0	0	73.8857944294368	73.9357751684724	0.0499807390356182
87997	50	150	0	0	pug	1249	150	0	stimuli\pug\pug_02s.jpg	1	-1	0	0	pug_02s.jpg	0	0	0	73.9857924789594	74.0358100332555	0.0500175542961188
88097	50	151	0	0	daisy	470	151	0	stimuli\daisy\daisy_08s.jpg	7	-1	0	0	daisy_08s.jpg	0	0	0	74.0858127151623	74.1357919913398	0.0499792761775097
88197	50	152	0	0	pigeon	1171	152	0	stimuli\pigeon\pigeon_05s.jpg	4	-1	0	0	pigeon_05s.jpg	0	0	0	74.185830025649	74.2358112523043	0.0499812266552908
88297	50	153	0	0	applesauce	32	153	0	stimuli\applesauce\applesauce_06s.jpg	5	-1	0	0	applesauce_06s.jpg	0	0	0	74.285831488507	74.3358146656396	0.0499831771326171
88397	50	154	0	0	clothes	361	154	0	stimuli\clothes\clothes_01b.jpg	0	-1	0	0	clothes_01b.jpg	0	0	0	74.3858317323165	74.4358158846881	0.0499841523715077
88497	50	155	0	0	squid	1528	155	0	stimuli\squid\squid_04s.jpg	3	-1	0	0	squid_04s.jpg	0	0	0	74.4858331951746	74.5358192980234	0.049986102848834
88597	50	156	0	0	wine_bottle	1824	156	0	stimuli\wine_bottle\wine_bottle_02s.jpg	1	-1	0	0	wine_bottle_02s.jpg	0	0	0	74.5858434351808	74.6358029627754	0.0499595275946376
88697	50	157	0	0	dumbbell	530	157	0	stimuli\dumbbell\dumbbell_08s.jpg	7	-1	0	0	dumbbell_08s.jpg	0	0	0	74.6858407532745	74.7358088142073	0.0499680609327697
88797	50	158	0	0	needle	1055	158	0	stimuli\needle\needle_04s.jpg	3	-1	0	0	needle_04s.jpg	0	0	0	74.7858502618515	74.8358002808686	0.0499500190171602
88897	50	159	0	0	bush	227	159	0	stimuli\bush\bush_01s.jpg	0	-1	0	0	bush_01s.jpg	0	0	0	74.8858175913556	74.9357983303917	0.0499807390360729
88997	50	160	0	0	spool	1518	160	0	stimuli\spool\spool_02s.jpg	1	-1	0	0	spool_02s.jpg	0	0	0	74.9858490428032	75.0358305132681	0.0499814704648998
89097	50	161	0	0	wire	1828	161	0	stimuli\wire\wire_05s.jpg	4	-1	0	0	wire_05s.jpg	0	0	0	75.0858524561386	75.1358307570781	0.0499783009395287
89197	50	162	0	0	dumpling	532	162	0	stimuli\dumpling\dumpling_05s.jpg	4	-1	0	0	dumpling_05s.jpg	0	0	0	75.1858548942355	75.2358183227848	0.0499634285492903
89297	50	163	0	0	poker	1210	163	0	stimuli\poker\poker_10s.jpg	9	-1	0	0	poker_10s.jpg	0	0	0	75.2858587951901	75.3358190542135	0.0499602590234645
89397	50	164	0	0	tackle	1612	164	0	stimuli\tackle\tackle_05s.jpg	4	-1	0	0	tackle_05s.jpg	0	0	0	75.3858392904162	75.4358144218299	0.0499751314137029
89497	50	165	0	0	bandage	66	165	0	stimuli\bandage\bandage_02s.jpg	1	-1	0	0	bandage_02s.jpg	0	0	0	75.4858461170875	75.5358451418488	0.0499990247612914
89597	50	166	0	0	binoculars	127	166	0	stimuli\binoculars\binoculars_03s.jpg	2	-1	0	0	binoculars_03s.jpg	0	0	0	75.5858422161323	75.6358161284975	0.0499739123652034
89697	50	167	0	0	nose	1063	167	0	stimuli\nose\nose_03s.jpg	2	-1	0	0	nose_03s.jpg	0	0	0	75.6858402656553	75.7358368523196	0.0499965866642924
89797	50	168	0	0	tinsel	1662	168	0	stimuli\tinsel\tinsel_05s.jpg	4	-1	0	0	tinsel_05s.jpg	0	0	0	75.7858712294833	75.8358258808844	0.0499546514010945
89897	50	169	0	0	chipmunk	334	169	0	stimuli\chipmunk\chipmunk_01b.jpg	0	-1	0	0	chipmunk_01b.jpg	0	0	0	75.8858422161325	75.9358246618363	0.0499824457037903
89997	50	170	0	0	sled	1460	170	0	stimuli\sled\sled_06s.jpg	5	-1	0	0	sled_06s.jpg	0	0	0	75.9858661094804	76.035833682794	0.0499675733135518
90097	50	171	0	0	tostada	1688	171	0	stimuli\tostada\tostada_03s.jpg	2	-1	0	0	tostada_03s.jpg	0	0	0	76.0858607456676	76.1358366085101	0.0499758628425298
90197	50	172	0	0	elephant	554	172	0	stimuli\elephant\elephant_03n.jpg	2	-1	0	0	elephant_03n.jpg	0	0	0	76.1858556256643	76.2358195418328	0.0499639161685081
90297	50	173	0	0	clipper1	356	173	0	stimuli\clipper1\clipper1_03s.jpg	2	-1	0	0	clipper1_03s.jpg	0	0	0	76.2858885399701	76.3358483113743	0.0499597714042466
90397	50	174	0	0	punch1	1254	174	0	stimuli\punch1\punch1_05s.jpg	4	-1	0	0	punch1_05s.jpg	0	0	0	76.3858605018581	76.4358429475615	0.0499824457033355
90497	50	175	0	0	fuse	652	175	0	stimuli\fuse\fuse_03s.jpg	2	-1	0	0	fuse_03s.jpg	0	0	0	76.4858631837642	76.5358726923414	0.0500095085772045
90597	50	176	0	0	bomb	160	176	0	stimuli\bomb\bomb_07s.jpg	6	-1	0	0	bomb_07s.jpg	0	0	0	76.5858695228158	76.6358414847036	0.0499719618878771
90697	50	177	0	0	bubble	207	177	0	stimuli\bubble\bubble_09s.jpg	8	-1	0	0	bubble_09s.jpg	0	0	0	76.6858646466226	76.7358802504414	0.0500156038187924
90797	50	178	0	0	jackhammer	837	178	0	stimuli\jackhammer\jackhammer_02s.jpg	1	-1	0	0	jackhammer_02s.jpg	0	0	0	76.7859034123603	76.835880738061	0.0499773257006382
90897	50	179	0	0	scalpel	1374	179	0	stimuli\scalpel\scalpel_05s.jpg	4	-1	0	0	scalpel_05s.jpg	0	0	0	76.8859019495021	76.9358658656706	0.0499639161685081
90997	50	180	0	0	popsicle	1225	180	0	stimuli\popsicle\popsicle_12s.jpg	11	-1	0	0	popsicle_12s.jpg	0	0	0	76.9859314504724	77.035857576142	0.0499261256695718
91097	50	181	0	0	shower_curtain	1435	181	0	stimuli\shower_curtain\shower_curtain_06s.jpg	5	-1	0	0	shower_curtain_06s.jpg	0	0	0	77.0858873209218	77.1358614770966	0.0499741561748124
91197	50	182	0	0	router	1336	182	0	stimuli\router\router_07s.jpg	6	-1	0	0	router_07s.jpg	0	0	0	77.1858980485476	77.2358795190125	0.0499814704648998
91297	50	183	0	0	chess_piece	317	183	0	stimuli\chess_piece\chess_piece_03s.jpg	2	-1	0	0	chess_piece_03s.jpg	0	0	0	77.2859046314088	77.3358829323479	0.049978300939074
91397	50	184	0	0	paper_bag	1113	184	0	stimuli\paper_bag\paper_bag_07s.jpg	6	-1	0	0	paper_bag_07s.jpg	0	0	0	77.3859136523665	77.4358841513963	0.0499704990297687
91497	50	185	0	0	harmonica	753	185	0	stimuli\harmonica\harmonica_12s.jpg	11	-1	0	0	harmonica_12s.jpg	0	0	0	77.4859095076022	77.5358865894927	0.0499770818905745
91597	50	186	0	0	canister	259	186	0	stimuli\canister\canister_08s.jpg	7	-1	0	0	canister_08s.jpg	0	0	0	77.5858765932962	77.6358456294679	0.0499690361716603
91697	50	187	0	0	espresso	560	187	0	stimuli\espresso\espresso_09s.jpg	8	-1	0	0	espresso_09s.jpg	0	0	0	77.685891709496	77.7359060942667	0.0500143847707477
91797	50	188	0	0	brake	191	188	0	stimuli\brake\brake_06s.jpg	5	-1	0	0	brake_06s.jpg	0	0	0	77.7859253552306	77.8359078009344	0.0499824457037903
91897	50	189	0	0	polisher	1215	189	0	stimuli\polisher\polisher_03s.jpg	2	-1	0	0	polisher_03s.jpg	0	0	0	77.8859282809467	77.9359068256958	0.0499785447491377
91997	50	190	0	0	braid	190	190	0	stimuli\braid\braid_11s.jpg	10	-1	0	0	braid_11s.jpg	0	0	0	77.9859343761887	78.0359124333181	0.049978057129465
92097	50	191	0	0	shoe	1423	191	0	stimuli\shoe\shoe_08s.jpg	7	-1	0	0	shoe_08s.jpg	0	0	0	78.0859165780826	78.1358951228312	0.0499785447486829
92197	50	192	0	0	perfume	1154	192	0	stimuli\perfume\perfume_06s.jpg	5	-1	0	0	perfume_06s.jpg	0	0	0	78.1859195037987	78.23591852856	0.0499990247612914
92297	50	193	0	0	crossbow	444	193	0	stimuli\crossbow\crossbow_01s.jpg	0	-1	0	0	crossbow_01s.jpg	0	0	0	78.2859346199984	78.3359214542761	0.0499868342776608
92397	50	194	0	0	peacock	1130	194	0	stimuli\peacock\peacock_03s.jpg	2	-1	0	0	peacock_03s.jpg	0	0	0	78.3859399838111	78.4359075571247	0.0499675733135518
92497	50	195	0	0	silverware	1445	195	0	stimuli\silverware\silverware_11s.jpg	10	-1	0	0	silverware_11s.jpg	0	0	0	78.4859468104819	78.5359078009342	0.0499609904522913
92597	50	196	0	0	revolving_door	1305	196	0	stimuli\revolving_door\revolving_door_03s.jpg	2	-1	0	0	revolving_door_03s.jpg	0	0	0	78.5859436409564	78.6359090199826	0.0499653790261618
92697	50	197	0	0	clarinet	350	197	0	stimuli\clarinet\clarinet_10s.jpg	9	-1	0	0	clarinet_10s.jpg	0	0	0	78.6859263304696	78.7359146276053	0.0499882971357692
92797	50	198	0	0	blueberry	149	198	0	stimuli\blueberry\blueberry_07s.jpg	6	-1	0	0	blueberry_07s.jpg	0	0	0	78.7859368142854	78.8358846390156	0.049947824730225
92897	50	199	0	0	board_game	153	199	0	stimuli\board_game\board_game_09s.jpg	8	-1	0	0	board_game_09s.jpg	0	0	0	78.8859234047536	78.9359243799922	0.0500009752386177
92997	50	200	0	0	quad	1260	200	0	stimuli\quad\quad_08s.jpg	7	-1	0	0	quad_08s.jpg	0	0	0	78.9859397400014	79.0359224295148	0.0499826895133992
93097	50	201	0	0	videogame	1762	201	0	stimuli\videogame\videogame_07s.jpg	6	-1	0	0	videogame_07s.jpg	0	0	0	79.0859916714617	79.1359702162104	0.0499785447486829
93197	50	202	0	0	gearshift	668	202	0	stimuli\gearshift\gearshift_04n.jpg	3	-1	0	0	gearshift_04n.jpg	0	0	0	79.1859836257427	79.235924379992	0.0499407542492918
93297	50	203	0	0	torch	1683	203	0	stimuli\torch\torch_11s.jpg	10	-1	0	0	torch_11s.jpg	0	0	0	79.285937058095	79.335919991418	0.0499829333230082
93397	50	204	0	0	christmas_card	340	204	0	stimuli\christmas_card\christmas_card_04s.jpg	3	-1	0	0	christmas_card_04s.jpg	0	0	0	79.3859377895242	79.435921454276	0.049983664751835
93497	50	205	0	0	mouth	1031	205	0	stimuli\mouth\mouth_12s.jpg	11	-1	0	0	mouth_12s.jpg	0	0	0	79.4859421780984	79.5359246238017	0.0499824457033355
93597	50	206	0	0	tee	1636	206	0	stimuli\tee\tee_01b.jpg	0	-1	0	0	tee_01b.jpg	0	0	0	79.5859465666722	79.6359424219077	0.0499958552354656
93697	50	207	0	0	dalmatian	471	207	0	stimuli\dalmatian\dalmatian_01b.jpg	0	-1	0	0	dalmatian_01b.jpg	0	0	0	79.6859587571557	79.7359314504724	0.049972693316704
93797	50	208	0	0	earwig	541	208	0	stimuli\earwig\earwig_02s.jpg	1	-1	0	0	earwig_02s.jpg	0	0	0	79.7859441285755	79.8359631457301	0.0500190171546819
93897	50	209	0	0	board	152	209	0	stimuli\board\board_05s.jpg	4	-1	0	0	board_05s.jpg	0	0	0	79.8859880143168	79.9359546123915	0.0499665980746613
93997	50	210	0	0	slot_machine	1470	210	0	stimuli\slot_machine\slot_machine_05s.jpg	4	-1	0	0	slot_machine_05s.jpg	0	0	0	79.9859699724007	80.0359470542917	0.0499770818910292
94097	50	211	0	0	toast	1665	211	0	stimuli\toast\toast_09s.jpg	8	-1	0	0	toast_09s.jpg	0	0	0	80.0859733857365	80.1359641209688	0.0499907352323135
94197	50	212	0	0	sheep	1414	212	0	stimuli\sheep\sheep_06s.jpg	5	-1	0	0	sheep_06s.jpg	0	0	0	80.1859853324104	80.2359704600203	0.0499851276099434
94297	50	213	0	0	can_opener	251	213	0	stimuli\can_opener\can_opener_02s.jpg	1	-1	0	0	can_opener_02s.jpg	0	0	0	80.2859807000264	80.3359565628689	0.0499758628425298
94397	50	214	0	0	first-aid_kit	599	214	0	stimuli\first-aid_kit\first-aid_kit_05s.jpg	4	-1	0	0	first-aid_kit_05s.jpg	0	0	0	80.3859738733554	80.43595583144	0.0499819580845724
94497	50	215	0	0	balance_beam	58	215	0	stimuli\balance_beam\balance_beam_12s.jpg	11	-1	0	0	balance_beam_12s.jpg	0	0	0	80.4859775305008	80.5359587571561	0.0499812266552908
94597	50	216	0	0	loincloth	944	216	0	stimuli\loincloth\loincloth_10s.jpg	9	-1	0	0	loincloth_10s.jpg	0	0	0	80.5859804562169	80.6359553438206	0.0499748876036392
94697	50	217	0	0	porcupine	1226	217	0	stimuli\porcupine\porcupine_01b.jpg	0	-1	0	0	porcupine_01b.jpg	0	0	0	80.6859775305006	80.7359609514428	0.0499834209422261
94797	50	218	0	0	fire_hydrant	592	218	0	stimuli\fire_hydrant\fire_hydrant_02s.jpg	1	-1	0	0	fire_hydrant_02s.jpg	0	0	0	80.785983381933	80.8359604638235	0.0499770818905745
94897	50	219	0	0	tarantula	1626	219	0	stimuli\tarantula\tarantula_08s.jpg	7	-1	0	0	tarantula_08s.jpg	0	0	0	80.8859863076491	80.9359655838266	0.0499792761775097
94997	50	220	0	0	handle	748	220	0	stimuli\handle\handle_01b.jpg	0	-1	0	0	handle_01b.jpg	0	0	0	80.9860145895709	81.0359975228939	0.0499829333230082
95097	50	221	0	0	fig	581	221	0	stimuli\fig\fig_08s.jpg	7	-1	0	0	fig_08s.jpg	0	0	0	81.0859909400328	81.1359721666877	0.0499812266548361
95197	50	222	0	0	dresser	519	222	0	stimuli\dresser\dresser_11s.jpg	10	-1	0	0	dresser_11s.jpg	0	0	0	81.1859926467005	81.2359975228937	0.0500048761932703
95297	50	223	0	0	toaster	1666	223	0	stimuli\toaster\toaster_12s.jpg	11	-1	0	0	toaster_12s.jpg	0	0	0	81.2860053248032	81.3359767990719	0.0499714742686592
95397	50	224	0	0	beehive	112	224	0	stimuli\beehive\beehive_12s.jpg	11	-1	0	0	beehive_12s.jpg	0	0	0	81.3859989857519	81.4359787495491	0.0499797637971824
95497	50	225	0	0	chicken2	323	225	0	stimuli\chicken2\chicken2_12s.jpg	11	-1	0	0	chicken2_12s.jpg	0	0	0	81.4860028867065	81.5359802124071	0.0499773257006382
95597	50	226	0	0	eye_patch	565	226	0	stimuli\eye_patch\eye_patch_07s.jpg	6	-1	0	0	eye_patch_07s.jpg	0	0	0	81.5859897209843	81.636006300042	0.050016579057683
95697	50	227	0	0	landmine	894	227	0	stimuli\landmine\landmine_03s.jpg	2	-1	0	0	landmine_03s.jpg	0	0	0	81.6860265362448	81.7360104448067	0.0499839085618987
95797	50	228	0	0	baseball_glove	80	228	0	stimuli\baseball_glove\baseball_glove_02s.jpg	1	-1	0	0	baseball_glove_02s.jpg	0	0	0	81.7860304371998	81.8359950847971	0.049964647597335
95897	50	229	0	0	nest	1056	229	0	stimuli\nest\nest_03s.jpg	2	-1	0	0	nest_03s.jpg	0	0	0	81.8860316562482	81.9359982543228	0.0499665980746613
95997	50	230	0	0	football	629	230	0	stimuli\football\football_04s.jpg	3	-1	0	0	football_04s.jpg	0	0	0	81.9860399457766	82.036004837184	0.0499648914073987
96097	50	231	0	0	air_conditioner	4	231	0	stimuli\air_conditioner\air_conditioner_11s.jpg	10	-1	0	0	air_conditioner_11s.jpg	0	0	0	82.0860177590966	82.1359963038453	0.0499785447486829
96197	50	232	0	0	filter	587	232	0	stimuli\filter\filter_09s.jpg	8	-1	0	0	filter_09s.jpg	0	0	0	82.1860180029062	82.2360311686284	0.0500131657222482
96297	50	233	0	0	blind	140	233	0	stimuli\blind\blind_04s.jpg	3	-1	0	0	blind_04s.jpg	0	0	0	82.2860550619766	82.336025804816	0.0499707428393776
96397	50	234	0	0	springboard	1522	234	0	stimuli\springboard\springboard_03s.jpg	2	-1	0	0	springboard_03s.jpg	0	0	0	82.3860165400483	82.4360279991029	0.0500114590545309
96497	50	235	0	0	pothole	1233	235	0	stimuli\pothole\pothole_12n.jpg	11	-1	0	0	pothole_12n.jpg	0	0	0	82.4860570124538	82.5360138581418	0.0499568456880297
96597	50	236	0	0	cellphone	293	236	0	stimuli\cellphone\cellphone_12s.jpg	11	-1	0	0	cellphone_12s.jpg	0	0	0	82.586055305786	82.6360231229096	0.0499678171236155
96697	50	237	0	0	gramophone	699	237	0	stimuli\gramophone\gramophone_05s.jpg	4	-1	0	0	gramophone_05s.jpg	0	0	0	82.6860565248344	82.7360404333963	0.0499839085618987
96797	50	238	0	0	marmalade	976	238	0	stimuli\marmalade\marmalade_07s.jpg	6	-1	0	0	marmalade_07s.jpg	0	0	0	82.7860601819798	82.8360392143477	0.0499790323679008
96897	50	239	0	0	bell	116	239	0	stimuli\bell\bell_11s.jpg	10	-1	0	0	bell_11s.jpg	0	0	0	82.8860438467318	82.9360401895865	0.0499963428546835
96997	50	240	0	0	dial	483	240	0	stimuli\dial\dial_06s.jpg	5	-1	0	0	dial_06s.jpg	0	0	0	82.986063595315	83.0360448219703	0.0499812266552908
97097	50	241	0	0	microscope	999	241	0	stimuli\microscope\microscope_01b.jpg	0	-1	0	0	microscope_01b.jpg	0	0	0	83.08606725246	83.1360489667345	0.0499817142745087
97197	50	242	0	0	license_plate	921	242	0	stimuli\license_plate\license_plate_09s.jpg	8	-1	0	0	license_plate_09s.jpg	0	0	0	83.1860709096054	83.2360523800703	0.0499814704648998
97297	50	243	0	0	hairnet	736	243	0	stimuli\hairnet\hairnet_05s.jpg	4	-1	0	0	hairnet_05s.jpg	0	0	0	83.2860765172277	83.3360504295929	0.0499739123652034
97397	50	244	0	0	tripod	1714	244	0	stimuli\tripod\tripod_06s.jpg	5	-1	0	0	tripod_06s.jpg	0	0	0	83.3860599381701	83.4360545743571	0.0499946361869661
97497	50	245	0	0	beaker	101	245	0	stimuli\beaker\beaker_10s.jpg	9	-1	0	0	beaker_10s.jpg	0	0	0	83.4860811496114	83.5360423838733	0.0499612342619002
97597	50	246	0	0	flashlight	611	246	0	stimuli\flashlight\flashlight_06s.jpg	5	-1	0	0	flashlight_06s.jpg	0	0	0	83.5860796867532	83.636058475312	0.0499787885587466
97697	50	247	0	0	leopard	917	247	0	stimuli\leopard\leopard_03s.jpg	2	-1	0	0	leopard_03s.jpg	0	0	0	83.6860662772215	83.7360696905571	0.0500034133356166
97797	50	248	0	0	french_horn	642	248	0	stimuli\french_horn\french_horn_11s.jpg	10	-1	0	0	french_horn_11s.jpg	0	0	0	83.786070178176	83.8360433591124	0.0499731809363766
97897	50	249	0	0	foot	628	249	0	stimuli\foot\foot_11s.jpg	10	-1	0	0	foot_11s.jpg	0	0	0	83.8860587191216	83.9360394581577	0.0499807390360729
97997	50	250	0	0	swan	1591	250	0	stimuli\swan\swan_12s.jpg	11	-1	0	0	swan_12s.jpg	0	0	0	83.9860945591436	84.0360479914962	0.049953432352595
98097	50	251	0	0	cherry	316	251	0	stimuli\cherry\cherry_10n.jpg	9	-1	0	0	cherry_10n.jpg	0	0	0	84.0860645705538	84.1360426276833	0.049978057129465
98197	50	252	0	0	hairpin	737	252	0	stimuli\hairpin\hairpin_09s.jpg	8	-1	0	0	hairpin_09s.jpg	0	0	0	84.1860553057863	84.2360796867533	0.0500243809669882
98297	50	253	0	0	joystick	852	253	0	stimuli\joystick\joystick_05s.jpg	4	-1	0	0	joystick_05s.jpg	0	0	0	84.2860994353368	84.3360611572184	0.0499617218815729
98397	50	254	0	0	block	143	254	0	stimuli\block\block_09s.jpg	8	-1	0	0	block_09s.jpg	0	0	0	84.3860828562792	84.4360796867536	0.0499968304743561
98497	50	255	0	0	diaper	485	255	0	stimuli\diaper\diaper_04s.jpg	3	-1	0	0	diaper_04s.jpg	0	0	0	84.4861060181979	84.5360833438986	0.0499773257006382
98597	50	256	0	0	beard	106	256	0	stimuli\beard\beard_07s.jpg	6	-1	0	0	beard_07s.jpg	0	0	0	84.5861065058175	84.6360860258051	0.0499795199875734
98697	50	257	0	0	rose	1334	257	0	stimuli\rose\rose_05s.jpg	4	-1	0	0	rose_05s.jpg	0	0	0	84.6861096753432	84.7360794429437	0.0499697676004871
98797	50	258	0	0	breakfast	197	258	0	stimuli\breakfast\breakfast_08s.jpg	7	-1	0	0	breakfast_08s.jpg	0	0	0	84.7860870010436	84.8360640829342	0.0499770818905745
98897	50	259	0	0	car	267	259	0	stimuli\car\car_06s.jpg	5	-1	0	0	car_06s.jpg	0	0	0	84.8860833438985	84.93606749627	0.0499841523715077
98997	50	260	0	0	wheelchair	1808	260	0	stimuli\wheelchair\wheelchair_09n.jpg	8	-1	0	0	wheelchair_09n.jpg	0	0	0	84.986094315334	85.0360752981792	0.0499809828452271
99097	50	261	0	0	hotdog	805	261	0	stimuli\hotdog\hotdog_04s.jpg	3	-1	0	0	hotdog_04s.jpg	0	0	0	85.0860945591435	85.1360760296084	0.0499814704648998
99197	50	262	0	0	nutcracker	1067	262	0	stimuli\nutcracker\nutcracker_09s.jpg	8	-1	0	0	nutcracker_09s.jpg	0	0	0	85.1861006543854	85.2360799305629	0.0499792761775097
99297	50	263	0	0	ant	24	263	0	stimuli\ant\ant_08s.jpg	7	-1	0	0	ant_08s.jpg	0	0	0	85.2861079686754	85.3361082124852	0.0500002438097908
99397	50	264	0	0	urinal	1748	264	0	stimuli\urinal\urinal_01b.jpg	0	-1	0	0	urinal_01b.jpg	0	0	0	85.3861318620234	85.4361074810563	0.0499756190329208
99497	50	265	0	0	cat	284	265	0	stimuli\cat\cat_04s.jpg	3	-1	0	0	cat_04s.jpg	0	0	0	85.4861126010592	85.5360879762825	0.0499753752233119
99597	50	266	0	0	scallion	1372	266	0	stimuli\scallion\scallion_11s.jpg	10	-1	0	0	scallion_11s.jpg	0	0	0	85.5861338125005	85.6361140639174	0.049980251416855
99697	50	267	0	0	bone	161	267	0	stimuli\bone\bone_09s.jpg	8	-1	0	0	bone_09s.jpg	0	0	0	85.686138688694	85.7361186963012	0.0499800076072461
99797	50	268	0	0	ski_boots	1453	268	0	stimuli\ski_boots\ski_boots_05s.jpg	4	-1	0	0	ski_boots_05s.jpg	0	0	0	85.7861403953621	85.8361040677205	0.0499636723584445
99897	50	269	0	0	rattlesnake	1288	269	0	stimuli\rattlesnake\rattlesnake_10s.jpg	9	-1	0	0	rattlesnake_10s.jpg	0	0	0	85.8861250353525	85.9361196715399	0.0499946361874208
99997	50	270	0	0	syrup	1605	270	0	stimuli\syrup\syrup_09s.jpg	8	-1	0	0	syrup_09s.jpg	0	0	0	85.9861433210781	86.0361255229718	0.0499822018937266
100097	50	271	0	0	firetruck	596	271	0	stimuli\firetruck\firetruck_04s.jpg	3	-1	0	0	firetruck_04s.jpg	0	0	0	86.0861462467942	86.136117964872	0.0499717180778134
100197	50	272	0	0	water_filter	1789	272	0	stimuli\water_filter\water_filter_08s.jpg	7	-1	0	0	water_filter_08s.jpg	0	0	0	86.1861747725256	86.2361333248814	0.0499585523557471
100297	50	273	0	0	baton2	93	273	0	stimuli\baton2\baton2_04s.jpg	3	-1	0	0	baton2_04s.jpg	0	0	0	86.286152098226	86.3361308867848	0.0499787885587466
100397	50	274	0	0	bobsled	155	274	0	stimuli\bobsled\bobsled_04s.jpg	3	-1	0	0	bobsled_04s.jpg	0	0	0	86.3861389325039	86.4361179648722	0.0499790323683555
100497	50	275	0	0	headrest	767	275	0	stimuli\headrest\headrest_04s.jpg	3	-1	0	0	headrest_04s.jpg	0	0	0	86.486159656326	86.5361394201232	0.0499797637971824
100597	50	276	0	0	bulletproof_vest	218	276	0	stimuli\bulletproof_vest\bulletproof_vest_05s.jpg	4	-1	0	0	bulletproof_vest_05s.jpg	0	0	0	86.5861608753744	86.636123816304	0.0499629409296176
100697	50	277	0	0	butterfly	229	277	0	stimuli\butterfly\butterfly_05s.jpg	4	-1	0	0	butterfly_05s.jpg	0	0	0	86.6861481972715	86.7361211343978	0.0499729371263129
100797	50	278	0	0	pepper_mill	1151	278	0	stimuli\pepper_mill\pepper_mill_03s.jpg	2	-1	0	0	pepper_mill_03s.jpg	0	0	0	86.7861377134554	86.8361145515364	0.0499768380809655
100897	50	279	0	0	pony	1220	279	0	stimuli\pony\pony_08s.jpg	7	-1	0	0	pony_08s.jpg	0	0	0	86.8861384448846	86.9361225972557	0.0499841523710529
100997	50	280	0	0	top_hat	1682	280	0	stimuli\top_hat\top_hat_07s.jpg	6	-1	0	0	top_hat_07s.jpg	0	0	0	86.9861469782231	87.0361228410657	0.0499758628425298
101097	50	281	0	0	cage	236	281	0	stimuli\cage\cage_06s.jpg	5	-1	0	0	cage_06s.jpg	0	0	0	87.0861452715553	87.1361233286848	0.049978057129465
101197	50	282	0	0	skateboard	1449	282	0	stimuli\skateboard\skateboard_10s.jpg	9	-1	0	0	skateboard_10s.jpg	0	0	0	87.1861535610842	87.2361230848751	0.0499695237908782
101297	50	283	0	0	scrambled_egg	1386	283	0	stimuli\scrambled_egg\scrambled_egg_11s.jpg	10	-1	0	0	scrambled_egg_11s.jpg	0	0	0	87.2861823306257	87.3361479534619	0.0499656228362255
101397	50	284	0	0	stilt	1555	284	0	stimuli\stilt\stilt_02s.jpg	1	-1	0	0	stilt_02s.jpg	0	0	0	87.3861852563414	87.4361559991808	0.0499707428393776
101497	50	285	0	0	stalagmite	1534	285	0	stimuli\stalagmite\stalagmite_05s.jpg	4	-1	0	0	stalagmite_05s.jpg	0	0	0	87.486153804894	87.5361372258362	0.0499834209422261
101597	50	286	0	0	moth	1023	286	0	stimuli\moth\moth_11n.jpg	10	-1	0	0	moth_11n.jpg	0	0	0	87.5861613629936	87.6361384448846	0.0499770818910292
101697	50	287	0	0	belt	118	287	0	stimuli\belt\belt_12s.jpg	11	-1	0	0	belt_12s.jpg	0	0	0	87.6861781858611	87.7361528296551	0.0499746437940303
101797	50	288	0	0	boar	151	288	0	stimuli\boar\boar_01b.jpg	0	-1	0	0	boar_01b.jpg	0	0	0	87.7861647763293	87.8361452715553	0.0499804952260092
101897	50	289	0	0	bouquet	173	289	0	stimuli\bouquet\bouquet_07s.jpg	6	-1	0	0	bouquet_07s.jpg	0	0	0	87.8861542925133	87.9361642887097	0.0500099961964224
101997	50	290	0	0	corkboard	410	290	0	stimuli\corkboard\corkboard_09s.jpg	8	-1	0	0	corkboard_09s.jpg	0	0	0	87.98620134778	88.0361547801326	0.049953432352595
102097	50	291	0	0	blackberry	135	291	0	stimuli\blackberry\blackberry_06s.jpg	5	-1	0	0	blackberry_06s.jpg	0	0	0	88.0861716029999	88.1361525858456	0.0499809828456819
102197	50	292	0	0	mattress	985	292	0	stimuli\mattress\mattress_08s.jpg	7	-1	0	0	mattress_08s.jpg	0	0	0	88.1861993973025	88.2361540487036	0.0499546514010945
102297	50	293	0	0	clove	365	293	0	stimuli\clove\clove_02s.jpg	1	-1	0	0	clove_02s.jpg	0	0	0	88.2862076868314	88.3361847687224	0.0499770818910292
102397	50	294	0	0	wrench	1841	294	0	stimuli\wrench\wrench_05s.jpg	4	-1	0	0	wrench_05s.jpg	0	0	0	88.3862079306409	88.436210124928	0.0500021942871172
102497	50	295	0	0	hovercraft	808	295	0	stimuli\hovercraft\hovercraft_07s.jpg	6	-1	0	1	hovercraft_07s.jpg	0	0	0	88.4862123192152	88.5361935458704	0.0499812266552908
102597	50	296	0	0	railing	1277	296	0	stimuli\railing\railing_03s.jpg	2	-1	0	0	railing_03s.jpg	0	0	0	88.5862159763601	88.6361789172902	0.0499629409300724
102697	50	297	0	0	eggnog	549	297	0	stimuli\eggnog\eggnog_03s.jpg	2	-1	0	0	eggnog_03s.jpg	0	0	0	88.6862181706474	88.7361964715865	0.049978300939074
102797	50	298	0	0	squash	1526	298	0	stimuli\squash\squash_04s.jpg	3	-1	0	0	squash_04s.jpg	0	0	0	88.7861937896801	88.8361713591903	0.0499775695102471
102897	50	299	0	0	souffle	1498	299	0	stimuli\souffle\souffle_12s.jpg	11	-1	0	0	souffle_12s.jpg	0	0	0	88.8861945211092	88.9362040296865	0.0500095085772045
102997	50	300	0	0	wetsuit	1803	300	0	stimuli\wetsuit\wetsuit_12s.jpg	11	-1	0	0	wetsuit_12s.jpg	1	0.500175055344698	1	88.9862276792246	89.0361811115772	0.049953432352595
103097	50	301	0	0	chinaware	331	301	0	stimuli\chinaware\chinaware_06s.jpg	5	-1	0	0	chinaware_06s.jpg	0	0	0	89.0861996411122	89.1361813553867	0.0499817142745087
103197	50	302	0	0	hood	791	302	0	stimuli\hood\hood_04s.jpg	3	-1	0	0	hood_04s.jpg	0	0	0	89.186232555418	89.2362145135021	0.0499819580841177
103297	50	303	0	0	shoehorn	1425	303	0	stimuli\shoehorn\shoehorn_10s.jpg	9	-1	0	0	shoehorn_10s.jpg	0	0	0	89.2862381630407	89.3362123192151	0.0499741561743576
103397	50	304	0	0	handprint	750	304	0	stimuli\handprint\handprint_04s.jpg	3	-1	0	0	handprint_04s.jpg	0	0	0	89.3862091496894	89.436218414457	0.0500092647675956
103497	50	305	0	0	penlight	1147	305	0	stimuli\penlight\penlight_07s.jpg	6	-1	0	0	penlight_07s.jpg	0	0	0	89.4862279230342	89.536219877315	0.0499919542808129
103597	50	306	0	0	stretcher	1572	306	0	stimuli\stretcher\stretcher_08s.jpg	7	-1	0	0	stretcher_08s.jpg	0	0	0	89.5862259725568	89.6362069554025	0.0499809828456819
103697	50	307	0	0	bib	122	307	0	stimuli\bib\bib_05s.jpg	4	-1	0	0	bib_05s.jpg	0	0	0	89.6862430392339	89.7362235344604	0.049980495226464
103797	50	308	0	0	bonsai	164	308	0	stimuli\bonsai\bonsai_11s.jpg	10	-1	0	0	bonsai_11s.jpg	0	0	0	89.7862466963788	89.8362330430373	0.0499863466584429
114197	50	309	0	0	tape_measure	1623	0	1	stimuli\tape_measure\tape_measure_09s.jpg	8	-1	1	0	tape_measure_09s.jpg	0	0	0	100.186505622251	100.236479534616	0.0499739123652034
114297	50	310	0	0	soda	1490	1	1	stimuli\soda\soda_08s.jpg	7	-1	1	0	soda_08s.jpg	0	0	0	100.286496601293	100.336483435571	0.0499868342776608
114397	50	311	0	0	thermostat	1648	2	1	stimuli\thermostat\thermostat_01b.jpg	0	-1	1	0	thermostat_01b.jpg	0	0	0	100.386500502248	100.436472707946	0.0499722056974861
114497	50	312	0	0	panda	1105	3	1	stimuli\panda\panda_05s.jpg	4	-1	1	0	panda_05s.jpg	0	0	0	100.486515374638	100.53648392319	0.0499685485519876
114597	50	313	0	0	palette	1100	4	1	stimuli\palette\palette_04s.jpg	3	-1	1	0	palette_04s.jpg	0	0	0	100.586505378441	100.636481485094	0.0499761066521387
114697	50	314	0	0	cornmeal	415	5	1	stimuli\cornmeal\cornmeal_03s.jpg	2	-1	1	0	cornmeal_03s.jpg	0	0	0	100.686545119418	100.736501477487	0.0499563580688118
114797	50	315	0	0	clock	359	6	1	stimuli\clock\clock_07n.jpg	6	-1	1	0	clock_07n.jpg	0	0	0	100.786518300354	100.836497332723	0.0499790323683555
114897	50	316	0	0	sugar_cube	1579	7	1	stimuli\sugar_cube\sugar_cube_04s.jpg	3	-1	1	0	sugar_cube_04s.jpg	0	0	0	100.886520007022	100.936498064151	0.049978057129465
114997	50	317	0	0	mousetrap	1029	8	1	stimuli\mousetrap\mousetrap_05s.jpg	4	-1	1	0	mousetrap_05s.jpg	0	0	0	100.986552677518	101.036526833693	0.0499741561748124
115097	50	318	0	0	hinge	779	9	1	stimuli\hinge\hinge_04s.jpg	3	-1	1	0	hinge_04s.jpg	0	0	0	101.086547801324	101.136546338466	0.0499985371420735
115197	50	319	0	0	whipped_cream	1810	10	1	stimuli\whipped_cream\whipped_cream_07s.jpg	6	-1	1	0	whipped_cream_07s.jpg	0	0	0	101.186527321312	101.236508304158	0.0499809828456819
115297	50	320	0	0	soda_fountain	1491	11	1	stimuli\soda_fountain\soda_fountain_10s.jpg	9	-1	1	0	soda_fountain_10s.jpg	0	0	0	101.286568768956	101.336533904173	0.0499651352165529
115397	50	321	0	0	t-shirt	1606	12	1	stimuli\t-shirt\t-shirt_07s.jpg	6	-1	1	0	t-shirt_07s.jpg	0	0	0	101.38655828514	101.436538048938	0.0499797637971824
115497	50	322	0	0	bison	134	13	1	stimuli\bison\bison_01b.jpg	0	-1	1	0	bison_01b.jpg	0	0	0	101.486559747998	101.536514887019	0.0499551390203123
115597	50	323	0	0	punching_bag	1256	14	1	stimuli\punching_bag\punching_bag_11s.jpg	10	-1	1	0	punching_bag_11s.jpg	0	0	0	101.586545363228	101.636548532753	0.0500031695255529
115697	50	324	0	0	rollerskate	1327	15	1	stimuli\rollerskate\rollerskate_08s.jpg	7	-1	1	0	rollerskate_08s.jpg	0	0	0	101.686590468017	101.736520738451	0.0499302704338334
115797	50	325	0	0	washing_machine	1784	16	1	stimuli\washing_machine\washing_machine_01b.jpg	0	-1	1	0	washing_machine_01b.jpg	0	0	0	101.786539755605	101.836518544164	0.0499787885587466
115897	50	326	0	0	hockey_stick	783	17	1	stimuli\hockey_stick\hockey_stick_09s.jpg	8	-1	1	0	hockey_stick_09s.jpg	0	0	0	101.886575108008	101.936552433708	0.0499773257001834
115997	50	327	0	0	cobra	371	18	1	stimuli\cobra\cobra_03s.jpg	2	-1	1	0	cobra_03s.jpg	0	0	0	101.986552433708	102.03652854036	0.0499761066521387
116097	50	328	0	0	caramel	270	19	1	stimuli\caramel\caramel_06s.jpg	5	-1	1	0	caramel_06s.jpg	0	0	0	102.086551702279	102.136533904173	0.0499822018937266
116197	50	329	0	0	mouse2	1027	20	1	stimuli\mouse2\mouse2_02s.jpg	1	-1	1	0	mouse2_02s.jpg	0	0	0	102.186549507992	102.23656608705	0.050016579057683
116297	50	330	0	0	container	398	21	1	stimuli\container\container_06s.jpg	5	-1	1	0	container_06s.jpg	0	0	0	102.286556822282	102.336536829889	0.0499800076067913
116397	50	331	0	0	fencepost	576	22	1	stimuli\fencepost\fencepost_05s.jpg	4	-1	1	0	fencepost_05s.jpg	0	0	0	102.386589492779	102.436567306098	0.0499778133198561
116497	50	332	0	0	mashed_potato	979	23	1	stimuli\mashed_potato\mashed_potato_04s.jpg	3	-1	1	0	mashed_potato_04s.jpg	0	0	0	102.486584860394	102.536567793717	0.0499829333230082
116597	50	333	0	0	kitten	875	24	1	stimuli\kitten\kitten_08s.jpg	7	-1	1	0	kitten_08s.jpg	0	0	0	102.58658802992	102.636550727041	0.0499626971204634
116697	50	334	0	0	shell3	1419	25	1	stimuli\shell3\shell3_06s.jpg	5	-1	1	0	shell3_06s.jpg	0	0	0	102.686593149924	102.736576083246	0.0499829333225534
116797	50	335	0	0	corn	412	26	1	stimuli\corn\corn_07s.jpg	6	-1	1	0	corn_07s.jpg	0	0	0	102.78659583183	102.836560967047	0.0499651352170076
116897	50	336	0	0	biscuit	133	27	1	stimuli\biscuit\biscuit_02s.jpg	1	-1	1	0	biscuit_02s.jpg	0	0	0	102.886582422298	102.936577789914	0.0499953676162477
116997	50	337	0	0	loveseat	947	28	1	stimuli\loveseat\loveseat_10s.jpg	9	-1	1	0	loveseat_10s.jpg	0	0	0	102.986600951833	103.036584860395	0.049983908561444
117097	50	338	0	0	stirrup	1558	29	1	stimuli\stirrup\stirrup_01b.jpg	0	-1	1	0	stirrup_01b.jpg	0	0	0	103.086602170882	103.136584128966	0.0499819580841177
117197	50	339	0	0	cassette	283	30	1	stimuli\cassette\cassette_07s.jpg	6	-1	1	0	cassette_07s.jpg	0	0	0	103.186588029921	103.236560967047	0.0499729371263129
117297	50	340	0	0	frame	639	31	1	stimuli\frame\frame_01b.jpg	0	-1	1	0	frame_01b.jpg	0	0	0	103.286583397537	103.33656584324	0.0499824457037903
117397	50	341	0	0	dip	487	32	1	stimuli\dip\dip_02s.jpg	1	-1	1	0	dip_02s.jpg	0	0	0	103.386586323253	103.436569012766	0.0499826895133992
117497	50	342	0	0	grate	707	33	1	stimuli\grate\grate_04s.jpg	3	-1	1	0	grate_04s.jpg	0	0	0	103.486584616585	103.536568525147	0.0499839085618987
117597	50	343	0	0	clothesline	362	34	1	stimuli\clothesline\clothesline_11s.jpg	10	-1	1	0	clothesline_11s.jpg	0	0	0	103.586589492778	103.636599976594	0.0500104838160951
117697	50	344	0	0	stick	1552	35	1	stimuli\stick\stick_07s.jpg	6	-1	1	0	stick_07s.jpg	0	0	0	103.686594125162	103.736571938482	0.0499778133198561
117797	50	345	0	0	keg	866	36	1	stimuli\keg\keg_01b.jpg	0	-1	1	0	keg_01b.jpg	0	0	0	103.786591930875	103.836575108008	0.0499831771326171
117897	50	346	0	0	baseball_bat	79	37	1	stimuli\baseball_bat\baseball_bat_09s.jpg	8	-1	1	0	baseball_bat_09s.jpg	0	0	0	103.886594856591	103.936570963243	0.0499761066521387
117997	50	347	0	0	gate	662	38	1	stimuli\gate\gate_07s.jpg	6	-1	1	0	gate_07s.jpg	0	0	0	103.98662508899	104.036591199446	0.0499661104558982
118097	50	348	0	0	metal_detector	996	39	1	stimuli\metal_detector\metal_detector_10s.jpg	9	-1	1	0	metal_detector_10s.jpg	0	0	0	104.086630696613	104.136587054682	0.0499563580683571
118197	50	349	0	0	shower	1433	40	1	stimuli\shower\shower_07s.jpg	6	-1	1	0	shower_07s.jpg	0	0	0	104.186605340407	104.236583153727	0.0499778133194013
118297	50	350	0	0	dart	473	41	1	stimuli\dart\dart_05s.jpg	4	-1	1	0	dart_05s.jpg	0	0	0	104.286605340407	104.336586810872	0.0499814704648998
118397	50	351	0	0	crab	428	42	1	stimuli\crab\crab_10s.jpg	9	-1	1	0	crab_10s.jpg	0	0	0	104.386644837574	104.436602414691	0.0499575771168566
118497	50	352	0	0	gourd	696	43	1	stimuli\gourd\gourd_02s.jpg	1	-1	1	0	gourd_02s.jpg	0	0	0	104.486613142317	104.536589248969	0.0499761066521387
118597	50	353	0	0	engine	557	44	1	stimuli\engine\engine_04s.jpg	3	-1	1	0	engine_04s.jpg	0	0	0	104.586613873746	104.636592662304	0.0499787885587466
118697	50	354	0	0	kilt	872	45	1	stimuli\kilt\kilt_03s.jpg	2	-1	1	0	kilt_03s.jpg	0	0	0	104.686616311842	104.736594368972	0.049978057129465
118797	50	355	0	0	puddle	1247	46	1	stimuli\puddle\puddle_10s.jpg	9	-1	1	0	puddle_10s.jpg	0	0	0	104.786617287081	104.836600708024	0.0499834209422261
118897	50	356	0	0	leggings	912	47	1	stimuli\leggings\leggings_01b.jpg	0	-1	1	0	leggings_01b.jpg	0	0	0	104.886620700417	104.936601683262	0.0499809828452271
118997	50	357	0	0	tablet	1610	48	1	stimuli\tablet\tablet_03s.jpg	2	-1	1	0	tablet_03s.jpg	0	0	0	104.98662508899	105.036605340407	0.049980251416855
119097	50	358	0	0	beer	113	49	1	stimuli\beer\beer_08s.jpg	7	-1	1	0	beer_08s.jpg	0	0	0	105.086626308039	105.136606315646	0.0499800076072461
119197	50	359	0	0	cot	420	50	1	stimuli\cot\cot_06s.jpg	5	-1	1	0	cot_06s.jpg	0	0	0	105.186636791855	105.236639473761	0.0500026819063351
119297	50	360	0	0	grass	705	51	1	stimuli\grass\grass_09s.jpg	8	-1	1	0	grass_09s.jpg	0	0	0	105.286659709964	105.336643862335	0.0499841523710529
119397	50	361	0	0	sunflower	1584	52	1	stimuli\sunflower\sunflower_07s.jpg	6	-1	1	0	sunflower_07s.jpg	0	0	0	105.386667268064	105.436623138513	0.0499558704495939
119497	50	362	0	0	marijuana	974	53	1	stimuli\marijuana\marijuana_09s.jpg	8	-1	1	0	marijuana_09s.jpg	0	0	0	105.486638254713	105.536619237559	0.0499809828456819
119597	50	363	0	0	batter	96	54	1	stimuli\batter\batter_11s.jpg	10	-1	1	0	batter_11s.jpg	0	0	0	105.586637767094	105.636621919465	0.0499841523710529
119697	50	364	0	0	wineglass	1826	55	1	stimuli\wineglass\wineglass_03s.jpg	2	-1	1	0	wineglass_03s.jpg	0	0	0	105.686675801403	105.736653614722	0.0499778133198561
119797	50	365	0	0	awning	44	56	1	stimuli\awning\awning_07s.jpg	6	-1	1	0	awning_07s.jpg	0	0	0	105.786652639484	105.836628746136	0.0499761066521387
119897	50	366	0	0	sewage	1405	57	1	stimuli\sewage\sewage_01b.jpg	0	-1	1	0	sewage_01b.jpg	0	0	0	105.886682628073	105.936642155668	0.0499595275946376
119997	50	367	0	0	cabbage	232	58	1	stimuli\cabbage\cabbage_09s.jpg	8	-1	1	0	cabbage_09s.jpg	0	0	0	105.986657271867	106.036647031861	0.0499897599938777
120097	50	368	0	0	cactus	235	59	1	stimuli\cactus\cactus_02s.jpg	1	-1	1	0	cactus_02s.jpg	0	0	0	106.08668530998	106.136662148061	0.0499768380809655
120197	50	369	0	0	paper_plate	1114	60	1	stimuli\paper_plate\paper_plate_03s.jpg	2	-1	1	0	paper_plate_03s.jpg	0	0	0	106.186688967125	106.236642643287	0.0499536761626587
120297	50	370	0	0	hot-air_balloon	801	61	1	stimuli\hot-air_balloon\hot-air_balloon_04s.jpg	3	-1	1	0	hot-air_balloon_04s.jpg	0	0	0	106.286658247106	106.336643374716	0.0499851276099434
120397	50	371	0	0	duster	534	62	1	stimuli\duster\duster_08s.jpg	7	-1	1	0	duster_08s.jpg	0	0	0	106.386695062366	106.436672631877	0.0499775695102471
120497	50	372	0	0	trailer	1697	63	1	stimuli\trailer\trailer_01b.jpg	0	-1	1	0	trailer_01b.jpg	0	0	0	106.486695793796	106.536676776641	0.0499809828456819
120597	50	373	0	0	chain	298	64	1	stimuli\chain\chain_09s.jpg	8	-1	1	0	chain_09s.jpg	0	0	0	106.586682384263	106.636679702357	0.0499973180940287
120697	50	374	0	0	ruler	1341	65	1	stimuli\ruler\ruler_12s.jpg	11	-1	1	0	ruler_12s.jpg	0	0	0	106.686700669989	106.736663367109	0.0499626971200087
120797	50	375	0	0	avocado	43	66	1	stimuli\avocado\avocado_05s.jpg	4	-1	1	0	avocado_05s.jpg	0	0	0	106.786702132847	106.836666049016	0.0499639161685081
120897	50	376	0	0	hairdryer	735	67	1	stimuli\hairdryer\hairdryer_02s.jpg	1	-1	1	0	hairdryer_02s.jpg	0	0	0	106.886708228089	106.936687260457	0.0499790323679008
120997	50	377	0	0	juicer2	856	68	1	stimuli\juicer2\juicer2_11s.jpg	10	-1	1	0	juicer2_11s.jpg	0	0	0	106.986689942364	107.036687504267	0.0499975619031829
121097	50	378	0	0	kebab	865	69	1	stimuli\kebab\kebab_07n.jpg	6	-1	1	0	kebab_07n.jpg	0	0	0	107.08669262427	107.13669238046	0.049999756190573
121197	50	379	0	0	duckling	526	70	1	stimuli\duckling\duckling_12s.jpg	11	-1	1	0	duckling_12s.jpg	0	0	0	107.186690917602	107.236664586158	0.0499736685551397
121297	50	380	0	0	frisbee	643	71	1	stimuli\frisbee\frisbee_08s.jpg	7	-1	1	0	frisbee_08s.jpg	0	0	0	107.28668530998	107.336666292825	0.0499809828452271
121397	50	381	0	0	banana_peel	64	72	1	stimuli\banana_peel\banana_peel_05s.jpg	4	-1	1	0	banana_peel_05s.jpg	0	0	0	107.386724319527	107.436675557593	0.0499512380656597
121497	50	382	0	0	birdcage	130	73	1	stimuli\birdcage\birdcage_07s.jpg	6	-1	1	0	birdcage_07s.jpg	0	0	0	107.486692868079	107.536676532832	0.0499836647522898
121597	50	383	0	0	knitting_needle	881	74	1	stimuli\knitting_needle\knitting_needle_04s.jpg	3	-1	1	0	knitting_needle_04s.jpg	0	0	0	107.586694818557	107.636674338544	0.0499795199871187
121697	50	384	0	0	mixer	1009	75	1	stimuli\mixer\mixer_10s.jpg	9	-1	1	0	mixer_10s.jpg	0	0	0	107.686696769034	107.736676289022	0.0499795199875734
121797	50	385	0	0	lumber	949	76	1	stimuli\lumber\lumber_04s.jpg	3	-1	1	0	lumber_04s.jpg	0	0	0	107.78669969475	107.836681165215	0.0499814704648998
121897	50	386	0	0	doormat	511	77	1	stimuli\doormat\doormat_12s.jpg	11	-1	1	0	doormat_12s.jpg	0	0	0	107.886702620467	107.936677020451	0.0499743999844213
121997	50	387	0	0	water_fountain	1790	78	1	stimuli\water_fountain\water_fountain_04s.jpg	3	-1	1	0	water_fountain_04s.jpg	0	0	0	107.986735047153	108.036716273808	0.0499812266552908
122097	50	388	0	0	pennant	1148	79	1	stimuli\pennant\pennant_10s.jpg	9	-1	1	0	pennant_10s.jpg	0	0	0	108.086734803343	108.136720174763	0.0499853714200071
122197	50	389	0	0	egg_roll	547	80	1	stimuli\egg_roll\egg_roll_09n.jpg	8	-1	1	0	egg_roll_09n.jpg	0	0	0	108.18671481095	108.236690429983	0.0499756190329208
122297	50	390	0	0	honeycomb	789	81	1	stimuli\honeycomb\honeycomb_06s.jpg	5	-1	1	0	honeycomb_06s.jpg	0	0	0	108.286714079521	108.336694818557	0.0499807390360729
122397	50	391	0	0	altar	16	82	1	stimuli\altar\altar_02s.jpg	1	-1	1	0	altar_02s.jpg	0	0	0	108.386747969066	108.436727001434	0.0499790323679008
122497	50	392	0	0	keyboard	870	83	1	stimuli\keyboard\keyboard_08s.jpg	7	-1	1	0	keyboard_08s.jpg	0	0	0	108.486731146198	108.536727732863	0.0499965866647472
122597	50	393	0	0	ambulance	19	84	1	stimuli\ambulance\ambulance_05s.jpg	4	-1	1	0	ambulance_05s.jpg	0	0	0	108.586750650972	108.636733340485	0.0499826895129445
122697	50	394	0	0	blazer	137	85	1	stimuli\blazer\blazer_02s.jpg	1	-1	1	0	blazer_02s.jpg	0	0	0	108.686733828104	108.736709447137	0.0499756190329208
122797	50	395	0	0	glass	677	86	1	stimuli\glass\glass_11s.jpg	10	-1	1	0	glass_11s.jpg	0	0	0	108.786727489053	108.836709690947	0.0499822018937266
122897	50	396	0	0	crouton	445	87	1	stimuli\crouton\crouton_05s.jpg	4	-1	1	0	crouton_05s.jpg	0	0	0	108.886766010981	108.936740167156	0.0499741561748124
122997	50	397	0	0	weather_vane	1798	88	1	stimuli\weather_vane\weather_vane_04s.jpg	3	-1	1	0	weather_vane_04s.jpg	0	0	0	108.986746993827	109.036747969065	0.0500009752386177
123097	50	398	0	0	bedpan	109	89	1	stimuli\bedpan\bedpan_01b.jpg	0	-1	1	0	bedpan_01b.jpg	0	0	0	109.086763085265	109.136742361443	0.0499792761775097
123197	50	399	0	0	airplane	10	90	1	stimuli\airplane\airplane_03n.jpg	2	-1	1	0	airplane_03n.jpg	0	0	0	109.186740167156	109.236719930953	0.0499797637971824
123297	50	400	0	0	bucket	209	91	1	stimuli\bucket\bucket_01b.jpg	0	-1	1	0	bucket_01b.jpg	0	0	0	109.28674455573	109.336720418572	0.0499758628425298
123397	50	401	0	0	barrette	77	92	1	stimuli\barrette\barrette_06s.jpg	5	-1	1	0	barrette_06s.jpg	0	0	0	109.386742849063	109.436726513814	0.049983664751835
123497	50	402	0	0	meerkat	992	93	1	stimuli\meerkat\meerkat_04s.jpg	3	-1	1	0	meerkat_04s.jpg	0	0	0	109.486746506208	109.536725782385	0.0499792761779645
123597	50	403	0	0	barcode	73	94	1	stimuli\barcode\barcode_02s.jpg	1	-1	1	0	barcode_02s.jpg	0	0	0	109.586749675733	109.636730170959	0.0499804952260092
123697	50	404	0	0	police_car	1214	95	1	stimuli\police_car\police_car_12s.jpg	11	-1	1	0	police_car_12s.jpg	0	0	0	109.686752845259	109.736732121437	0.0499792761779645
123797	50	405	0	0	candle	253	96	1	stimuli\candle\candle_11n.jpg	10	-1	1	0	candle_11n.jpg	0	0	0	109.78675235764	109.836732365246	0.0499800076067913
123897	50	406	0	0	branch	192	97	1	stimuli\branch\branch_11s.jpg	10	-1	1	0	branch_11s.jpg	0	0	0	109.886754551927	109.936732852866	0.0499783009395287
123998	50	407	0	0	ring	1313	98	1	stimuli\ring\ring_03s.jpg	2	-1	1	0	ring_03s.jpg	0	0	0	109.986787953852	110.036755039546	0.0499670856938792
124098	50	408	0	0	rat	1285	99	1	stimuli\rat\rat_07s.jpg	6	-1	1	0	rat_07s.jpg	0	0	0	110.086790635758	110.136776250988	0.0499856152296161
124198	50	409	0	0	napkin	1050	100	1	stimuli\napkin\napkin_04s.jpg	3	-1	1	0	napkin_04s.jpg	0	0	0	110.186797462429	110.23677454432	0.0499770818905745
124298	50	410	0	0	eraser	559	101	1	stimuli\eraser\eraser_11s.jpg	10	-1	1	0	eraser_11s.jpg	0	0	0	110.28678210242	110.336782590039	0.0500004876193998
124398	50	411	0	0	bulldozer	215	102	1	stimuli\bulldozer\bulldozer_05n.jpg	4	-1	1	0	bulldozer_05n.jpg	0	0	0	110.386798437667	110.436784784326	0.0499863466584429
124498	50	412	0	0	onion	1077	103	1	stimuli\onion\onion_07s.jpg	6	-1	1	0	onion_07s.jpg	0	0	0	110.486800144336	110.536770887175	0.0499707428393776
124598	50	413	0	0	ice_cream	818	104	1	stimuli\ice_cream\ice_cream_03s.jpg	2	-1	1	0	ice_cream_03s.jpg	0	0	0	110.58678966052	110.636762841455	0.0499731809359218
124698	50	414	0	0	memory_stick	995	105	1	stimuli\memory_stick\memory_stick_11s.jpg	10	-1	1	0	memory_stick_11s.jpg	0	0	0	110.686778689084	110.736757477643	0.0499787885582919
124798	50	415	0	0	petal	1158	106	1	stimuli\petal\petal_09s.jpg	8	-1	1	0	petal_09s.jpg	0	0	0	110.7867816148	110.836771618604	0.0499900038034866
124898	50	416	0	0	knitting	880	107	1	stimuli\knitting\knitting_10s.jpg	9	-1	1	0	knitting_10s.jpg	0	0	0	110.886783321468	110.936794536713	0.0500112152449219
124998	50	417	0	0	noodle	1061	108	1	stimuli\noodle\noodle_10s.jpg	9	-1	1	0	noodle_10s.jpg	0	0	0	110.986812578629	111.036785515755	0.0499729371263129
125098	50	418	0	0	spur	1525	109	1	stimuli\spur\spur_08s.jpg	7	-1	1	0	spur_08s.jpg	0	0	0	111.0868194053	111.136800388145	0.0499809828456819
125198	50	419	0	0	pom-pom	1218	110	1	stimuli\pom-pom\pom-pom_02s.jpg	1	-1	1	0	pom-pom_02s.jpg	0	0	0	111.186794536713	111.236773569081	0.0499790323679008
125298	50	420	0	0	pin	1177	111	1	stimuli\pin\pin_02s.jpg	1	-1	1	0	pin_02s.jpg	0	0	0	111.286791854807	111.336789904329	0.0499980495224008
125398	50	421	0	0	chick	321	112	1	stimuli\chick\chick_02s.jpg	1	-1	1	0	chick_02s.jpg	0	0	0	111.386806727196	111.436787953852	0.0499812266552908
125498	50	422	0	0	mousse	1030	113	1	stimuli\mousse\mousse_01b.jpg	0	-1	1	0	mousse_01b.jpg	0	0	0	111.486801851003	111.536783321468	0.0499814704648998
125598	50	423	0	0	turbine	1731	114	1	stimuli\turbine\turbine_04s.jpg	3	-1	1	0	turbine_04s.jpg	0	0	0	111.586830620544	111.636815260535	0.0499846399907256
125698	50	424	0	0	banana_split	65	115	1	stimuli\banana_split\banana_split_01b.jpg	0	-1	1	0	banana_split_01b.jpg	0	0	0	111.686809165293	111.736788441471	0.0499792761779645
125798	50	425	0	0	test_tube	1645	116	1	stimuli\test_tube\test_tube_03s.jpg	2	-1	1	0	test_tube_03s.jpg	0	0	0	111.786805264338	111.836805995767	0.0500007314290087
125898	50	426	0	0	throne	1652	117	1	stimuli\throne\throne_12s.jpg	11	-1	1	0	throne_12s.jpg	0	0	0	111.886818186251	111.936798437668	0.0499802514164003
125998	50	427	0	0	headscarf	768	118	1	stimuli\headscarf\headscarf_04s.jpg	3	-1	1	0	headscarf_04s.jpg	0	0	0	111.986817211012	112.036800388145	0.0499831771326171
126098	50	428	0	0	spatula	1508	119	1	stimuli\spatula\spatula_07s.jpg	6	-1	1	0	spatula_07s.jpg	0	0	0	112.086863047231	112.136802094813	0.0499390475820292
126198	50	429	0	0	beachball	99	120	1	stimuli\beachball\beachball_10s.jpg	9	-1	1	0	beachball_10s.jpg	0	0	0	112.186822087206	112.236799169097	0.0499770818905745
126298	50	430	0	0	muffin	1035	121	1	stimuli\muffin\muffin_08n.jpg	7	-1	1	0	muffin_08n.jpg	0	0	0	112.286833058641	112.336817211013	0.0499841523715077
126398	50	431	0	0	tulip	1726	122	1	stimuli\tulip\tulip_01b.jpg	0	-1	1	0	tulip_01b.jpg	0	0	0	112.38682623197	112.436809165293	0.0499829333230082
126498	50	432	0	0	chalkboard	303	123	1	stimuli\chalkboard\chalkboard_08s.jpg	7	-1	1	0	chalkboard_08s.jpg	0	0	0	112.486831351974	112.536813310058	0.0499819580841177
126598	50	433	0	0	snowshoe	1485	124	1	stimuli\snowshoe\snowshoe_07s.jpg	6	-1	1	0	snowshoe_07s.jpg	0	0	0	112.586833546261	112.636843542457	0.0500099961964224
126698	50	434	0	0	mannequin	968	125	1	stimuli\mannequin\mannequin_05s.jpg	4	-1	1	0	mannequin_05s.jpg	0	0	0	112.686863047231	112.736844273886	0.0499812266552908
126798	50	435	0	0	graffiti	697	126	1	stimuli\graffiti\graffiti_04s.jpg	3	-1	1	0	graffiti_04s.jpg	0	0	0	112.786844517696	112.83684866246	0.0500041447644435
126898	50	436	0	0	ear	538	127	1	stimuli\ear\ear_09s.jpg	8	-1	1	0	ear_09s.jpg	0	0	0	112.886870361521	112.936851100557	0.0499807390356182
126998	50	437	0	0	apron	33	128	1	stimuli\apron\apron_08s.jpg	7	-1	1	0	apron_08s.jpg	0	0	0	112.986869873902	113.036833302451	0.0499634285488355
127098	50	438	0	0	bank	69	129	1	stimuli\bank\bank_02s.jpg	1	-1	1	0	bank_02s.jpg	0	0	0	113.086872555808	113.136851100557	0.0499785447491377
127198	50	439	0	0	dustpan	535	130	1	stimuli\dustpan\dustpan_12s.jpg	11	-1	1	0	dustpan_12s.jpg	0	0	0	113.186872068189	113.236851588176	0.0499795199875734
127298	50	440	0	0	wax_paper	1796	131	1	stimuli\wax_paper\wax_paper_04s.jpg	3	-1	1	0	wax_paper_04s.jpg	0	0	0	113.286876944382	113.336860365324	0.0499834209422261
127398	50	441	0	0	parachute	1118	132	1	stimuli\parachute\parachute_05s.jpg	4	-1	1	0	parachute_05s.jpg	0	0	0	113.38687840724	113.436859390086	0.0499809828456819
127498	50	442	0	0	latte	901	133	1	stimuli\latte\latte_02s.jpg	1	-1	1	0	latte_02s.jpg	0	0	0	113.486884746292	113.536861584373	0.0499768380809655
127598	50	443	0	0	padlock	1095	134	1	stimuli\padlock\padlock_04n.jpg	3	-1	1	0	padlock_04n.jpg	0	0	0	113.586887428198	113.636849637699	0.0499622095007908
127698	50	444	0	0	fan	571	135	1	stimuli\fan\fan_05s.jpg	4	-1	1	0	fan_05s.jpg	0	0	0	113.686890110105	113.736855001512	0.0499648914069439
127798	50	445	0	0	grasshopper	706	136	1	stimuli\grasshopper\grasshopper_07s.jpg	6	-1	1	0	grasshopper_07s.jpg	0	0	0	113.786889866295	113.836870605331	0.0499807390356182
127898	50	446	0	0	kite	874	137	1	stimuli\kite\kite_03s.jpg	2	-1	1	0	kite_03s.jpg	0	0	0	113.886893035821	113.936895230108	0.0500021942871172
127998	50	447	0	0	plug	1202	138	1	stimuli\plug\plug_04s.jpg	3	-1	1	0	plug_04s.jpg	0	0	0	113.986889866295	114.03687109295	0.0499812266552908
128098	50	448	0	0	paperweight	1117	139	1	stimuli\paperweight\paperweight_05s.jpg	4	-1	1	0	paperweight_05s.jpg	0	0	0	114.086875969143	114.136857683418	0.0499817142745087
128198	50	449	0	0	bike	123	140	1	stimuli\bike\bike_07s.jpg	6	-1	1	0	bike_07s.jpg	0	0	0	114.18687133676	114.236852319606	0.0499809828456819
128298	50	450	0	0	nail	1046	141	1	stimuli\nail\nail_08s.jpg	7	-1	1	0	nail_08s.jpg	0	0	0	114.286873531047	114.336852563415	0.0499790323683555
128398	50	451	0	0	brownie	204	142	1	stimuli\brownie\brownie_12s.jpg	11	-1	1	0	brownie_12s.jpg	0	0	0	114.386876212953	114.436859877705	0.049983664751835
128498	50	452	0	0	van	1752	143	1	stimuli\van\van_10s.jpg	9	-1	1	0	van_10s.jpg	0	0	0	114.486882064386	114.536860609134	0.0499785447486829
128598	50	453	0	0	bubble_wrap	208	144	1	stimuli\bubble_wrap\bubble_wrap_04s.jpg	3	-1	1	0	bubble_wrap_04s.jpg	0	0	0	114.586882795814	114.636860609134	0.0499778133198561
128698	50	454	0	0	cigarette_butt	345	145	1	stimuli\cigarette_butt\cigarette_butt_10s.jpg	9	-1	1	0	cigarette_butt_10s.jpg	0	0	0	114.686879382479	114.736877188192	0.0499978057132466
128798	50	455	0	0	cummerbund	459	146	1	stimuli\cummerbund\cummerbund_05s.jpg	4	-1	1	0	cummerbund_05s.jpg	0	0	0	114.786917416788	114.836902544398	0.0499851276099434
128898	50	456	0	0	pool_table	1222	147	1	stimuli\pool_table\pool_table_10s.jpg	9	-1	1	0	pool_table_10s.jpg	0	0	0	114.886889622485	114.936874750095	0.0499851276099434
128998	50	457	0	0	paddle	1094	148	1	stimuli\paddle\paddle_03s.jpg	2	-1	1	0	paddle_03s.jpg	0	0	0	114.986891329153	115.036874506286	0.0499831771326171
129098	50	458	0	0	fudge	647	149	1	stimuli\fudge\fudge_04s.jpg	3	-1	1	0	fudge_04s.jpg	0	0	0	115.086897180585	115.136883283434	0.049986102848834
129198	50	459	0	0	otter	1085	150	1	stimuli\otter\otter_03s.jpg	2	-1	1	0	otter_03s.jpg	0	0	0	115.186900593921	115.236880357718	0.0499797637971824
129298	50	460	0	0	banner	70	151	1	stimuli\banner\banner_08s.jpg	7	-1	1	0	banner_08s.jpg	0	0	0	115.286898643443	115.336879382479	0.0499807390356182
129398	50	461	0	0	car_seat	269	152	1	stimuli\car_seat\car_seat_01b.jpg	0	-1	1	0	car_seat_01b.jpg	0	0	0	115.386903275827	115.436883527243	0.0499802514164003
129498	50	462	0	0	fishbowl	601	153	1	stimuli\fishbowl\fishbowl_01b.jpg	0	-1	1	0	fishbowl_01b.jpg	0	0	0	115.486906932972	115.536887428198	0.0499804952260092
129598	50	463	0	0	turban	1730	154	1	stimuli\turban\turban_07s.jpg	6	-1	1	0	turban_07s.jpg	0	0	0	115.586911077736	115.636887672008	0.0499765942718113
129698	50	464	0	0	space_shuttle	1501	155	1	stimuli\space_shuttle\space_shuttle_08s.jpg	7	-1	1	0	space_shuttle_08s.jpg	0	0	0	115.686898643443	115.736905226304	0.0500065828614424
129798	50	465	0	0	pita	1189	156	1	stimuli\pita\pita_03s.jpg	2	-1	1	0	pita_03s.jpg	0	0	0	115.786942772994	115.836929119652	0.0499863466584429
129898	50	466	0	0	ostrich	1084	157	1	stimuli\ostrich\ostrich_12s.jpg	11	-1	1	0	ostrich_12s.jpg	0	0	0	115.886922292981	115.936896692966	0.0499743999844213
129998	50	467	0	0	exerciser	561	158	1	stimuli\exerciser\exerciser_08s.jpg	7	-1	1	0	exerciser_08s.jpg	0	0	0	115.986917416788	116.036898155824	0.0499807390356182
130098	50	468	0	0	eyepiece	568	159	1	stimuli\eyepiece\eyepiece_10s.jpg	9	-1	1	0	eyepiece_10s.jpg	1	0	0	116.086953744429	116.136933508226	0.0499797637971824
130198	50	469	0	0	tent	1643	160	1	stimuli\tent\tent_10n.jpg	9	-1	1	0	tent_10n.jpg	0	0	0	116.186952037761	116.236919123456	0.0499670856943339
130298	50	470	0	0	record_player	1296	161	1	stimuli\record_player\record_player_06s.jpg	5	-1	1	0	record_player_06s.jpg	0	0	0	116.286954719668	116.336939847278	0.0499851276099434
130398	50	471	0	0	mop	1019	162	1	stimuli\mop\mop_04s.jpg	3	-1	1	0	mop_04s.jpg	0	0	0	116.386959595861	116.436916685359	0.0499570894976387
130498	50	472	0	0	calculator	240	163	1	stimuli\calculator\calculator_11s.jpg	10	-1	1	0	calculator_11s.jpg	0	0	0	116.486936921562	116.536913515833	0.0499765942713566
130598	50	473	0	0	sandal	1352	164	1	stimuli\sandal\sandal_01b.jpg	0	-1	1	0	sandal_01b.jpg	0	0	0	116.586969348248	116.636958620622	0.049989272374205
130698	50	474	0	0	lobster	939	165	1	stimuli\lobster\lobster_03s.jpg	2	-1	1	0	lobster_03s.jpg	0	0	0	116.686968860629	116.736952525381	0.049983664751835
130798	50	475	0	0	shaving_cream	1410	166	1	stimuli\shaving_cream\shaving_cream_01b.jpg	0	-1	1	0	shaving_cream_01b.jpg	0	0	0	116.78696788539	116.836958620623	0.0499907352327682
130898	50	476	0	0	patch	1125	167	1	stimuli\patch\patch_02s.jpg	1	-1	1	0	patch_02s.jpg	0	0	0	116.886955207287	116.936935214894	0.0499800076067913
130998	50	477	0	0	radar	1271	168	1	stimuli\radar\radar_04s.jpg	3	-1	1	0	radar_04s.jpg	0	0	0	116.986947892997	117.036952769191	0.0500048761937251
131098	50	478	0	0	cougar	423	169	1	stimuli\cougar\cougar_03s.jpg	2	-1	1	0	cougar_03s.jpg	0	0	0	117.086985683496	117.136939847278	0.0499541637814218
131198	50	479	0	0	wheat	1805	170	1	stimuli\wheat\wheat_01b.jpg	0	-1	1	0	wheat_01b.jpg	0	0	0	117.18695276919	117.236933508226	0.0499807390360729
131298	50	480	0	0	bacon	51	171	1	stimuli\bacon\bacon_06s.jpg	5	-1	1	0	bacon_06s.jpg	0	0	0	117.286953500619	117.336936921562	0.0499834209422261
131398	50	481	0	0	cardinal	274	172	1	stimuli\cardinal\cardinal_02s.jpg	1	-1	1	0	cardinal_02s.jpg	0	0	0	117.386954719668	117.436927656794	0.0499729371263129
131498	50	482	0	0	jewelry	850	173	1	stimuli\jewelry\jewelry_05s.jpg	4	-1	1	0	jewelry_05s.jpg	0	0	0	117.486987877783	117.536954963477	0.0499670856943339
131598	50	483	0	0	pulley	1250	174	1	stimuli\pulley\pulley_08s.jpg	7	-1	1	0	pulley_08s.jpg	0	0	0	117.586969835867	117.6369454549	0.0499756190329208
131698	50	484	0	0	scallop	1373	175	1	stimuli\scallop\scallop_10s.jpg	9	-1	1	0	scallop_10s.jpg	0	0	0	117.686966422532	117.736944479661	0.049978057129465
131798	50	485	0	0	cymbal	468	176	1	stimuli\cymbal\cymbal_06s.jpg	5	-1	1	0	cymbal_06s.jpg	0	0	0	117.786996654931	117.836984220638	0.0499875657064877
131898	50	486	0	0	groundhog	718	177	1	stimuli\groundhog\groundhog_05n.jpg	4	-1	1	0	groundhog_05n.jpg	0	0	0	117.886998361599	117.93698251397	0.0499841523710529
131998	50	487	0	0	ferry	580	178	1	stimuli\ferry\ferry_04s.jpg	3	-1	1	0	ferry_04s.jpg	0	0	0	117.987000312076	118.036979832064	0.0499795199875734
132098	50	488	0	0	calf1	241	179	1	stimuli\calf1\calf1_09s.jpg	8	-1	1	0	calf1_09s.jpg	0	0	0	118.087002750173	118.136981782541	0.0499790323679008
132198	50	489	0	0	shutter	1440	180	1	stimuli\shutter\shutter_04s.jpg	3	-1	1	0	shutter_04s.jpg	0	0	0	118.187006163509	118.236984952067	0.0499787885582919
132298	50	490	0	0	trolley	1715	181	1	stimuli\trolley\trolley_09s.jpg	8	-1	1	0	trolley_09s.jpg	0	0	0	118.287009089225	118.336966910151	0.0499578209264655
132398	50	491	0	0	potato	1231	182	1	stimuli\potato\potato_11s.jpg	10	-1	1	0	potato_11s.jpg	0	0	0	118.386985927306	118.436966422532	0.0499804952260092
132498	50	492	0	0	freezer	640	183	1	stimuli\freezer\freezer_08s.jpg	7	-1	1	0	freezer_08s.jpg	0	0	0	118.486986414925	118.53696837301	0.0499819580845724
132598	50	493	0	0	backdrop	47	184	1	stimuli\backdrop\backdrop_05s.jpg	4	-1	1	0	backdrop_05s.jpg	0	0	0	118.587021767328	118.637000555886	0.0499787885582919
132698	50	494	0	0	seaweed	1400	185	1	stimuli\seaweed\seaweed_06s.jpg	5	-1	1	0	seaweed_06s.jpg	0	0	0	118.687007870176	118.737004456841	0.0499965866647472
132798	50	495	0	0	roadsweeper	1316	186	1	stimuli\roadsweeper\roadsweeper_01b.jpg	0	-1	1	0	roadsweeper_01b.jpg	0	0	0	118.787025668282	118.837006407318	0.0499807390360729
132898	50	496	0	0	pocket_watch	1206	187	1	stimuli\pocket_watch\pocket_watch_04s.jpg	3	-1	1	0	pocket_watch_04s.jpg	0	0	0	118.887010552083	118.936982026351	0.0499714742682045
132998	50	497	0	0	wax	1795	188	1	stimuli\wax\wax_03s.jpg	2	-1	1	0	wax_03s.jpg	0	0	0	118.987002750173	119.036991047309	0.0499882971357692
133098	50	498	0	0	barrel	76	189	1	stimuli\barrel\barrel_01b.jpg	0	-1	1	0	barrel_01b.jpg	0	0	0	119.08703468924	119.136987633974	0.0499529447333771
133198	50	499	0	0	stir_fry	1557	190	1	stimuli\stir_fry\stir_fry_01s.jpg	0	-1	1	0	stir_fry_01s.jpg	0	0	0	119.187004456841	119.236987390164	0.0499829333230082
133298	50	500	0	0	shredder	1437	191	1	stimuli\shredder\shredder_07s.jpg	6	-1	1	0	shredder_07s.jpg	0	0	0	119.287009576844	119.337022986376	0.0500134095318572
133398	50	501	0	0	milkshake	1002	192	1	stimuli\milkshake\milkshake_02s.jpg	1	-1	1	0	milkshake_02s.jpg	0	0	0	119.387041515911	119.437025424473	0.049983908561444
133498	50	502	0	0	pineapple	1182	193	1	stimuli\pineapple\pineapple_05s.jpg	4	-1	1	0	pineapple_05s.jpg	0	0	0	119.487041028292	119.537025912092	0.0499848838003345
133598	50	503	0	0	piglet	1173	194	1	stimuli\piglet\piglet_01b.jpg	0	-1	1	0	piglet_01b.jpg	0	0	0	119.587047367343	119.637010308273	0.0499629409300724
133698	50	504	0	0	cookie_sheet	402	195	1	stimuli\cookie_sheet\cookie_sheet_10s.jpg	9	-1	1	0	cookie_sheet_10s.jpg	0	0	0	119.687025424473	119.737028837808	0.0500034133356166
133798	50	505	0	0	pet_food	1157	196	1	stimuli\pet_food\pet_food_02s.jpg	1	-1	1	0	pet_food_02s.jpg	0	0	0	119.78705004925	119.837008845415	0.049958796165356
133898	50	506	0	0	screw	1390	197	1	stimuli\screw\screw_05s.jpg	4	-1	1	0	screw_05s.jpg	0	0	0	119.887026155902	119.937022254947	0.0499960990450745
133998	50	507	0	0	whiteboard	1813	198	1	stimuli\whiteboard\whiteboard_01b.jpg	0	-1	1	0	whiteboard_01b.jpg	0	0	0	119.987060045446	120.037042003531	0.0499819580845724
134098	50	508	0	0	parrot	1121	199	1	stimuli\parrot\parrot_07s.jpg	6	-1	1	0	parrot_07s.jpg	0	0	0	120.087069554023	120.137028593998	0.049959039974965
134198	50	509	0	0	chopsticks	339	200	1	stimuli\chopsticks\chopsticks_01s.jpg	0	-1	1	0	chopsticks_01s.jpg	0	0	0	120.187065896878	120.237051755917	0.049985859039225
134298	50	510	0	0	pickle	1167	201	1	stimuli\pickle\pickle_06n.jpg	5	-1	1	0	pickle_06n.jpg	0	0	0	120.287068822594	120.337053218776	0.0499843961811166
134398	50	511	0	0	badge	52	202	1	stimuli\badge\badge_02s.jpg	1	-1	1	0	badge_02s.jpg	0	0	0	120.387075405456	120.437052974966	0.0499775695102471
134498	50	512	0	0	stroller	1574	203	1	stimuli\stroller\stroller_11s.jpg	10	-1	1	1	stroller_11s.jpg	0	0	0	120.487076624504	120.537055169253	0.0499785447486829
134598	50	513	0	0	washcloth	1783	204	1	stimuli\washcloth\washcloth_05s.jpg	4	-1	1	0	washcloth_05s.jpg	0	0	0	120.587058826398	120.637058338778	0.0499995123805093
134698	50	514	0	0	razor	1290	205	1	stimuli\razor\razor_06s.jpg	5	-1	1	0	razor_06s.jpg	0	0	0	120.687059070207	120.737040540672	0.0499814704648998
134798	50	515	0	0	peanut	1131	206	1	stimuli\peanut\peanut_05s.jpg	4	-1	1	0	peanut_05s.jpg	1	0.350138727703779	1	120.78706467783	120.837041028292	0.0499763504617476
134898	50	516	0	0	mail	959	207	1	stimuli\mail\mail_12s.jpg	11	-1	1	0	mail_12s.jpg	0	0	0	120.887065165449	120.937048098772	0.0499829333230082
134998	50	517	0	0	hatbox	758	208	1	stimuli\hatbox\hatbox_01b.jpg	0	-1	1	0	hatbox_01b.jpg	0	0	0	120.987069066404	121.03705004925	0.0499809828452271
135098	50	518	0	0	firecracker	594	209	1	stimuli\firecracker\firecracker_07s.jpg	6	-1	1	0	firecracker_07s.jpg	0	0	0	121.087076868313	121.137054194014	0.0499773257006382
135198	50	519	0	0	curtain	465	210	1	stimuli\curtain\curtain_02n.jpg	1	-1	1	0	curtain_02n.jpg	0	0	0	121.18707955022	121.237057851159	0.049978300939074
135298	50	520	0	0	fire_alarm	591	211	1	stimuli\fire_alarm\fire_alarm_06s.jpg	5	-1	1	0	fire_alarm_06s.jpg	0	0	0	121.287080281649	121.337084670223	0.0500043885740524
135398	50	521	0	0	xylophone	1843	212	1	stimuli\xylophone\xylophone_12s.jpg	11	-1	1	0	xylophone_12s.jpg	0	0	0	121.38708735213	121.437062239733	0.0499748876036392
135498	50	522	0	0	crystal2	454	213	1	stimuli\crystal2\crystal2_04s.jpg	3	-1	1	0	crystal2_04s.jpg	0	0	0	121.487083451175	121.537065165449	0.0499817142745087
135598	50	523	0	0	bagpipe	56	214	1	stimuli\bagpipe\bagpipe_09s.jpg	8	-1	1	0	bagpipe_09s.jpg	0	0	0	121.587073454978	121.637066628307	0.0499931733293124
135698	50	524	0	0	lavender	904	215	1	stimuli\lavender\lavender_05s.jpg	4	-1	1	0	lavender_05s.jpg	0	0	0	121.687108075952	121.737071504501	0.0499634285492903
135798	50	525	0	0	iron	832	216	1	stimuli\iron\iron_05s.jpg	4	-1	1	0	iron_05s.jpg	0	0	0	121.787108563571	121.837091009274	0.0499824457033355
135898	50	526	0	0	paint	1096	217	1	stimuli\paint\paint_01b.jpg	0	-1	1	0	paint_01b.jpg	0	0	0	121.887117828338	121.937092715943	0.049974887604094
135998	50	527	0	0	koala	884	218	1	stimuli\koala\koala_10s.jpg	9	-1	1	0	koala_10s.jpg	0	0	0	121.987096860707	122.037098079755	0.0500012190482266
136098	50	528	0	0	mandolin	965	219	1	stimuli\mandolin\mandolin_02s.jpg	1	-1	1	0	mandolin_02s.jpg	0	0	0	122.087118559768	122.137104174997	0.0499856152296161
136198	50	529	0	0	net	1057	220	1	stimuli\net\net_11s.jpg	10	-1	1	0	net_11s.jpg	0	0	0	122.187123679771	122.237100761662	0.0499770818910292
136298	50	530	0	0	platypus	1198	221	1	stimuli\platypus\platypus_11s.jpg	10	-1	1	0	platypus_11s.jpg	0	0	0	122.287105881665	122.337107344523	0.0500014628582903
136398	50	531	0	0	streetlight	1571	222	1	stimuli\streetlight\streetlight_12s.jpg	11	-1	1	0	streetlight_12s.jpg	0	0	0	122.387126605487	122.437105881665	0.0499792761779645
136498	50	532	0	0	bowler_hat	178	223	1	stimuli\bowler_hat\bowler_hat_09s.jpg	8	-1	1	0	bowler_hat_09s.jpg	0	0	0	122.487125630248	122.537111976907	0.0499863466584429
136598	50	533	0	0	granola	701	224	1	stimuli\granola\granola_02s.jpg	1	-1	1	0	granola_02s.jpg	0	0	0	122.587114902622	122.637092228323	0.0499773257006382
136698	50	534	0	0	missile	1006	225	1	stimuli\missile\missile_02s.jpg	1	-1	1	1	missile_02s.jpg	0	0	0	122.687111489287	122.737090277846	0.0499787885587466
136798	50	535	0	0	sledgehammer	1461	226	1	stimuli\sledgehammer\sledgehammer_02s.jpg	1	-1	1	0	sledgehammer_02s.jpg	0	0	0	122.787132944538	122.837099542613	0.0499665980746613
136898	50	536	0	0	pinball	1178	227	1	stimuli\pinball\pinball_11s.jpg	10	-1	1	0	pinball_11s.jpg	0	0	0	122.887121729294	122.937102712139	0.0499809828452271
136998	50	537	0	0	eggbeater	548	228	1	stimuli\eggbeater\eggbeater_01b.jpg	0	-1	1	0	eggbeater_01b.jpg	0	0	0	122.987103199758	123.037128068345	0.0500248685866609
137098	50	538	0	0	roof_rack	1329	229	1	stimuli\roof_rack\roof_rack_11s.jpg	10	-1	1	0	roof_rack_11s.jpg	1	0.39218175523456	1	123.08713172549	123.13710905119	0.0499773257001834
137198	50	539	0	0	gift	672	230	1	stimuli\gift\gift_07s.jpg	6	-1	1	0	gift_07s.jpg	0	0	0	123.187130018822	123.237114902623	0.0499848838003345
137298	50	540	0	0	film	586	231	1	stimuli\film\film_11s.jpg	10	-1	1	0	film_11s.jpg	0	0	0	123.287152449312	123.3371319693	0.0499795199875734
137398	50	541	0	0	face_mask	570	232	1	stimuli\face_mask\face_mask_07s.jpg	6	-1	1	0	face_mask_07s.jpg	0	0	0	123.387144159783	123.437115390242	0.0499712304590503
137498	50	542	0	0	crystal_ball	455	233	1	stimuli\crystal_ball\crystal_ball_06s.jpg	5	-1	1	0	crystal_ball_06s.jpg	0	0	0	123.487133919777	123.537136845493	0.050002925715944
137598	50	543	0	0	honey	788	234	1	stimuli\honey\honey_11s.jpg	10	-1	1	0	honey_11s.jpg	0	0	0	123.587165615034	123.63712392358	0.0499583085461381
137698	50	544	0	0	scaffold	1369	235	1	stimuli\scaffold\scaffold_04s.jpg	3	-1	1	0	scaffold_04s.jpg	0	0	0	123.687136357874	123.73711709691	0.0499807390356182
137798	50	545	0	0	grain	698	236	1	stimuli\grain\grain_07s.jpg	6	-1	1	0	grain_07s.jpg	0	0	0	123.787165615034	123.837129043583	0.0499634285492903
137898	50	546	0	0	tick	1656	237	1	stimuli\tick\tick_02s.jpg	1	-1	1	0	tick_02s.jpg	0	0	0	123.887143672164	123.937128555964	0.0499848838003345
137998	50	547	0	0	dumpster	533	238	1	stimuli\dumpster\dumpster_05s.jpg	4	-1	1	0	dumpster_05s.jpg	0	0	0	123.987149035976	124.037136357874	0.0499873218973335
138098	50	548	0	0	bead	100	239	1	stimuli\bead\bead_02s.jpg	1	-1	1	0	bead_02s.jpg	0	0	0	124.087172441705	124.137142696925	0.0499702552201597
138198	50	549	0	0	quiche	1262	240	1	stimuli\quiche\quiche_12s.jpg	11	-1	1	0	quiche_12s.jpg	0	0	0	124.187172929324	124.237156106457	0.0499831771326171
138298	50	550	0	0	toucan	1690	241	1	stimuli\toucan\toucan_04s.jpg	3	-1	1	0	toucan_04s.jpg	0	0	0	124.287186338856	124.337157569315	0.0499712304585955
138398	50	551	0	0	hummingbird	811	242	1	stimuli\hummingbird\hummingbird_03s.jpg	2	-1	1	0	hummingbird_03s.jpg	0	0	0	124.387163908367	124.437142940735	0.0499790323679008
138498	50	552	0	0	couch	422	243	1	stimuli\couch\couch_10s.jpg	9	-1	1	0	couch_10s.jpg	0	0	0	124.487159519792	124.537166834083	0.0500073142902693
138598	50	553	0	0	gorilla	695	244	1	stimuli\gorilla\gorilla_04s.jpg	3	-1	1	0	gorilla_04s.jpg	0	0	0	124.587166590273	124.637145622641	0.0499790323679008
138698	50	554	0	0	pudding	1246	245	1	stimuli\pudding\pudding_03s.jpg	2	-1	1	0	pudding_03s.jpg	0	0	0	124.687163420747	124.737144403593	0.0499809828456819
138798	50	555	0	0	apple	30	246	1	stimuli\apple\apple_07s.jpg	6	-1	1	0	apple_07s.jpg	0	0	0	124.787166834083	124.83713928359	0.049972449507095
138898	50	556	0	0	bok_choy	156	247	1	stimuli\bok_choy\bok_choy_01b.jpg	0	-1	1	0	bok_choy_01b.jpg	0	0	0	124.887156594077	124.937173904563	0.0500173104865098
138998	50	557	0	0	unicycle	1746	248	1	stimuli\unicycle\unicycle_12s.jpg	11	-1	1	0	unicycle_12s.jpg	0	0	0	124.987194384576	125.037179268376	0.0499848838003345
139098	50	558	0	0	bunkbed	222	249	1	stimuli\bunkbed\bunkbed_06s.jpg	5	-1	1	0	bunkbed_06s.jpg	0	0	0	125.087185119808	125.137182681711	0.0499975619031829
139198	50	559	0	0	snowsuit	1486	250	1	stimuli\snowsuit\snowsuit_10s.jpg	9	-1	1	0	snowsuit_10s.jpg	0	0	0	125.187178536947	125.237159519792	0.0499809828452271
139298	50	560	0	0	quilt	1264	251	1	stimuli\quilt\quilt_01b.jpg	0	-1	1	0	quilt_01b.jpg	0	0	0	125.287214620779	125.337167077892	0.0499524571137044
139398	50	561	0	0	roller_coaster	1325	252	1	stimuli\roller_coaster\roller_coaster_01b.jpg	0	-1	1	0	roller_coaster_01b.jpg	0	0	0	125.387185607427	125.437168296941	0.0499826895133992
139498	50	562	0	0	guinea_pig	722	253	1	stimuli\guinea_pig\guinea_pig_07s.jpg	6	-1	1	0	guinea_pig_07s.jpg	0	0	0	125.487190483621	125.537167565512	0.0499770818910292
139598	50	563	0	0	box	181	254	1	stimuli\box\box_10s.jpg	9	-1	1	0	box_10s.jpg	0	0	0	125.587182437902	125.637166346463	0.049983908561444
139698	50	564	0	0	mosquito	1020	255	1	stimuli\mosquito\mosquito_01b.jpg	0	-1	1	0	mosquito_01b.jpg	0	0	0	125.687193896956	125.737172441705	0.0499785447491377
139798	50	565	0	0	bow2	175	256	1	stimuli\bow2\bow2_03s.jpg	2	-1	1	0	bow2_03s.jpg	0	0	0	125.787187801714	125.837175611231	0.0499878095165514
139898	50	566	0	0	wagon	1772	257	1	stimuli\wagon\wagon_11s.jpg	10	-1	1	0	wagon_11s.jpg	0	0	0	125.887196822673	125.937165615034	0.0499687923615966
139998	50	567	0	0	diskette	493	258	1	stimuli\diskette\diskette_07s.jpg	6	-1	1	0	diskette_07s.jpg	0	0	0	125.987187070285	126.03716854075	0.0499814704648998
140098	50	568	0	0	rearview_mirror	1293	259	1	stimuli\rearview_mirror\rearview_mirror_10s.jpg	9	-1	1	0	rearview_mirror_10s.jpg	0	0	0	126.08718365695	126.137204380772	0.0500207238223993
140198	50	569	0	0	stereo	1549	260	1	stimuli\stereo\stereo_10s.jpg	9	-1	1	0	stereo_10s.jpg	0	0	0	126.187225348404	126.237207794108	0.0499824457037903
140298	50	570	0	0	egg	546	261	1	stimuli\egg\egg_07s.jpg	6	-1	1	0	egg_07s.jpg	0	0	0	126.287231443646	126.337211207443	0.0499797637971824
140398	50	571	0	0	coconut	375	262	1	stimuli\coconut\coconut_02s.jpg	1	-1	1	0	coconut_02s.jpg	0	0	0	126.387232906504	126.43721388935	0.0499809828456819
140498	50	572	0	0	rocket	1320	263	1	stimuli\rocket\rocket_05s.jpg	4	-1	1	0	rocket_05s.jpg	0	0	0	126.487218034114	126.537202674105	0.0499846399907256
140598	50	573	0	0	salami	1349	264	1	stimuli\salami\salami_03s.jpg	2	-1	1	0	salami_03s.jpg	0	0	0	126.587217058875	126.637193653147	0.0499765942713566
140698	50	574	0	0	carousel	275	265	1	stimuli\carousel\carousel_09s.jpg	8	-1	1	0	carousel_09s.jpg	0	0	0	126.687217546495	126.737202430295	0.0499848838003345
140798	50	575	0	0	shovel	1432	266	1	stimuli\shovel\shovel_03n.jpg	2	-1	1	0	shovel_03n.jpg	0	0	0	126.787245828416	126.83722851793	0.0499826895133992
140898	50	576	0	0	chips	335	267	1	stimuli\chips\chips_07s.jpg	6	-1	1	0	chips_07s.jpg	0	0	0	126.88722827412	126.937226567452	0.0499982933320098
140998	50	577	0	0	tupperware	1729	268	1	stimuli\tupperware\tupperware_08s.jpg	7	-1	1	0	tupperware_08s.jpg	0	0	0	126.987234369362	127.037212914111	0.0499785447491377
141098	50	578	0	0	underwear	1745	269	1	stimuli\underwear\underwear_10s.jpg	9	-1	1	0	underwear_10s.jpg	0	0	0	127.087229980788	127.137212914111	0.0499829333230082
141198	50	579	0	0	vegetable	1754	270	1	stimuli\vegetable\vegetable_06s.jpg	5	-1	1	0	vegetable_06s.jpg	0	0	0	127.187234369362	127.237212426492	0.049978057129465
141298	50	580	0	0	smoke_alarm	1473	271	1	stimuli\smoke_alarm\smoke_alarm_09s.jpg	8	-1	1	0	smoke_alarm_09s.jpg	0	0	0	127.287262895094	127.33722095983	0.0499580647365292
141398	50	581	0	0	cufflink	458	272	1	stimuli\cufflink\cufflink_04s.jpg	3	-1	1	0	cufflink_04s.jpg	0	0	0	127.387236563649	127.437221691259	0.0499851276099434
141498	50	582	0	0	coyote	427	273	1	stimuli\coyote\coyote_07s.jpg	6	-1	1	0	coyote_07s.jpg	0	0	0	127.487237538888	127.537213157921	0.0499756190329208
141598	50	583	0	0	pine_tree	1181	274	1	stimuli\pine_tree\pine_tree_06s.jpg	5	-1	1	0	pine_tree_06s.jpg	0	0	0	127.587229005549	127.637246559846	0.0500175542965735
141698	50	584	0	0	bolt	159	275	1	stimuli\bolt\bolt_05s.jpg	4	-1	1	0	bolt_05s.jpg	0	0	0	127.687268502716	127.737246803655	0.049978300939074
141798	50	585	0	0	dryer	524	276	1	stimuli\dryer\dryer_12s.jpg	11	-1	1	0	dryer_12s.jpg	0	0	0	127.7872580189	127.83723583222	0.0499778133198561
141898	50	586	0	0	recliner	1294	277	1	stimuli\recliner\recliner_04s.jpg	3	-1	1	0	recliner_04s.jpg	0	0	0	127.887251923658	127.937234369362	0.0499824457037903
141998	50	587	0	0	radio	1273	278	1	stimuli\radio\radio_02s.jpg	1	-1	1	0	radio_02s.jpg	0	0	0	127.98725826271	128.037239976984	0.0499817142745087
142098	50	588	0	0	squeegee	1527	279	1	stimuli\squeegee\squeegee_04s.jpg	3	-1	1	0	squeegee_04s.jpg	0	0	0	128.087261676045	128.13724339032	0.0499817142745087
142198	50	589	0	0	ladle	887	280	1	stimuli\ladle\ladle_09s.jpg	8	-1	1	0	ladle_09s.jpg	0	0	0	128.187262407474	128.237242415081	0.0499800076067913
142298	50	590	0	0	measuring_cup	986	281	1	stimuli\measuring_cup\measuring_cup_01b.jpg	0	-1	1	0	measuring_cup_01b.jpg	0	0	0	128.28728751987	128.337255336994	0.0499678171231608
142398	50	591	0	0	mirror	1005	282	1	stimuli\mirror\mirror_06s.jpg	5	-1	1	0	mirror_06s.jpg	0	0	0	128.387268746526	128.437248510323	0.0499797637971824
142498	50	592	0	0	phone_booth	1162	283	1	stimuli\phone_booth\phone_booth_06s.jpg	5	-1	1	0	phone_booth_06s.jpg	0	0	0	128.487271184622	128.537253142707	0.0499819580845724
142598	50	593	0	0	spam	1504	284	1	stimuli\spam\spam_07s.jpg	6	-1	1	0	spam_07s.jpg	0	0	0	128.587275085577	128.637248266513	0.0499731809359218
142698	50	594	0	0	backpack	49	285	1	stimuli\backpack\backpack_01b.jpg	0	-1	1	0	backpack_01b.jpg	0	0	0	128.687270209384	128.737252167468	0.0499819580841177
142798	50	595	0	0	teabag	1632	286	1	stimuli\teabag\teabag_06s.jpg	5	-1	1	0	teabag_06s.jpg	0	0	0	128.787278255103	128.837257287471	0.0499790323683555
142898	50	596	0	0	filing_cabinet	585	287	1	stimuli\filing_cabinet\filing_cabinet_10s.jpg	9	-1	1	0	filing_cabinet_10s.jpg	0	0	0	128.887277523674	128.937257287471	0.0499797637971824
142998	50	597	0	0	light_switch	926	288	1	stimuli\light_switch\light_switch_06s.jpg	5	-1	1	0	light_switch_06s.jpg	0	0	0	128.987283862726	129.037289957967	0.0500060952417698
143098	50	598	0	0	cuckoo_clock	456	289	1	stimuli\cuckoo_clock\cuckoo_clock_06s.jpg	5	-1	1	0	cuckoo_clock_06s.jpg	0	0	0	129.087306049405	129.13728751987	0.0499814704648998
143198	50	599	0	0	doorhandle	508	290	1	stimuli\doorhandle\doorhandle_01b.jpg	0	-1	1	0	doorhandle_01b.jpg	0	0	0	129.187308487502	129.237289957967	0.0499814704648998
143298	50	600	0	0	axe	45	291	1	stimuli\axe\axe_09n.jpg	8	-1	1	0	axe_09n.jpg	0	0	0	129.287324335131	129.337290933206	0.0499665980751161
143398	50	601	0	0	burrito	225	292	1	stimuli\burrito\burrito_05s.jpg	4	-1	1	0	burrito_05s.jpg	0	0	0	129.387314338935	129.437282156058	0.0499678171231608
143498	50	602	0	0	doghouse	497	293	1	stimuli\doghouse\doghouse_03s.jpg	2	-1	1	0	doghouse_03s.jpg	0	0	0	129.487301904641	129.537304342738	0.0500024380967261
143598	50	603	0	0	bazooka	98	294	1	stimuli\bazooka\bazooka_09s.jpg	8	-1	1	0	bazooka_09s.jpg	0	0	0	129.587308243693	129.637283618916	0.0499753752228571
143698	50	604	0	0	hotplate	806	295	1	stimuli\hotplate\hotplate_06s.jpg	5	-1	1	0	hotplate_06s.jpg	0	0	0	129.687305561786	129.73728776368	0.0499822018941813
143798	50	605	0	0	bra	185	296	1	stimuli\bra\bra_03s.jpg	2	-1	1	0	bra_03s.jpg	0	0	0	129.787329211325	129.837309706551	0.049980495226464
143898	50	606	0	0	snowball	1480	297	1	stimuli\snowball\snowball_11s.jpg	10	-1	1	0	snowball_11s.jpg	0	0	0	129.887328723705	129.937310925599	0.0499822018937266
143998	50	607	0	0	sunglasses	1585	298	1	stimuli\sunglasses\sunglasses_07s.jpg	6	-1	1	0	sunglasses_07s.jpg	0	0	0	129.987333843708	130.037307756073	0.0499739123652034
144098	50	608	0	0	viewfinder	1763	299	1	stimuli\viewfinder\viewfinder_11s.jpg	10	-1	1	0	viewfinder_11s.jpg	0	0	0	130.08732482275	130.137306049406	0.0499812266552908
144198	50	609	0	0	scale	1371	300	1	stimuli\scale\scale_07s.jpg	6	-1	1	0	scale_07s.jpg	0	0	0	130.18732531037	130.237306780835	0.0499814704648998
144298	50	610	0	0	waffle	1770	301	1	stimuli\waffle\waffle_02s.jpg	1	-1	1	0	waffle_02s.jpg	0	0	0	130.287326285608	130.337299466545	0.0499731809363766
144398	50	611	0	0	tree_trunk	1709	302	1	stimuli\tree_trunk\tree_trunk_03s.jpg	2	-1	1	0	tree_trunk_03s.jpg	0	0	0	130.387318727509	130.437298247496	0.0499795199875734
144498	50	612	0	0	oil	1072	303	1	stimuli\oil\oil_01b.jpg	0	-1	1	0	oil_01b.jpg	0	0	0	130.487319458938	130.537330430373	0.050010971435313
144598	50	613	0	0	mustache	1043	304	1	stimuli\mustache\mustache_02s.jpg	1	-1	1	0	mustache_02s.jpg	0	0	0	130.587346521811	130.637315314173	0.0499687923615966
144698	50	614	0	0	hookah	795	305	1	stimuli\hookah\hookah_03s.jpg	2	-1	1	0	hookah_03s.jpg	0	0	0	130.687349447528	130.737312876076	0.0499634285488355
144798	50	615	0	0	cereal	297	306	1	stimuli\cereal\cereal_01b.jpg	0	-1	1	0	cereal_01b.jpg	0	0	0	130.787351398005	130.837333599899	0.0499822018937266
144898	50	616	0	0	doorknob	509	307	1	stimuli\doorknob\doorknob_11s.jpg	10	-1	1	0	doorknob_11s.jpg	0	0	0	130.887353836101	130.937334575137	0.0499807390360729
144998	50	617	0	0	submarine	1577	308	1	stimuli\submarine\submarine_06n.jpg	5	-1	1	0	submarine_06n.jpg	0	0	0	130.987356761817	131.03733969514	0.0499829333230082
154598	50	618	0	0	comic_book	391	0	2	stimuli\comic_book\comic_book_04s.jpg	3	-1	2	0	comic_book_04s.jpg	0	0	0	140.587622026741	140.637581066716	0.0499590399754197
154698	50	619	0	0	dartboard	474	1	2	stimuli\dartboard\dartboard_05s.jpg	4	-1	2	0	dartboard_05s.jpg	0	0	0	140.687617881977	140.737599108632	0.0499812266552908
154798	50	620	0	0	goat	684	2	2	stimuli\goat\goat_05n.jpg	4	-1	2	0	goat_05n.jpg	0	0	0	140.787624464838	140.837583261003	0.049958796165356
154898	50	621	0	0	girl	676	3	2	stimuli\girl\girl_11n.jpg	10	-1	2	0	girl_11n.jpg	0	0	0	140.887613493403	140.937604228635	0.0499907352323135
154998	50	622	0	0	cane	258	4	2	stimuli\cane\cane_06n.jpg	5	-1	2	0	cane_06n.jpg	0	0	0	140.987626415315	141.037595451487	0.0499690361716603
155098	50	623	0	0	bolo_tie	157	5	2	stimuli\bolo_tie\bolo_tie_12s.jpg	11	-1	2	0	bolo_tie_12s.jpg	0	0	0	141.087627878173	141.137608861019	0.0499809828452271
155198	50	624	0	0	coop	404	6	2	stimuli\coop\coop_02s.jpg	1	-1	2	0	coop_02s.jpg	0	0	0	141.18763763056	141.237618369596	0.0499807390356182
155298	50	625	0	0	scrabble	1385	7	2	stimuli\scrabble\scrabble_04s.jpg	3	-1	2	0	scrabble_04s.jpg	0	0	0	141.287619101025	141.337596914345	0.0499778133198561
155398	50	626	0	0	blimp	139	8	2	stimuli\blimp\blimp_11n.jpg	10	-1	2	0	blimp_11n.jpg	0	0	0	141.387621295312	141.437597645774	0.0499763504617476
155498	50	627	0	0	window	1818	9	2	stimuli\window\window_10s.jpg	9	-1	2	0	window_10s.jpg	0	0	0	141.487642750563	141.537608617209	0.0499658666458345
155598	50	628	0	0	vest	1759	10	2	stimuli\vest\vest_09s.jpg	8	-1	2	0	vest_09s.jpg	0	0	0	141.587623733409	141.637619101025	0.0499953676162477
155698	50	629	0	0	champagne	304	11	2	stimuli\champagne\champagne_03s.jpg	2	-1	2	0	champagne_03s.jpg	0	0	0	141.687635923893	141.737618613406	0.0499826895129445
155798	50	630	0	0	trident	1712	12	2	stimuli\trident\trident_06s.jpg	5	-1	2	0	trident_06s.jpg	0	0	0	141.787634461034	141.837611055306	0.0499765942713566
155898	50	631	0	0	towel	1692	13	2	stimuli\towel\towel_03s.jpg	2	-1	2	0	towel_03s.jpg	0	0	0	141.887633729606	141.937614468641	0.0499807390356182
155998	50	632	0	0	crayon	435	14	2	stimuli\crayon\crayon_07s.jpg	6	-1	2	0	crayon_07s.jpg	0	0	0	141.987657135334	142.037633729605	0.0499765942713566
156098	50	633	0	0	gumball	725	15	2	stimuli\gumball\gumball_10s.jpg	9	-1	2	0	gumball_10s.jpg	0	0	0	142.087650796283	142.137632998176	0.0499822018937266
156198	50	634	0	0	pliers	1201	16	2	stimuli\pliers\pliers_02s.jpg	1	-1	2	0	pliers_02s.jpg	0	0	0	142.187647382947	142.237646651518	0.0499992685709003
156298	50	635	0	0	garbage	655	17	2	stimuli\garbage\garbage_01b.jpg	0	-1	2	0	garbage_01b.jpg	0	0	0	142.287632022937	142.3376083734	0.0499763504622024
156398	50	636	0	0	pelican	1140	18	2	stimuli\pelican\pelican_02s.jpg	1	-1	2	0	pelican_02s.jpg	0	0	0	142.38763031627	142.437639581038	0.0500092647675956
156498	50	637	0	0	racket	1270	19	2	stimuli\racket\racket_02s.jpg	1	-1	2	0	racket_02s.jpg	0	0	0	142.48766030486	142.537646407709	0.049986102848834
156598	50	638	0	0	blowfish	146	20	2	stimuli\blowfish\blowfish_07s.jpg	6	-1	2	0	blowfish_07s.jpg	0	0	0	142.587653234379	142.637646651518	0.0499934171389214
156698	50	639	0	0	headset	769	21	2	stimuli\headset\headset_05s.jpg	4	-1	2	0	headset_05s.jpg	0	0	0	142.68766786296	142.737649333425	0.0499814704648998
156798	50	640	0	0	carrot	277	22	2	stimuli\carrot\carrot_09s.jpg	8	-1	2	0	carrot_09s.jpg	0	0	0	142.787671276295	142.837619832454	0.0499485561590518
156898	50	641	0	0	lens	916	23	2	stimuli\lens\lens_01s.jpg	0	-1	2	0	lens_01s.jpg	0	0	0	142.88765299057	142.937625440077	0.049972449507095
156998	50	642	0	0	llama	938	24	2	stimuli\llama\llama_08n.jpg	7	-1	2	0	llama_08n.jpg	0	0	0	142.987684685827	143.037655916286	0.0499712304585955
157098	50	643	0	0	icemaker	821	25	2	stimuli\icemaker\icemaker_02s.jpg	1	-1	2	0	icemaker_02s.jpg	0	0	0	143.087649821044	143.137627390554	0.0499775695102471
157198	50	644	0	0	clipper2	357	26	2	stimuli\clipper2\clipper2_07s.jpg	6	-1	2	0	clipper2_07s.jpg	0	0	0	143.187652990569	143.237628121983	0.0499751314137029
157298	50	645	0	0	pants	1108	27	2	stimuli\pants\pants_09s.jpg	8	-1	2	0	pants_09s.jpg	0	0	0	143.287657866763	143.337634948654	0.0499770818910292
157398	50	646	0	0	papaya	1111	28	2	stimuli\papaya\papaya_11n.jpg	10	-1	2	0	papaya_11n.jpg	0	0	0	143.38764543247	143.437664937243	0.0500195047738998
157498	50	647	0	0	centerpiece	295	29	2	stimuli\centerpiece\centerpiece_04s.jpg	3	-1	2	0	centerpiece_04s.jpg	0	0	0	143.487690537259	143.537670301056	0.0499797637971824
157598	50	648	0	0	tiger	1659	30	2	stimuli\tiger\tiger_06s.jpg	5	-1	2	0	tiger_06s.jpg	0	0	0	143.58767493344	143.637653234379	0.049978300939074
157698	50	649	0	0	wing	1827	31	2	stimuli\wing\wing_04s.jpg	3	-1	2	0	wing_04s.jpg	0	0	0	143.687693950595	143.737674445821	0.0499804952260092
157798	50	650	0	0	riser	1314	32	2	stimuli\riser\riser_10s.jpg	9	-1	2	0	riser_10s.jpg	0	0	0	143.787682003921	143.837675421059	0.0499934171389214
157898	50	651	0	0	gauge	663	33	2	stimuli\gauge\gauge_05s.jpg	4	-1	2	0	gauge_05s.jpg	0	0	0	143.887681028682	143.937665424863	0.0499843961806619
157998	50	652	0	0	bird	128	34	2	stimuli\bird\bird_02s.jpg	1	-1	2	0	bird_02s.jpg	0	0	0	143.987702483933	144.03768224773	0.0499797637971824
158098	50	653	0	0	hubcap	809	35	2	stimuli\hubcap\hubcap_07s.jpg	6	-1	2	0	hubcap_07s.jpg	0	0	0	144.087702483933	144.137680053443	0.0499775695102471
