onset	duration	eventnumber	blocksequencenumber	isteststim	object	objectnumber	presentationnumber	sequencenumber	stim	stimnumber	teststimnumber	withinsequencenumber	istarget	stimname	response	rt	correct	time_stimon	time_stimoff	stimdur
38306	50	0	0	0	volleyball	1767	0	0	stimuli\volleyball\volleyball_08s.jpg	7	-1	0	0	volleyball_08s.jpg	0	0	0	26.4932828128221	26.5432610162825	0.0499782034603413
38406	50	1	0	0	tuxedo	1738	1	0	stimuli\tuxedo\tuxedo_04s.jpg	3	-1	0	0	tuxedo_04s.jpg	0	0	0	26.5932860311004	26.643265209801	0.0499791787005961
38506	50	2	0	0	beetle	115	2	0	stimuli\beetle\beetle_05n.jpg	4	-1	0	0	beetle_05n.jpg	0	0	0	26.6932890055759	26.7432684280793	0.0499794225033838
38606	50	3	0	0	bracelet1	187	3	0	stimuli\bracelet1\bracelet1_01s.jpg	0	-1	0	0	bracelet1_01s.jpg	0	0	0	26.7933007571846	26.8432760349242	0.049975277739577
38706	50	4	0	0	bouquet	173	4	0	stimuli\bouquet\bouquet_02s.jpg	1	-1	0	0	bouquet_02s.jpg	0	0	0	26.8932893469027	26.9432709636894	0.0499816167866811
38806	50	5	0	0	ham	739	5	0	stimuli\ham\ham_09s.jpg	8	-1	0	0	ham_09s.jpg	0	0	0	26.9932935404213	27.0439251525386	0.0506316121172858
38906	50	6	0	0	tricycle	1711	6	0	stimuli\tricycle\tricycle_01b.jpg	0	-1	0	0	tricycle_01b.jpg	0	0	0	27.0933004158433	27.1432788631209	0.049978447277681
39006	50	7	0	0	cigarette_holder	346	7	0	stimuli\cigarette_holder\cigarette_holder_06s.jpg	5	-1	0	0	cigarette_holder_06s.jpg	0	0	0	27.1933033903188	27.2432784242555	0.0499750339367893
39106	50	8	0	0	sparkler	1507	8	0	stimuli\sparkler\sparkler_06s.jpg	5	-1	0	0	sparkler_06s.jpg	0	0	0	27.2933014886075	27.3432835930143	0.0499821044068085
39206	50	9	0	0	tick	1656	9	0	stimuli\tick\tick_08s.jpg	7	-1	0	0	tick_08s.jpg	0	0	0	27.3933027564199	27.4432860798697	0.049983323449851
39306	50	10	0	0	scale	1371	10	0	stimuli\scale\scale_12s.jpg	11	-1	0	0	scale_12s.jpg	0	0	0	27.4933137765911	27.5432851533988	0.0499713768076617
39406	50	11	0	0	urinal	1748	11	0	stimuli\urinal\urinal_03s.jpg	2	-1	0	0	urinal_03s.jpg	0	0	0	27.5933082177362	27.6432881278597	0.0499799101235112
39506	50	12	0	0	footbath	631	12	0	stimuli\footbath\footbath_08s.jpg	7	-1	0	0	footbath_08s.jpg	0	0	0	27.6933089979284	27.7432915899553	0.0499825920269359
39606	50	13	0	0	drain	515	13	0	stimuli\drain\drain_11s.jpg	10	-1	0	0	drain_11s.jpg	0	0	0	27.7933114847838	27.8432967587141	0.0499852739303606
39706	50	14	0	0	printer	1240	14	0	stimuli\printer\printer_06s.jpg	5	-1	0	0	printer_06s.jpg	0	0	0	27.8933200668689	27.9432980265119	0.0499779596430017
39806	50	15	0	0	crayfish	434	15	0	stimuli\crayfish\crayfish_05s.jpg	4	-1	0	0	crayfish_05s.jpg	0	0	0	27.993321578484	28.0433005133673	0.0499789348832564
39906	50	16	0	0	projector	1242	16	0	stimuli\projector\projector_01b.jpg	0	-1	0	0	projector_01b.jpg	0	0	0	28.0933191891527	28.1432990992762	0.0499799101235112
40006	50	17	0	0	barcode	73	17	0	stimuli\barcode\barcode_09s.jpg	8	-1	0	0	barcode_09s.jpg	0	0	0	28.1933209445851	28.2433057308808	0.0499847862956813
40106	50	18	0	0	pitcher	1190	18	0	stimuli\pitcher\pitcher_11s.jpg	10	-1	0	0	pitcher_11s.jpg	0	0	0	28.2933307457133	28.3433069986932	0.0499762529798318
40206	50	19	0	0	seagull	1395	19	0	stimuli\seagull\seagull_05s.jpg	4	-1	0	0	seagull_05s.jpg	0	0	0	28.3933312820882	28.4433138741151	0.0499825920269359
40306	50	20	0	0	chicken_wire	324	20	0	stimuli\chicken_wire\chicken_wire_03s.jpg	2	-1	0	0	chicken_wire_03s.jpg	0	0	0	28.4933318184776	28.5433136790671	0.0499818605894689
40406	50	21	0	0	knob	882	21	0	stimuli\knob\knob_03s.jpg	2	-1	0	1	knob_03s.jpg	0	0	0	28.5933311358094	28.6433139716391	0.0499828358297236
40506	50	22	0	0	rhubarb	1307	22	0	stimuli\rhubarb\rhubarb_11n.jpg	10	-1	0	0	rhubarb_11n.jpg	0	0	0	28.6933328912273	28.7433167022973	0.0499838110699784
40606	50	23	0	0	hotdog	805	23	0	stimuli\hotdog\hotdog_05s.jpg	4	-1	0	0	hotdog_05s.jpg	0	0	0	28.7933397666493	28.8433179701096	0.0499782034603413
40706	50	24	0	0	test_tube	1645	24	0	stimuli\test_tube\test_tube_12s.jpg	11	-1	0	0	test_tube_12s.jpg	0	0	0	28.8933429849276	28.9433231388684	0.0499801539408509
40806	50	25	0	0	snowball	1480	25	0	stimuli\snowball\snowball_08s.jpg	7	-1	0	0	snowball_08s.jpg	1	0.405936948984163	1	28.9933432774997	29.0433280638099	0.0499847863102332
40906	50	26	0	0	videocassette	1761	26	0	stimuli\videocassette\videocassette_10n.jpg	9	-1	0	0	videocassette_10n.jpg	0	0	0	29.0933482024557	29.1433300630451	0.0499818605894689
41006	50	27	0	0	mussel	1042	27	0	stimuli\mussel\mussel_12s.jpg	11	-1	0	0	mussel_12s.jpg	0	0	0	29.1933550778631	29.2433301118144	0.0499750339513412
41106	50	28	0	0	hay	761	28	0	stimuli\hay\hay_09s.jpg	8	-1	0	0	hay_09s.jpg	0	0	0	29.2933541513921	29.3433306481893	0.0499764967971714
41206	50	29	0	0	paper_plate	1114	29	0	stimuli\paper_plate\paper_plate_04s.jpg	3	-1	0	0	paper_plate_04s.jpg	0	0	0	29.3933512744406	29.4433338664676	0.0499825920269359
41306	50	30	0	0	leg	911	30	0	stimuli\leg\leg_06s.jpg	5	-1	0	0	leg_06s.jpg	0	0	0	29.4933579060598	29.543338791409	0.0499808853492141
41406	50	31	0	0	mousepad	1028	31	0	stimuli\mousepad\mousepad_12s.jpg	11	-1	0	0	mousepad_12s.jpg	0	0	0	29.593360636718	29.6433400592214	0.0499794225033838
41506	50	32	0	0	eggnog	549	32	0	stimuli\eggnog\eggnog_11s.jpg	10	-1	0	0	eggnog_11s.jpg	0	0	0	29.6933577597665	29.7433425460767	0.0499847863102332
41606	50	33	0	0	worm	1836	33	0	stimuli\worm\worm_10s.jpg	9	-1	0	0	worm_10s.jpg	0	0	0	29.7933656104287	29.8433428386488	0.0499772282200865
41706	50	34	0	0	washcloth	1783	34	0	stimuli\washcloth\washcloth_10s.jpg	9	-1	0	0	washcloth_10s.jpg	0	0	0	29.8933651715633	29.9433511769166	0.0499860053532757
41806	50	35	0	0	bagpipe	56	35	0	stimuli\bagpipe\bagpipe_06s.jpg	5	-1	0	0	bagpipe_06s.jpg	0	0	0	29.9933754603117	30.0433551266324	0.0499796663207235
41906	50	36	0	0	handbrake	745	36	0	stimuli\handbrake\handbrake_10s.jpg	9	-1	0	0	handbrake_10s.jpg	0	0	0	30.0933730709949	30.1433520058781	0.0499789348832564
42006	50	37	0	0	macaroni	952	37	0	stimuli\macaroni\macaroni_07s.jpg	6	-1	0	0	macaroni_07s.jpg	0	0	0	30.1933740949898	30.2433574184397	0.049983323449851
42106	50	38	0	0	fuse	652	38	0	stimuli\fuse\fuse_01s.jpg	0	-1	0	0	fuse_01s.jpg	0	0	0	30.2933753627876	30.3433596614777	0.0499842986901058
42206	50	39	0	0	highlighter	778	39	0	stimuli\highlighter\highlighter_11s.jpg	10	-1	0	0	highlighter_11s.jpg	0	0	0	30.3933790687006	30.443359710247	0.0499806415464263
42306	50	40	0	0	ketchup	867	40	0	stimuli\ketchup\ketchup_07s.jpg	6	-1	0	0	ketchup_07s.jpg	0	0	0	30.4933864317281	30.5433643913857	0.0499779596575536
42406	50	41	0	0	whipped_cream	1810	41	0	stimuli\whipped_cream\whipped_cream_05s.jpg	4	-1	0	0	whipped_cream_05s.jpg	0	0	0	30.5933808728878	30.6433627334773	0.0499818605894689
42506	50	42	0	0	omelet	1076	42	0	stimuli\omelet\omelet_11s.jpg	10	-1	0	0	omelet_11s.jpg	0	0	0	30.6933853102091	30.7433725346054	0.0499872243963182
42606	50	43	0	0	chisel	336	43	0	stimuli\chisel\chisel_10s.jpg	9	-1	0	0	chisel_10s.jpg	0	0	0	30.7933897475305	30.8433689262311	0.0499791787005961
42706	50	44	0	0	penlight	1147	44	0	stimuli\penlight\penlight_10s.jpg	9	-1	0	0	penlight_10s.jpg	0	0	0	30.8933897962997	30.9433738511725	0.0499840548727661
42806	50	45	0	0	clothespin	363	45	0	stimuli\clothespin\clothespin_10s.jpg	9	-1	0	0	clothespin_10s.jpg	0	0	0	30.9933935021982	31.0433795075514	0.0499860053532757
42906	50	46	0	0	dial	483	46	0	stimuli\dial\dial_06s.jpg	5	-1	0	0	dial_06s.jpg	0	0	0	31.0933989147597	31.1433749239368	0.049976009177044
43006	50	47	0	0	dandelion	472	47	0	stimuli\dandelion\dandelion_06s.jpg	5	-1	0	0	dandelion_06s.jpg	0	0	0	31.193397744486	31.2433815555414	0.0499838110554265
43106	50	48	0	0	backgammon	48	48	0	stimuli\backgammon\backgammon_08s.jpg	7	-1	0	0	backgammon_08s.jpg	0	0	0	31.2934004751442	31.3433798976475	0.0499794225033838
43206	50	49	0	0	clothes	361	49	0	stimuli\clothes\clothes_12s.jpg	11	-1	0	0	clothes_12s.jpg	0	0	0	31.3934039372252	31.443386041632	0.0499821044068085
43306	50	50	0	0	gavel	665	50	0	stimuli\gavel\gavel_05s.jpg	4	-1	0	0	gavel_05s.jpg	0	0	0	31.4934056926577	31.5434165665501	0.0500108738924609
43406	50	51	0	0	clipboard	355	51	0	stimuli\clipboard\clipboard_10s.jpg	9	-1	0	0	clipboard_10s.jpg	0	0	0	31.5933979395195	31.6433756553597	0.0499777158402139
43506	50	52	0	0	cash_machine	279	52	0	stimuli\cash_machine\cash_machine_06s.jpg	5	-1	0	0	cash_machine_06s.jpg	0	0	0	31.6934145673149	31.7433952088613	0.0499806415464263
43606	50	53	0	0	mustard	1044	53	0	stimuli\mustard\mustard_12s.jpg	11	-1	0	0	mustard_12s.jpg	0	0	0	31.7934194922564	31.8433989147597	0.0499794225033838
43706	50	54	0	0	wedding_cake	1800	54	0	stimuli\wedding_cake\wedding_cake_11s.jpg	10	-1	0	0	wedding_cake_11s.jpg	0	0	0	31.8934024743794	31.9433831159258	0.0499806415464263
43806	50	55	0	0	hairnet	736	55	0	stimuli\hairnet\hairnet_11s.jpg	10	-1	0	0	hairnet_11s.jpg	0	0	0	31.9934303173941	32.0434034008504	0.0499730834562797
43906	50	56	0	0	navel	1052	56	0	stimuli\navel\navel_01b.jpg	0	-1	0	0	navel_01b.jpg	0	0	0	32.0934271966253	32.143405643903	0.049978447277681
44006	50	57	0	0	scoop	1381	57	0	stimuli\scoop\scoop_03s.jpg	2	-1	0	0	scoop_03s.jpg	0	0	0	32.1934265139571	32.2434115440847	0.0499850301275728
44106	50	58	0	0	penholder	1146	58	0	stimuli\penholder\penholder_12s.jpg	11	-1	0	0	penholder_12s.jpg	0	0	0	32.2934324141534	32.3433952576306	0.0499628434772603
44206	50	59	0	0	cockatoo	372	59	0	stimuli\cockatoo\cockatoo_10s.jpg	9	-1	0	0	cockatoo_10s.jpg	0	0	0	32.3934344133886	32.4433979882888	0.0499635749001754
44306	50	60	0	0	leggings	912	60	0	stimuli\leggings\leggings_06s.jpg	5	-1	0	0	leggings_06s.jpg	0	0	0	32.4934378754697	32.5434065703739	0.0499686949042371
44406	50	61	0	0	tea	1631	61	0	stimuli\tea\tea_11s.jpg	10	-1	0	0	tea_11s.jpg	0	0	0	32.5934198823525	32.6434175905451	0.0499977081926772
44506	50	62	0	0	jewel	849	62	0	stimuli\jewel\jewel_07s.jpg	6	-1	0	0	jewel_07s.jpg	0	0	0	32.693424075871	32.7434132507478	0.0499891748768277
44606	50	63	0	0	spam	1504	63	0	stimuli\spam\spam_11s.jpg	10	-1	0	0	spam_11s.jpg	0	0	0	32.7934504560253	32.8434059852298	0.0499555292044533
44706	50	64	0	0	olive	1075	64	0	stimuli\olive\olive_01b.jpg	0	-1	0	0	olive_01b.jpg	0	0	0	32.8934478228912	32.9434148111177	0.0499669882265152
44806	50	65	0	0	stopwatch	1562	65	0	stimuli\stopwatch\stopwatch_02s.jpg	1	-1	0	0	stopwatch_02s.jpg	0	0	0	32.9934515287896	33.0434365589026	0.0499850301130209
44906	50	66	0	0	wind_chimes	1817	66	0	stimuli\wind_chimes\wind_chimes_04s.jpg	3	-1	0	0	wind_chimes_04s.jpg	0	0	0	33.0934349985182	33.1434249048179	0.0499899062997429
45006	50	67	0	0	taillight	1617	67	0	stimuli\taillight\taillight_01b.jpg	0	-1	0	0	taillight_01b.jpg	0	0	0	33.1934369977535	33.2434244659671	0.0499874682136578
45106	50	68	0	0	polisher	1215	68	0	stimuli\polisher\polisher_02s.jpg	1	-1	0	0	polisher_02s.jpg	0	0	0	33.293455332212	33.3434393870848	0.0499840548727661
45206	50	69	0	0	gum	724	69	0	stimuli\gum\gum_05s.jpg	4	-1	0	0	gum_05s.jpg	0	0	0	33.3934575752501	33.4434391920367	0.0499816167866811
45306	50	70	0	0	hammer	741	70	0	stimuli\hammer\hammer_03s.jpg	2	-1	0	0	hammer_03s.jpg	0	0	0	33.4934646944894	33.5434485055594	0.0499838110699784
45406	50	71	0	0	vest	1759	71	0	stimuli\vest\vest_06s.jpg	5	-1	0	0	vest_06s.jpg	0	0	0	33.5934562099283	33.6434366076719	0.0499803977436386
45506	50	72	0	0	watermelon	1793	72	0	stimuli\watermelon\watermelon_04s.jpg	3	-1	0	0	watermelon_04s.jpg	0	0	0	33.6934716186661	33.7434532354528	0.0499816167866811
45606	50	73	0	0	chin	330	73	0	stimuli\chin\chin_11s.jpg	10	-1	0	0	chin_11s.jpg	0	0	0	33.7934743493242	33.8434525527846	0.0499782034603413
45706	50	74	0	0	steak	1544	74	0	stimuli\steak\steak_04s.jpg	3	-1	0	0	steak_04s.jpg	0	0	0	33.8934768361796	33.9434396796569	0.0499628434772603
45806	50	75	0	0	ice_cream	818	75	0	stimuli\ice_cream\ice_cream_12s.jpg	11	-1	0	0	ice_cream_12s.jpg	0	0	0	33.9934776163718	34.0434621588647	0.0499845424928935
45906	50	76	0	0	slide	1464	76	0	stimuli\slide\slide_10s.jpg	9	-1	0	0	slide_10s.jpg	0	0	0	34.0934801032272	34.1434436781274	0.0499635749001754
46006	50	77	0	0	speedometer	1512	77	0	stimuli\speedometer\speedometer_05s.jpg	4	-1	0	0	speedometer_05s.jpg	0	0	0	34.1934838091256	34.2434651821095	0.0499813729838934
46106	50	78	0	0	loincloth	944	78	0	stimuli\loincloth\loincloth_07s.jpg	6	-1	0	0	loincloth_07s.jpg	0	0	0	34.2934892216872	34.3434674251475	0.0499782034603413
46206	50	79	0	0	ruler	1341	79	0	stimuli\ruler\ruler_08s.jpg	7	-1	0	0	ruler_08s.jpg	0	0	0	34.3934887828364	34.4434518701164	0.0499630872800481
46306	50	80	0	0	ottoman	1086	80	0	stimuli\ottoman\ottoman_02s.jpg	1	-1	0	0	ottoman_02s.jpg	0	0	0	34.4934763973288	34.5434745931416	0.0499981958128046
46406	50	81	0	0	doormat	511	81	0	stimuli\doormat\doormat_02s.jpg	1	-1	0	0	doormat_02s.jpg	0	0	0	34.5934998517769	34.6434768361796	0.0499769844027469
46506	50	82	0	0	minivan	1003	82	0	stimuli\minivan\minivan_01b.jpg	0	-1	0	0	minivan_01b.jpg	0	0	0	34.6934989252914	34.7434654259123	0.0499665006209398
46606	50	83	0	0	fan	571	83	0	stimuli\fan\fan_07s.jpg	6	-1	0	0	fan_07s.jpg	0	0	0	34.7934855645581	34.8434808346501	0.0499952700920403
46706	50	84	0	0	mosquito	1020	84	0	stimuli\mosquito\mosquito_07s.jpg	6	-1	0	0	mosquito_07s.jpg	0	0	0	34.8935024361417	34.9434667424794	0.0499643063376425
46806	50	85	0	0	motorcycle	1025	85	0	stimuli\motorcycle\motorcycle_04s.jpg	3	-1	0	0	motorcycle_04s.jpg	0	0	0	34.9934898068313	35.0434789817082	0.0499891748768277
46906	50	86	0	0	needle	1055	86	0	stimuli\needle\needle_01s.jpg	0	-1	0	0	needle_01s.jpg	0	0	0	35.093503508906	35.1434843942698	0.049980885363766
47006	50	87	0	0	trap	1702	87	0	stimuli\trap\trap_03s.jpg	2	-1	0	0	trap_03s.jpg	0	0	0	35.1934930738789	35.243485174462	0.0499921005830402
47106	50	88	0	0	taxi	1630	88	0	stimuli\taxi\taxi_09s.jpg	8	-1	0	0	taxi_09s.jpg	0	0	0	35.2934926350135	35.343488636543	0.0499960015295073
47206	50	89	0	0	washing_machine	1784	89	0	stimuli\washing_machine\washing_machine_10s.jpg	9	-1	0	0	washing_machine_10s.jpg	0	0	0	35.3935087751888	35.4434755196125	0.0499667444237275
47306	50	90	0	0	sandcastle	1355	90	0	stimuli\sandcastle\sandcastle_10s.jpg	9	-1	0	0	sandcastle_10s.jpg	0	0	0	35.4935190639371	35.5435026311898	0.0499835672526387
47406	50	91	0	0	limousine	931	91	0	stimuli\limousine\limousine_04s.jpg	3	-1	0	0	limousine_04s.jpg	0	0	0	35.5935059470066	35.6434985351952	0.0499925881886156
47506	50	92	0	0	wall	1775	92	0	stimuli\wall\wall_12s.jpg	11	-1	0	0	wall_12s.jpg	0	0	0	35.6935215995472	35.7434983401472	0.0499767405999592
47606	50	93	0	0	groundhog	718	93	0	stimuli\groundhog\groundhog_03n.jpg	2	-1	0	0	groundhog_03n.jpg	0	0	0	35.7935218921193	35.8435037527233	0.0499818606040208
47706	50	94	0	0	phone_booth	1162	94	0	stimuli\phone_booth\phone_booth_02s.jpg	1	-1	0	0	phone_booth_02s.jpg	0	0	0	35.8935048742424	35.9434886853123	0.0499838110699784
47806	50	95	0	0	snowsuit	1486	95	0	stimuli\snowsuit\snowsuit_03s.jpg	2	-1	0	0	snowsuit_03s.jpg	0	0	0	35.9935263782099	36.0435077511938	0.0499813729838934
47906	50	96	0	0	pen	1141	96	0	stimuli\pen\pen_09s.jpg	8	-1	0	0	pen_09s.jpg	0	0	0	36.0935283774452	36.1435102380492	0.0499818606040208
48006	50	97	0	0	snowman	1482	97	0	stimuli\snowman\snowman_02s.jpg	1	-1	0	0	snowman_02s.jpg	0	0	0	36.1935323271609	36.243496633484	0.0499643063230906
48106	50	98	0	0	lip_gloss	935	98	0	stimuli\lip_gloss\lip_gloss_12s.jpg	11	-1	0	0	lip_gloss_12s.jpg	0	0	0	36.2935333511559	36.3435137488996	0.0499803977436386
48206	50	99	0	0	metal_detector	996	99	0	stimuli\metal_detector\metal_detector_01b.jpg	0	-1	0	0	metal_detector_01b.jpg	0	0	0	36.3935170647019	36.4434984376712	0.0499813729693415
48306	50	100	0	0	salami	1349	100	0	stimuli\salami\salami_03s.jpg	2	-1	0	0	salami_03s.jpg	0	0	0	36.4935414943757	36.5435182349902	0.0499767406145111
48406	50	101	0	0	crystal2	454	101	0	stimuli\crystal2\crystal2_08s.jpg	7	-1	0	0	crystal2_08s.jpg	0	0	0	36.593541543145	36.6435202342254	0.0499786910804687
48506	50	102	0	0	gauze	664	102	0	stimuli\gauze\gauze_01b.jpg	0	-1	0	0	gauze_01b.jpg	0	0	0	36.6935401290539	36.743527597253	0.0499874681991059
48606	50	103	0	0	toe	1668	103	0	stimuli\toe\toe_12s.jpg	11	-1	0	0	toe_12s.jpg	0	0	0	36.7935323759157	36.8435256955418	0.0499933196260827
48706	50	104	0	0	shovel	1432	104	0	stimuli\shovel\shovel_06s.jpg	5	-1	0	0	shovel_06s.jpg	0	0	0	36.8935299865843	36.9435284262145	0.0499984396301443
48806	50	105	0	0	triangle	1710	105	0	stimuli\triangle\triangle_02s.jpg	1	-1	0	0	triangle_02s.jpg	0	0	0	36.9935502715089	37.0435387149628	0.0499884434539126
48906	50	106	0	0	christmas_card	340	106	0	stimuli\christmas_card\christmas_card_03s.jpg	2	-1	0	0	christmas_card_03s.jpg	0	0	0	37.0935349602951	37.1435329122905	0.049997951995465
49006	50	107	0	0	quiche	1262	107	0	stimuli\quiche\quiche_03s.jpg	2	-1	0	0	quiche_03s.jpg	0	0	0	37.1935194052639	37.2435356429633	0.0500162376993103
49106	50	108	0	0	windshield_wiper	1821	108	0	stimuli\windshield_wiper\windshield_wiper_02s.jpg	1	-1	0	0	windshield_wiper_02s.jpg	0	0	0	37.2935443225724	37.3435388612415	0.0499945386691252
49206	50	109	0	0	sundial	1583	109	0	stimuli\sundial\sundial_06s.jpg	5	-1	0	0	sundial_06s.jpg	0	0	0	37.3935431522841	37.4435401290539	0.0499969767697621
49306	50	110	0	0	mat	982	110	0	stimuli\mat\mat_03s.jpg	2	-1	0	0	mat_03s.jpg	0	0	0	37.4935624619684	37.5435477358988	0.0499852739303606
49406	50	111	0	0	footrest	633	111	0	stimuli\footrest\footrest_11s.jpg	10	-1	0	0	footrest_11s.jpg	0	0	0	37.5935907926032	37.6435455903702	0.0499547977669863
49506	50	112	0	0	fly	621	112	0	stimuli\fly\fly_02s.jpg	1	-1	0	0	fly_02s.jpg	0	0	0	37.6935771880526	37.7435500277061	0.049972839653492
49606	50	113	0	0	tee	1636	113	0	stimuli\tee\tee_08s.jpg	7	-1	0	0	tee_08s.jpg	0	0	0	37.7935713853949	37.8435410555248	0.0499696701299399
49706	50	114	0	0	sim_card	1446	114	0	stimuli\sim_card\sim_card_09s.jpg	8	-1	0	0	sim_card_09s.jpg	0	0	0	37.8935707027267	37.9435550014168	0.0499842986901058
49806	50	115	0	0	visor	1766	115	0	stimuli\visor\visor_01b.jpg	0	-1	0	0	visor_01b.jpg	0	0	0	37.9935770905286	38.0435587073152	0.0499816167866811
49906	50	116	0	0	mouthpiece	1032	116	0	stimuli\mouthpiece\mouthpiece_02s.jpg	1	-1	0	0	mouthpiece_02s.jpg	0	0	0	38.0935764078604	38.1435589998873	0.0499825920269359
50006	50	117	0	0	pepper_mill	1151	117	0	stimuli\pepper_mill\pepper_mill_06s.jpg	5	-1	0	0	pepper_mill_06s.jpg	0	0	0	38.193579869956	38.2435612429254	0.0499813729693415
50106	50	118	0	0	noisemaker	1060	118	0	stimuli\noisemaker\noisemaker_01b.jpg	0	-1	0	0	noisemaker_01b.jpg	0	0	0	38.2935862577433	38.3435459317116	0.0499596739682602
50206	50	119	0	0	mullet	1039	119	0	stimuli\mullet\mullet_10s.jpg	9	-1	0	0	mullet_10s.jpg	0	0	0	38.3935738722357	38.4435662166361	0.0499923444003798
50306	50	120	0	0	rose	1334	120	0	stimuli\rose\rose_05s.jpg	4	-1	0	0	rose_05s.jpg	0	0	0	38.4935905000311	38.5435723606206	0.0499818605894689
50406	50	121	0	0	quesadilla	1261	121	0	stimuli\quesadilla\quesadilla_11s.jpg	10	-1	0	0	quesadilla_11s.jpg	0	0	0	38.5935917678435	38.6435589998873	0.0499672320438549
50506	50	122	0	0	plunger	1204	122	0	stimuli\plunger\plunger_10s.jpg	9	-1	0	0	plunger_10s.jpg	0	0	0	38.6935947423044	38.7435741648078	0.0499794225033838
50606	50	123	0	0	iron	832	123	0	stimuli\iron\iron_10s.jpg	9	-1	0	0	iron_10s.jpg	0	0	0	38.7935974729771	38.8435764078604	0.0499789348832564
50706	50	124	0	0	fox	638	124	0	stimuli\fox\fox_03s.jpg	2	-1	0	0	fox_03s.jpg	0	0	0	38.8935841122293	38.9435693861597	0.0499852739303606
50806	50	125	0	0	sonogram	1496	125	0	stimuli\sonogram\sonogram_10s.jpg	9	-1	0	0	sonogram_10s.jpg	0	0	0	38.9936043971538	39.043566753011	0.0499623558571329
50906	50	126	0	0	coverall	425	126	0	stimuli\coverall\coverall_01b.jpg	0	-1	0	0	coverall_01b.jpg	0	0	0	39.0936027392454	39.1435826493689	0.0499799101235112
51006	50	127	0	0	milk	1001	127	0	stimuli\milk\milk_08s.jpg	7	-1	0	0	milk_08s.jpg	0	0	0	39.1936052261008	39.2435766029084	0.0499713768076617
51106	50	128	0	0	nail_file	1048	128	0	stimuli\nail_file\nail_file_06s.jpg	5	-1	0	0	nail_file_06s.jpg	0	0	0	39.2936074691534	39.3435768954805	0.0499694263271522
51206	50	129	0	0	handprint	750	129	0	stimuli\handprint\handprint_08s.jpg	7	-1	0	0	handprint_08s.jpg	0	0	0	39.3935970341117	39.4435996184911	0.0500025843793992
51306	50	130	0	0	seed	1401	130	0	stimuli\seed\seed_11s.jpg	10	-1	0	1	seed_11s.jpg	0	0	0	39.493622195223	39.5435933282133	0.0499711329903221
51406	50	131	0	0	rag	1276	131	0	stimuli\rag\rag_12s.jpg	11	-1	0	0	rag_12s.jpg	0	0	0	39.5936139544792	39.6435948398284	0.0499808853492141
51506	50	132	0	0	boat	154	132	0	stimuli\boat\boat_01b.jpg	0	-1	0	0	boat_01b.jpg	0	0	0	39.6936225365644	39.7436004962074	0.0499779596430017
51606	50	133	0	0	t-shirt	1606	133	0	stimuli\t-shirt\t-shirt_08s.jpg	7	-1	0	0	t-shirt_08s.jpg	1	0.341891442498309	1	39.7936033243896	39.8435849411762	0.0499816167866811
51706	50	134	0	0	toothpaste	1680	134	0	stimuli\toothpaste\toothpaste_07s.jpg	6	-1	0	0	toothpaste_07s.jpg	0	0	0	39.8936250721745	39.943604982298	0.0499799101235112
51806	50	135	0	0	gramophone	699	135	0	stimuli\gramophone\gramophone_01b.jpg	0	-1	0	0	gramophone_01b.jpg	0	0	0	39.9936275590298	40.0435894272669	0.0499618682370055
51906	50	136	0	0	vent	1758	136	0	stimuli\vent\vent_10s.jpg	9	-1	0	0	vent_10s.jpg	0	0	0	40.0936107849557	40.1436097121914	0.0499989272357197
52006	50	137	0	0	aluminum_foil	17	137	0	stimuli\aluminum_foil\aluminum_foil_03s.jpg	2	-1	0	0	aluminum_foil_03s.jpg	0	0	0	40.1936298508372	40.2436104923836	0.0499806415464263
52106	50	138	0	0	toga	1669	138	0	stimuli\toga\toga_09s.jpg	8	-1	0	0	toga_09s.jpg	0	0	0	40.2936169777095	40.3436010325822	0.0499840548727661
52206	50	139	0	0	comic_book	391	139	0	stimuli\comic_book\comic_book_11s.jpg	10	-1	0	0	comic_book_11s.jpg	0	0	0	40.3936348245479	40.4436171727575	0.0499823482095962
52306	50	140	0	0	spur	1525	140	0	stimuli\spur\spur_03s.jpg	2	-1	0	0	spur_03s.jpg	0	0	0	40.4936373113887	40.543620147233	0.0499828358442755
52406	50	141	0	0	bulletin_board	217	141	0	stimuli\bulletin_board\bulletin_board_07s.jpg	6	-1	0	0	bulletin_board_07s.jpg	0	0	0	40.5936280954047	40.6436048360047	0.0499767405999592
52506	50	142	0	0	bench	120	142	0	stimuli\bench\bench_06s.jpg	5	-1	0	0	bench_06s.jpg	0	0	0	40.6936444793828	40.7436297533131	0.0499852739303606
52606	50	143	0	0	pillow	1176	143	0	stimuli\pillow\pillow_09s.jpg	8	-1	0	0	pillow_09s.jpg	0	0	0	40.793646478618	40.8436278516019	0.0499813729838934
52706	50	144	0	0	rubber_band	1337	144	0	stimuli\rubber_band\rubber_band_03s.jpg	2	-1	0	0	rubber_band_03s.jpg	0	0	0	40.8936477464304	40.943631313683	0.0499835672526387
52806	50	145	0	0	bead	100	145	0	stimuli\bead\bead_05s.jpg	4	-1	0	0	bead_05s.jpg	0	0	0	40.9936565723183	41.043635019596	0.049978447277681
52906	50	146	0	0	eraser	559	146	0	stimuli\eraser\eraser_11s.jpg	10	-1	0	0	eraser_11s.jpg	0	0	0	41.0936419925274	41.1436180017045	0.049976009177044
53006	50	147	0	0	polar_bear	1211	147	0	stimuli\polar_bear\polar_bear_05s.jpg	4	-1	0	0	polar_bear_05s.jpg	0	0	0	41.1936552069965	41.2436204885598	0.0499652815633453
53106	50	148	0	0	curry	464	148	0	stimuli\curry\curry_08s.jpg	7	-1	0	0	curry_08s.jpg	0	0	0	41.2936572062317	41.3436259011214	0.0499686948896851
53206	50	149	0	0	seal	1397	149	0	stimuli\seal\seal_04s.jpg	3	-1	0	0	seal_04s.jpg	0	0	0	41.3936628625961	41.4436459422432	0.0499830796470633
53306	50	150	0	0	trident	1712	150	0	stimuli\trident\trident_06s.jpg	5	-1	0	0	trident_06s.jpg	0	0	0	41.4936502332857	41.5436330691155	0.0499828358297236
53406	50	151	0	0	walrus	1779	151	0	stimuli\walrus\walrus_09s.jpg	8	-1	0	0	walrus_09s.jpg	0	0	0	41.5936590591737	41.6436428702436	0.0499838110699784
53506	50	152	0	0	oatmeal	1069	152	0	stimuli\oatmeal\oatmeal_01s.jpg	0	-1	0	0	oatmeal_01s.jpg	0	0	0	41.693676418392	41.7436536466121	0.0499772282200865
53606	50	153	0	0	wedge	1801	153	0	stimuli\wedge\wedge_09s.jpg	8	-1	0	0	wedge_09s.jpg	0	0	0	41.7936747604836	41.8436588153709	0.0499840548873181
53706	50	154	0	0	eclair	544	154	0	stimuli\eclair\eclair_02s.jpg	1	-1	0	0	eclair_02s.jpg	0	0	0	41.8936633502162	41.9436466736661	0.049983323449851
53806	50	155	0	0	dolly	501	155	0	stimuli\dolly\dolly_01s.jpg	0	-1	0	0	dolly_01s.jpg	0	0	0	41.9936821722949	42.0436650081247	0.0499828358297236
53906	50	156	0	0	totem_pole	1689	156	0	stimuli\totem_pole\totem_pole_09s.jpg	8	-1	0	0	totem_pole_09s.jpg	0	0	0	42.0936846591358	42.1436645692593	0.0499799101235112
54006	50	157	0	0	crane	431	157	0	stimuli\crane\crane_01b.jpg	0	-1	0	0	crane_01b.jpg	0	0	0	42.1936878774286	42.243667299932	0.0499794225033838
54106	50	158	0	0	bike	123	158	0	stimuli\bike\bike_09s.jpg	8	-1	0	0	bike_09s.jpg	0	0	0	42.2936908518896	42.34366954297	0.0499786910804687
54206	50	159	0	0	keg	866	159	0	stimuli\keg\keg_03s.jpg	2	-1	0	0	keg_03s.jpg	0	0	0	42.3936928511248	42.4436722736282	0.0499794225033838
54306	50	160	0	0	slipper	1468	160	0	stimuli\slipper\slipper_05s.jpg	4	-1	0	0	slipper_05s.jpg	0	0	0	42.4936970446433	42.5436801242904	0.0499830796470633
54406	50	161	0	0	stilt	1555	161	0	stimuli\stilt\stilt_10s.jpg	9	-1	0	0	stilt_10s.jpg	0	0	0	42.5936995314987	42.6436609121301	0.0499613806314301
54506	50	162	0	0	banana_split	65	162	0	stimuli\banana_split\banana_split_01b.jpg	0	-1	0	0	banana_split_01b.jpg	0	0	0	42.693698361225	42.7436804656172	0.0499821043922566
54606	50	163	0	0	bell	116	163	0	stimuli\bell\bell_06s.jpg	5	-1	0	0	bell_06s.jpg	0	0	0	42.7936850004771	42.8436834400927	0.0499984396155924
54706	50	164	0	0	hammock	742	164	0	stimuli\hammock\hammock_06s.jpg	5	-1	0	0	hammock_06s.jpg	0	0	0	42.8937050415843	42.9436864145682	0.0499813729838934
54806	50	165	0	0	hairpin	737	165	0	stimuli\hairpin\hairpin_02s.jpg	1	-1	0	0	hairpin_02s.jpg	0	0	0	42.9936419437727	43.0436842690397	0.0500423252669862
54906	50	166	0	0	clay	352	166	0	stimuli\clay\clay_06s.jpg	5	-1	0	0	clay_06s.jpg	0	0	0	43.0937070895889	43.1436879749526	0.049980885363766
55006	50	167	0	0	doorknocker	510	167	0	stimuli\doorknocker\doorknocker_11s.jpg	10	-1	0	0	doorknocker_11s.jpg	0	0	0	43.1937105516845	43.2436933875142	0.0499828358297236
55106	50	168	0	0	scarf	1377	168	0	stimuli\scarf\scarf_07s.jpg	6	-1	0	0	scarf_07s.jpg	0	0	0	43.2937108442566	43.3436905105627	0.0499796663061716
55206	50	169	0	0	wheat	1805	169	0	stimuli\wheat\wheat_10s.jpg	9	-1	0	0	wheat_10s.jpg	0	0	0	43.3936940701824	43.443676418392	0.0499823482095962
55306	50	170	0	0	boot	169	170	0	stimuli\boot\boot_11s.jpg	10	-1	0	0	boot_11s.jpg	0	0	0	43.4937184998562	43.5436986537825	0.049980153926299
55406	50	171	0	0	cactus	235	171	0	stimuli\cactus\cactus_03s.jpg	2	-1	0	0	cactus_03s.jpg	0	0	0	43.5937173295679	43.6436987025518	0.0499813729838934
55506	50	172	0	0	blender	138	172	0	stimuli\blender\blender_08s.jpg	7	-1	0	0	blender_08s.jpg	0	0	0	43.693706650738	43.7437021646474	0.04999551390938
55606	50	173	0	0	bacon	51	173	0	stimuli\bacon\bacon_08s.jpg	7	-1	0	0	bacon_08s.jpg	0	0	0	43.7937227908988	43.8437036762625	0.049980885363766
55706	50	174	0	0	basketball	83	174	0	stimuli\basketball\basketball_05s.jpg	4	-1	0	0	basketball_05s.jpg	0	0	0	43.8937089425308	43.9437042126374	0.0499952701065922
55806	50	175	0	0	solar_panel	1493	175	0	stimuli\solar_panel\solar_panel_07s.jpg	6	-1	0	0	solar_panel_07s.jpg	0	0	0	43.9937265455665	44.0437106004392	0.0499840548727661
55906	50	176	0	0	avocado	43	176	0	stimuli\avocado\avocado_08s.jpg	7	-1	0	0	avocado_08s.jpg	0	0	0	44.0937300076475	44.1437118682516	0.0499818606040208
56006	50	177	0	0	headlamp	764	177	0	stimuli\headlamp\headlamp_03s.jpg	2	-1	0	0	headlamp_03s.jpg	0	0	0	44.1937312754599	44.2436997265468	0.0499684510868974
56106	50	178	0	0	drumstick	523	178	0	stimuli\drumstick\drumstick_04s.jpg	3	-1	0	0	drumstick_04s.jpg	0	0	0	44.293739857545	44.3437158667221	0.049976009177044
56206	50	179	0	0	cannonball	261	179	0	stimuli\cannonball\cannonball_11s.jpg	10	-1	0	0	cannonball_11s.jpg	0	0	0	44.3937213768077	44.4437173783372	0.0499960015295073
56306	50	180	0	0	toast	1665	180	0	stimuli\toast\toast_06s.jpg	5	-1	0	0	toast_06s.jpg	0	0	0	44.493741905535	44.5437205966155	0.0499786910804687
56406	50	181	0	0	chick	321	181	0	stimuli\chick\chick_12s.jpg	11	-1	0	0	chick_12s.jpg	0	0	0	44.5937407352612	44.6437464891496	0.0500057538883993
56506	50	182	0	0	water_fountain	1790	182	0	stimuli\water_fountain\water_fountain_06s.jpg	5	-1	0	0	water_fountain_06s.jpg	0	0	0	44.6937454163999	44.7437255703262	0.049980153926299
56606	50	183	0	0	cocoon	376	183	0	stimuli\cocoon\cocoon_06s.jpg	5	-1	0	0	cocoon_06s.jpg	0	0	0	44.7937479032407	44.8437268381385	0.0499789348978084
56706	50	184	0	0	odometer	1071	184	0	stimuli\odometer\odometer_08s.jpg	7	-1	0	0	odometer_08s.jpg	0	0	0	44.8937508777162	44.9437300564168	0.0499791787005961
56806	50	185	0	0	shelf	1416	185	0	stimuli\shelf\shelf_04s.jpg	3	-1	0	0	shelf_04s.jpg	0	0	0	44.9937516579084	45.043734006118	0.0499823482095962
56906	50	186	0	0	acorn	3	186	0	stimuli\acorn\acorn_05s.jpg	4	-1	0	0	acorn_05s.jpg	0	0	0	45.0937536571437	45.1437196701445	0.0499660130008124
57006	50	187	0	0	honeycomb	789	187	0	stimuli\honeycomb\honeycomb_10n.jpg	9	-1	0	0	honeycomb_10n.jpg	0	0	0	45.1937583382824	45.2437431245926	0.0499847863102332
57106	50	188	0	0	pocketknife	1207	188	0	stimuli\pocketknife\pocketknife_04s.jpg	3	-1	0	0	pocketknife_04s.jpg	0	0	0	45.2937461965776	45.3437485371542	0.0500023405766115
57206	50	189	0	0	bat2	88	189	0	stimuli\bat2\bat2_05s.jpg	4	-1	0	0	bat2_05s.jpg	0	0	0	45.3937489272503	45.4437444411597	0.04999551390938
57306	50	190	0	0	tarantula	1626	190	0	stimuli\tarantula\tarantula_03s.jpg	2	-1	0	0	tarantula_03s.jpg	0	0	0	45.4937694559776	45.5437359565985	0.0499665006209398
57406	50	191	0	0	doorbell	507	191	0	stimuli\doorbell\doorbell_03s.jpg	2	-1	0	0	doorbell_03s.jpg	0	0	0	45.59375707047	45.6437525843794	0.04999551390938
57506	50	192	0	0	checkbook	310	192	0	stimuli\checkbook\checkbook_11s.jpg	10	-1	0	0	checkbook_11s.jpg	0	0	0	45.693778086832	45.7437594598014	0.0499813729693415
57606	50	193	0	0	bark	74	193	0	stimuli\bark\bark_02s.jpg	1	-1	0	0	bark_02s.jpg	0	0	0	45.793781061293	45.8437448800105	0.0499638187175151
57706	50	194	0	0	airboat	8	194	0	stimuli\airboat\airboat_02s.jpg	1	-1	0	0	airboat_02s.jpg	0	0	0	45.8937811100623	45.9437624830316	0.0499813729693415
57806	50	195	0	0	grapevine	704	195	0	stimuli\grapevine\grapevine_12s.jpg	11	-1	0	0	grapevine_12s.jpg	0	0	0	45.9937831092975	46.0437583870371	0.049975277739577
57906	50	196	0	0	quad	1260	196	0	stimuli\quad\quad_09s.jpg	8	-1	0	0	quad_09s.jpg	0	0	0	46.0937807199662	46.1437450263038	0.0499643063376425
58006	50	197	0	0	rat	1285	197	0	stimuli\rat\rat_04s.jpg	3	-1	0	0	rat_04s.jpg	0	0	0	46.1937827192014	46.2437653112283	0.0499825920269359
58106	50	198	0	0	spout	1520	198	0	stimuli\spout\spout_08s.jpg	7	-1	0	0	spout_08s.jpg	0	0	0	46.2937859374797	46.3437668228435	0.049980885363766
58206	50	199	0	0	stained_glass	1531	199	0	stimuli\stained_glass\stained_glass_09s.jpg	8	-1	0	0	stained_glass_09s.jpg	0	0	0	46.3937857424316	46.4437702849245	0.0499845424928935
58306	50	200	0	0	button2	231	200	0	stimuli\button2\button2_12s.jpg	11	-1	0	0	button2_12s.jpg	0	0	0	46.4937904235703	46.5437717965542	0.0499813729838934
58406	50	201	0	0	filing_cabinet	585	201	0	stimuli\filing_cabinet\filing_cabinet_08s.jpg	7	-1	0	0	filing_cabinet_08s.jpg	0	0	0	46.5937912037625	46.6437567291432	0.049965525380685
58506	50	202	0	0	golf_club	690	202	0	stimuli\golf_club\golf_club_11s.jpg	10	-1	0	0	golf_club_11s.jpg	0	0	0	46.6937966163241	46.7437762826448	0.0499796663207235
58606	50	203	0	0	microwave	1000	203	0	stimuli\microwave\microwave_02s.jpg	1	-1	0	0	microwave_02s.jpg	0	0	0	46.7937988593767	46.843762921897	0.0499640625203028
58706	50	204	0	0	banana	63	204	0	stimuli\banana\banana_01b.jpg	0	-1	0	0	banana_01b.jpg	0	0	0	46.8937850110087	46.9437863763451	0.0500013653363567
58806	50	205	0	0	wrench	1841	205	0	stimuli\wrench\wrench_06s.jpg	5	-1	0	0	wrench_06s.jpg	0	0	0	46.9938065149763	47.0437834993936	0.0499769844172988
58906	50	206	0	0	leotard	918	206	0	stimuli\leotard\leotard_10s.jpg	9	-1	0	0	leotard_10s.jpg	0	0	0	47.093805344688	47.1437584358064	0.0499530911183683
59006	50	207	0	0	peach	1129	207	0	stimuli\peach\peach_08s.jpg	7	-1	0	0	peach_08s.jpg	0	0	0	47.193781256341	47.2437616540847	0.0499803977436386
59106	50	208	0	0	straw1	1568	208	0	stimuli\straw1\straw1_08s.jpg	7	-1	0	0	straw1_08s.jpg	0	0	0	47.293781061293	47.3437646285602	0.0499835672671907
59206	50	209	0	0	pretzel	1239	209	0	stimuli\pretzel\pretzel_11s.jpg	10	-1	0	0	pretzel_11s.jpg	0	0	0	47.3937840357685	47.4437671154155	0.0499830796470633
59306	50	210	0	0	spinach	1515	210	0	stimuli\spinach\spinach_03s.jpg	2	-1	0	0	spinach_03s.jpg	0	0	0	47.4937865226239	47.5437696022709	0.0499830796470633
59406	50	211	0	0	baton2	93	211	0	stimuli\baton2\baton2_12s.jpg	11	-1	0	0	baton2_12s.jpg	0	0	0	47.5938014437415	47.6437806224421	0.0499791787005961
59506	50	212	0	0	earring	540	212	0	stimuli\earring\earring_10s.jpg	9	-1	0	0	earring_10s.jpg	0	0	0	47.6938027115539	47.7438099283027	0.0500072167487815
59606	50	213	0	0	stem	1547	213	0	stimuli\stem\stem_05s.jpg	4	-1	0	0	stem_05s.jpg	0	0	0	47.7938268974249	47.8437948608916	0.04996796346677
59706	50	214	0	0	icepick	822	214	0	stimuli\icepick\icepick_05s.jpg	4	-1	0	0	icepick_05s.jpg	0	0	0	47.8938191443012	47.9438202658202	0.050001121519017
59806	50	215	0	0	radio	1273	215	0	stimuli\radio\radio_12s.jpg	11	-1	0	0	radio_12s.jpg	0	0	0	47.9938401606487	48.0438188517292	0.0499786910804687
59906	50	216	0	0	silicone	1444	216	0	stimuli\silicone\silicone_03s.jpg	2	-1	0	0	silicone_03s.jpg	0	0	0	48.0938377713173	48.1438176814409	0.0499799101235112
60006	50	217	0	0	cheesecake	314	217	0	stimuli\cheesecake\cheesecake_06s.jpg	5	-1	0	0	cheesecake_06s.jpg	0	0	0	48.1938392829325	48.2438167549699	0.0499774720374262
60106	50	218	0	0	mannequin	968	218	0	stimuli\mannequin\mannequin_03s.jpg	2	-1	0	1	mannequin_03s.jpg	0	0	0	48.2938356745581	48.3438048570824	0.0499691825243644
60206	50	219	0	0	cupcake	461	219	0	stimuli\cupcake\cupcake_08s.jpg	7	-1	0	0	cupcake_08s.jpg	0	0	0	48.3938388928364	48.4438209972432	0.0499821044068085
60306	50	220	0	0	brake	191	220	0	stimuli\brake\brake_12s.jpg	11	-1	0	0	brake_12s.jpg	0	0	0	48.4938394292258	48.5438217774354	0.0499823482095962
60406	50	221	0	0	sandbag	1353	221	0	stimuli\sandbag\sandbag_05s.jpg	4	-1	0	0	sandbag_05s.jpg	1	0.350178760898416	1	48.5938436227443	48.6438298719004	0.0499862491560634
60506	50	222	0	0	sewing_machine	1407	222	0	stimuli\sewing_machine\sewing_machine_04s.jpg	3	-1	0	0	sewing_machine_04s.jpg	0	0	0	48.6938553743385	48.7438367473223	0.0499813729838934
60606	50	223	0	0	fudge	647	223	0	stimuli\fudge\fudge_03s.jpg	2	-1	0	0	fudge_03s.jpg	0	0	0	48.7938483526377	48.8438297256071	0.0499813729693415
60706	50	224	0	0	bubble_wrap	208	224	0	stimuli\bubble_wrap\bubble_wrap_01b.jpg	0	-1	0	0	bubble_wrap_01b.jpg	0	0	0	48.8938547404396	48.9438341629429	0.0499794225033838
60806	50	225	0	0	backpack	49	225	0	stimuli\backpack\backpack_02s.jpg	1	-1	0	0	backpack_02s.jpg	0	0	0	48.9938533263485	49.0438359183609	0.049982592012384
60906	50	226	0	0	leopard	917	226	0	stimuli\leopard\leopard_09s.jpg	8	-1	0	0	leopard_09s.jpg	0	0	0	49.0938558132038	49.1438184128638	0.0499625996599207
61006	50	227	0	0	tadpole	1614	227	0	stimuli\tadpole\tadpole_12s.jpg	11	-1	0	0	tadpole_12s.jpg	0	0	0	49.1938507419691	49.243843573975	0.0499928320059553
61106	50	228	0	0	tongs	1674	228	0	stimuli\tongs\tongs_10s.jpg	9	-1	0	0	tongs_10s.jpg	0	0	0	49.2938459145516	49.3438275313238	0.0499816167721292
61206	50	229	0	0	noodle	1061	229	0	stimuli\noodle\noodle_11s.jpg	10	-1	0	0	noodle_11s.jpg	0	0	0	49.3938813156419	49.4438434276963	0.0499621120543452
61306	50	230	0	0	plate	1197	230	0	stimuli\plate\plate_02s.jpg	1	-1	0	0	plate_02s.jpg	0	0	0	49.4938711244176	49.5438498154981	0.0499786910804687
61406	50	231	0	0	swing_set	1599	231	0	stimuli\swing_set\swing_set_08s.jpg	7	-1	0	0	swing_set_08s.jpg	0	0	0	49.5938672722259	49.6438725385087	0.0500052662828239
61506	50	232	0	0	hot_tub	804	232	0	stimuli\hot_tub\hot_tub_03s.jpg	2	-1	0	0	hot_tub_03s.jpg	0	0	0	49.6938682962355	49.7438496692048	0.0499813729693415
61606	50	233	0	0	metronome	997	233	0	stimuli\metronome\metronome_02s.jpg	1	-1	0	0	metronome_02s.jpg	0	0	0	49.7938683449902	49.8438602017704	0.0499918567802524
61706	50	234	0	0	necklace	1054	234	0	stimuli\necklace\necklace_06s.jpg	5	-1	0	0	necklace_06s.jpg	0	0	0	49.893874732792	49.9438565933815	0.0499818605894689
61806	50	235	0	0	generator	671	235	0	stimuli\generator\generator_10s.jpg	9	-1	0	0	generator_10s.jpg	0	0	0	49.9938777072675	50.0438566421508	0.0499789348832564
61906	50	236	0	0	cement_mixer	294	236	0	stimuli\cement_mixer\cement_mixer_07s.jpg	6	-1	0	0	cement_mixer_07s.jpg	0	0	0	50.0938782436424	50.1438625423325	0.0499842986901058
62006	50	237	0	0	grain	698	237	0	stimuli\grain\grain_01b.jpg	0	-1	0	0	grain_01b.jpg	0	0	0	50.1938824371609	50.2438628349046	0.0499803977436386
62106	50	238	0	0	dumbbell	530	238	0	stimuli\dumbbell\dumbbell_06s.jpg	5	-1	0	0	dumbbell_06s.jpg	0	0	0	50.2938854116364	50.3438645903225	0.0499791786860442
62206	50	239	0	0	dynamite	536	239	0	stimuli\dynamite\dynamite_12s.jpg	11	-1	0	0	dynamite_12s.jpg	0	0	0	50.3938881422946	50.4438678086153	0.0499796663207235
62306	50	240	0	0	prism	1241	240	0	stimuli\prism\prism_03s.jpg	2	-1	0	0	prism_03s.jpg	0	0	0	50.4938950177166	50.5438678573701	0.049972839653492
62406	50	241	0	0	jumpsuit	859	241	0	stimuli\jumpsuit\jumpsuit_07s.jpg	6	-1	0	0	jumpsuit_07s.jpg	0	0	0	50.593890921722	50.643876683258	0.049985761535936
62506	50	242	0	0	tree_trunk	1709	242	0	stimuli\tree_trunk\tree_trunk_02s.jpg	1	-1	0	0	tree_trunk_02s.jpg	0	0	0	50.6938943838177	50.7438733187009	0.0499789348832564
62606	50	243	0	0	arm	36	243	0	stimuli\arm\arm_02s.jpg	1	-1	0	0	arm_02s.jpg	0	0	0	50.7938978458988	50.843882632209	0.0499847863102332
62706	50	244	0	0	urn	1749	244	0	stimuli\urn\urn_03s.jpg	2	-1	0	0	urn_03s.jpg	0	0	0	50.8939017956145	50.943883656204	0.0499818605894689
62806	50	245	0	0	pencil	1142	245	0	stimuli\pencil\pencil_10s.jpg	9	-1	0	0	pencil_10s.jpg	0	0	0	50.9939003815234	51.0438849240163	0.0499845424928935
62906	50	246	0	0	catfish	287	246	0	stimuli\catfish\catfish_10s.jpg	9	-1	0	0	catfish_10s.jpg	0	0	0	51.0939031121816	51.1438844851655	0.0499813729838934
63006	50	247	0	0	scallop	1373	247	0	stimuli\scallop\scallop_02s.jpg	1	-1	0	0	scallop_02s.jpg	0	0	0	51.1939043799939	51.2438896539097	0.0499852739158086
63106	50	248	0	0	toucan	1690	248	0	stimuli\toucan\toucan_04s.jpg	3	-1	0	0	toucan_04s.jpg	0	0	0	51.2939100363583	51.343891653145	0.0499816167866811
63207	50	249	0	0	dress	518	249	0	stimuli\dress\dress_07s.jpg	6	-1	0	0	dress_07s.jpg	0	0	0	51.3939134984539	51.4438934085774	0.0499799101235112
63307	50	250	0	0	banjo	68	250	0	stimuli\banjo\banjo_08s.jpg	7	-1	0	1	banjo_08s.jpg	0	0	0	51.493915010069	51.5438927259092	0.0499777158402139
63407	50	251	0	0	car_seat	269	251	0	stimuli\car_seat\car_seat_05s.jpg	4	-1	0	0	car_seat_05s.jpg	0	0	0	51.5939192035876	51.6438974070479	0.0499782034603413
63507	50	252	0	0	wand	1780	252	0	stimuli\wand\wand_12s.jpg	11	-1	0	0	wand_12s.jpg	0	0	0	51.6939199837798	51.7439025758067	0.0499825920269359
63607	50	253	0	0	clam	349	253	0	stimuli\clam\clam_12s.jpg	11	-1	0	0	clam_12s.jpg	0	0	0	51.7939200325345	51.8439043312246	0.0499842986901058
63707	50	254	0	0	breadstick	196	254	0	stimuli\breadstick\breadstick_06s.jpg	5	-1	0	0	breadstick_06s.jpg	0	0	0	51.89393007748	51.9439119380695	0.0499818605894689
63807	50	255	0	0	lighter	928	255	0	stimuli\lighter\lighter_11s.jpg	10	-1	0	0	lighter_11s.jpg	1	0.503326532678329	1	51.9939237872022	52.0439088173152	0.0499850301130209
63907	50	256	0	0	refrigerator	1300	256	0	stimuli\refrigerator\refrigerator_02s.jpg	1	-1	0	0	refrigerator_02s.jpg	0	0	0	52.0939328569075	52.1439125232137	0.0499796663061716
64007	50	257	0	0	dartboard	474	257	0	stimuli\dartboard\dartboard_07s.jpg	6	-1	0	0	dartboard_07s.jpg	0	0	0	52.1939314428164	52.2439142786461	0.0499828358297236
64107	50	258	0	0	mushroom	1040	258	0	stimuli\mushroom\mushroom_12n.jpg	11	-1	0	0	mushroom_12n.jpg	0	0	0	52.2939378306182	52.3439179845445	0.049980153926299
64207	50	259	0	0	skeleton	1450	259	0	stimuli\skeleton\skeleton_08s.jpg	7	-1	0	0	skeleton_08s.jpg	0	0	0	52.3939408050792	52.4439199837798	0.0499791787005961
64307	50	260	0	0	banana_peel	64	260	0	stimuli\banana_peel\banana_peel_01b.jpg	0	-1	0	0	banana_peel_01b.jpg	0	0	0	52.493940122411	52.543920763972	0.0499806415609783
64407	50	261	0	0	donut	505	261	0	stimuli\donut\donut_01b.jpg	0	-1	0	0	donut_01b.jpg	0	0	0	52.5939404149831	52.6439254451107	0.0499850301275728
64507	50	262	0	0	deer	476	262	0	stimuli\deer\deer_03s.jpg	2	-1	0	0	deer_03s.jpg	0	0	0	52.6939429018385	52.7439235433994	0.0499806415609783
64607	50	263	0	0	sleeping_bag	1462	263	0	stimuli\sleeping_bag\sleeping_bag_05s.jpg	4	-1	0	0	sleeping_bag_05s.jpg	0	0	0	52.7939461201313	52.8439306626242	0.0499845424928935
64707	50	264	0	0	leek	910	264	0	stimuli\leek\leek_08s.jpg	7	-1	0	0	leek_08s.jpg	0	0	0	52.8939559212595	52.9439324180421	0.0499764967826195
64807	50	265	0	0	boa	150	265	0	stimuli\boa\boa_06s.jpg	5	-1	0	0	boa_06s.jpg	0	0	0	52.993953044308	53.0439366115606	0.0499835672526387
64907	50	266	0	0	dough	513	266	0	stimuli\dough\dough_11s.jpg	10	-1	0	0	dough_11s.jpg	0	0	0	53.0939557749662	53.1439386107959	0.0499828358297236
65007	50	267	0	0	bonsai	164	267	0	stimuli\bonsai\bonsai_11s.jpg	10	-1	0	0	bonsai_11s.jpg	0	0	0	53.1939563113556	53.2439367090847	0.0499803977290867
65107	50	268	0	0	poker	1210	268	0	stimuli\poker\poker_09s.jpg	8	-1	0	0	poker_09s.jpg	0	0	0	53.2939592858165	53.3439389521373	0.0499796663207235
65207	50	269	0	0	cutting_board	467	269	0	stimuli\cutting_board\cutting_board_01b.jpg	0	-1	0	0	cutting_board_01b.jpg	0	0	0	53.3939617726719	53.4439438770787	0.0499821044068085
65307	50	270	0	0	rain_gauge	1278	270	0	stimuli\rain_gauge\rain_gauge_01b.jpg	0	-1	0	0	rain_gauge_01b.jpg	0	0	0	53.4939669414307	53.5439478267945	0.049980885363766
65407	50	271	0	0	railing	1277	271	0	stimuli\railing\railing_09s.jpg	8	-1	0	0	railing_09s.jpg	0	0	0	53.593968209243	53.6439532393561	0.0499850301130209
65507	50	272	0	0	ski_boots	1453	272	0	stimuli\ski_boots\ski_boots_04s.jpg	3	-1	0	0	ski_boots_04s.jpg	0	0	0	53.6939733779873	53.7439481681213	0.0499747901340015
65607	50	273	0	0	weather_vane	1798	273	0	stimuli\weather_vane\weather_vane_07s.jpg	6	-1	0	0	weather_vane_07s.jpg	0	0	0	53.7939700134302	53.8439526054426	0.049982592012384
65707	50	274	0	0	duck	525	274	0	stimuli\duck\duck_09s.jpg	8	-1	0	0	duck_09s.jpg	0	0	0	53.8939790831209	53.9439585056243	0.0499794225033838
65807	50	275	0	0	tuba	1723	275	0	stimuli\tuba\tuba_05s.jpg	4	-1	0	0	tuba_05s.jpg	0	0	0	53.9939844956971	54.0439639182005	0.0499794225033838
65907	50	276	0	0	toy	1694	276	0	stimuli\toy\toy_11s.jpg	10	-1	0	0	toy_11s.jpg	0	0	0	54.0939789368422	54.1439607974316	0.0499818605894689
66007	50	277	0	0	face_mask	570	277	0	stimuli\face_mask\face_mask_06s.jpg	5	-1	0	0	face_mask_06s.jpg	0	0	0	54.1939862998843	54.2439662100078	0.0499799101235112
66107	50	278	0	0	onion	1077	278	0	stimuli\onion\onion_08s.jpg	7	-1	0	0	onion_08s.jpg	0	0	0	54.2939829353127	54.3439689406659	0.0499860053532757
66207	50	279	0	0	staple	1537	279	0	stimuli\staple\staple_10s.jpg	9	-1	0	0	staple_10s.jpg	0	0	0	54.3939876164513	54.443971183704	0.0499835672526387
66307	50	280	0	0	aircraft_carrier	9	280	0	stimuli\aircraft_carrier\aircraft_carrier_05s.jpg	4	-1	0	0	aircraft_carrier_05s.jpg	0	0	0	54.4939908347296	54.5439739143767	0.0499830796470633
66407	50	281	0	0	chariot	309	281	0	stimuli\chariot\chariot_12s.jpg	11	-1	0	0	chariot_12s.jpg	0	0	0	54.5939928339649	54.6439759136119	0.0499830796470633
66507	50	282	0	0	barbell	72	282	0	stimuli\barbell\barbell_10s.jpg	9	-1	0	0	barbell_10s.jpg	0	0	0	54.6939987341466	54.7439759623667	0.0499772282200865
66607	50	283	0	0	home_plate	787	283	0	stimuli\home_plate\home_plate_02s.jpg	1	-1	0	0	home_plate_02s.jpg	0	0	0	54.7939968324354	54.8439779616019	0.0499811291665537
66707	50	284	0	0	jackhammer	837	284	0	stimuli\jackhammer\jackhammer_07s.jpg	6	-1	0	0	jackhammer_07s.jpg	0	0	0	54.8939998069109	54.9439804484573	0.0499806415464263
66807	50	285	0	0	chime	328	285	0	stimuli\chime\chime_02s.jpg	1	-1	0	0	chime_02s.jpg	0	0	0	54.994001318526	55.0439807410294	0.0499794225033838
66907	50	286	0	0	bush	227	286	0	stimuli\bush\bush_01s.jpg	0	-1	0	0	bush_01s.jpg	0	0	0	55.0940069749049	55.1439927364409	0.049985761535936
67007	50	287	0	0	tugboat	1725	287	0	stimuli\tugboat\tugboat_12s.jpg	11	-1	0	0	tugboat_12s.jpg	0	0	0	55.194010436986	55.2439905909268	0.0499801539408509
67107	50	288	0	0	velcro	1756	288	0	stimuli\velcro\velcro_04s.jpg	3	-1	0	0	velcro_04s.jpg	0	0	0	55.2940102419379	55.3439908834989	0.0499806415609783
67207	50	289	0	0	bowling_ball	179	289	0	stimuli\bowling_ball\bowling_ball_09s.jpg	8	-1	0	0	bowling_ball_09s.jpg	0	0	0	55.39401760498	55.4439941017772	0.0499764967971714
67307	50	290	0	0	diskette	493	290	0	stimuli\diskette\diskette_03s.jpg	2	-1	0	0	diskette_03s.jpg	0	0	0	55.4940130213654	55.5439946381521	0.0499816167866811
67407	50	291	0	0	tattoo	1629	291	0	stimuli\tattoo\tattoo_02s.jpg	1	-1	0	0	tattoo_02s.jpg	0	0	0	55.5940172148839	55.6440034640545	0.0499862491706153
67507	50	292	0	0	brownie	204	292	0	stimuli\brownie\brownie_04s.jpg	3	-1	0	0	brownie_04s.jpg	0	0	0	55.6940306731558	55.7440052194725	0.0499745463166619
67607	50	293	0	0	arugula	40	293	0	stimuli\arugula\arugula_09s.jpg	8	-1	0	0	arugula_09s.jpg	0	0	0	55.7940212133544	55.8440038053814	0.0499825920269359
67707	50	294	0	0	waterwheel	1794	294	0	stimuli\waterwheel\waterwheel_09s.jpg	8	-1	0	1	waterwheel_09s.jpg	0	0	0	55.8940278449736	55.944007267477	0.0499794225033838
67807	50	295	0	0	stroller	1574	295	0	stimuli\stroller\stroller_04s.jpg	3	-1	0	0	stroller_04s.jpg	0	0	0	55.9940291127714	56.0440109733754	0.0499818606040208
67907	50	296	0	0	swimming_pool	1596	296	0	stimuli\swimming_pool\swimming_pool_12s.jpg	11	-1	0	0	swimming_pool_12s.jpg	0	0	0	56.0940340377274	56.144015166894	0.0499811291665537
68007	50	297	0	0	bulldozer	215	297	0	stimuli\bulldozer\bulldozer_07s.jpg	6	-1	0	0	bulldozer_07s.jpg	1	0.350158280925825	1	56.194033598862	56.2440118023223	0.0499782034603413
68107	50	298	0	0	crouton	445	298	0	stimuli\crouton\crouton_05s.jpg	4	-1	0	0	crouton_05s.jpg	0	0	0	56.2940351104771	56.3440211158304	0.0499860053532757
68207	50	299	0	0	backscratcher	50	299	0	stimuli\backscratcher\backscratcher_09s.jpg	8	-1	0	0	backscratcher_09s.jpg	0	0	0	56.3940422297164	56.4440179950761	0.0499757653597044
68307	50	300	0	0	nut	1066	300	0	stimuli\nut\nut_11s.jpg	10	-1	0	0	nut_11s.jpg	0	0	0	56.4940413032309	56.5440268209641	0.0499855177331483
68407	50	301	0	0	xylophone	1843	301	0	stimuli\xylophone\xylophone_03s.jpg	2	-1	0	0	xylophone_03s.jpg	0	0	0	56.5940481786529	56.6440288201993	0.0499806415464263
68507	50	302	0	0	macadamia	951	302	0	stimuli\macadamia\macadamia_01b.jpg	0	-1	0	0	macadamia_01b.jpg	0	0	0	56.6940487150277	56.744025699445	0.0499769844172988
68607	50	303	0	0	lightning_bug	929	303	0	stimuli\lightning_bug\lightning_bug_07s.jpg	6	-1	0	0	lightning_bug_07s.jpg	0	0	0	56.7940482761769	56.8440279424976	0.0499796663207235
68707	50	304	0	0	fork	634	304	0	stimuli\fork\fork_01b.jpg	0	-1	0	0	fork_01b.jpg	0	0	0	56.8940553954017	56.944031648396	0.0499762529943837
68807	50	305	0	0	paint	1096	305	0	stimuli\paint\paint_12s.jpg	11	-1	0	0	paint_12s.jpg	0	0	0	56.9940539813106	57.0440336476313	0.0499796663207235
68907	50	306	0	0	riser	1314	306	0	stimuli\riser\riser_10s.jpg	9	-1	0	0	riser_10s.jpg	0	0	0	57.0940562243632	57.1440378411498	0.0499816167866811
69007	50	307	0	0	whoopee_cushion	1814	307	0	stimuli\whoopee_cushion\whoopee_cushion_08s.jpg	7	-1	0	0	whoopee_cushion_08s.jpg	0	0	0	57.1940589550213	57.2440359394386	0.0499769844172988
69107	50	308	0	0	crayon	435	308	0	stimuli\crayon\crayon_07s.jpg	6	-1	0	0	crayon_07s.jpg	0	0	0	57.2940619294968	57.3440457405668	0.0499838110699784
73907	50	309	0	0	seesaw	1402	0	1	stimuli\seesaw\seesaw_10s.jpg	9	-1	1	0	seesaw_10s.jpg	0	0	0	62.0941949517874	62.1441763247713	0.0499813729838934
74007	50	310	0	0	cranberry	430	1	1	stimuli\cranberry\cranberry_12s.jpg	11	-1	1	0	cranberry_12s.jpg	0	0	0	62.1941964634025	62.2441600383172	0.0499635749147274
74107	50	311	0	0	sofa_bed	1492	2	1	stimuli\sofa_bed\sofa_bed_12s.jpg	11	-1	1	0	sofa_bed_12s.jpg	0	0	0	62.2941972435947	62.3441839803709	0.0499867367761908
74207	50	312	0	0	ladybug	888	3	1	stimuli\ladybug\ladybug_06s.jpg	5	-1	1	0	ladybug_06s.jpg	0	0	0	62.3942011933104	62.4441869548464	0.049985761535936
74307	50	313	0	0	keyhole	871	4	1	stimuli\keyhole\keyhole_10s.jpg	9	-1	1	0	keyhole_10s.jpg	0	0	0	62.4941871011397	62.5441660360229	0.0499789348832564
74407	50	314	0	0	nail_clippers	1047	5	1	stimuli\nail_clippers\nail_clippers_07s.jpg	6	-1	1	0	nail_clippers_07s.jpg	0	0	0	62.5942051917809	62.6441933914175	0.049988199636573
74507	50	315	0	0	toolbox	1677	6	1	stimuli\toolbox\toolbox_06s.jpg	5	-1	1	0	toolbox_06s.jpg	0	0	0	62.694191343413	62.7441871011397	0.0499957577267196
74607	50	316	0	0	workbench	1835	7	1	stimuli\workbench\workbench_10s.jpg	9	-1	1	0	workbench_10s.jpg	0	0	0	62.7942094340542	62.8441883689375	0.0499789348832564
74707	50	317	0	0	treadmill	1706	8	1	stimuli\treadmill\treadmill_06s.jpg	5	-1	1	0	treadmill_06s.jpg	0	0	0	62.8942109456693	62.944198413883	0.0499874682136578
74807	50	318	0	0	beanie	104	9	1	stimuli\beanie\beanie_07s.jpg	6	-1	1	0	beanie_07s.jpg	0	0	0	62.9942197715718	63.0441952931287	0.0499755215569166
74907	50	319	0	0	juicer2	856	10	1	stimuli\juicer2\juicer2_06s.jpg	5	-1	1	0	juicer2_06s.jpg	0	0	0	63.0942112870107	63.1441975361668	0.0499862491560634
75007	50	320	0	0	water_filter	1789	11	1	stimuli\water_filter\water_filter_09s.jpg	8	-1	1	0	water_filter_09s.jpg	0	0	0	63.1942159681494	63.2441956344555	0.0499796663061716
75107	50	321	0	0	stirrup	1558	12	1	stimuli\stirrup\stirrup_06s.jpg	5	-1	1	0	stirrup_06s.jpg	0	0	0	63.2942030950217	63.3441842241882	0.0499811291665537
75207	50	322	0	0	cobra	371	13	1	stimuli\cobra\cobra_02s.jpg	1	-1	1	0	cobra_02s.jpg	0	0	0	63.3942214294657	63.444205484353	0.0499840548873181
75307	50	323	0	0	branch	192	14	1	stimuli\branch\branch_04s.jpg	3	-1	1	0	branch_04s.jpg	0	0	0	63.494222697278	63.544207727391	0.0499850301130209
75407	50	324	0	0	sarcophagus	1358	15	1	stimuli\sarcophagus\sarcophagus_02s.jpg	1	-1	1	0	sarcophagus_02s.jpg	0	0	0	63.5942281098396	63.6442063132999	0.0499782034603413
75507	50	325	0	0	umbrella	1743	16	1	stimuli\umbrella\umbrella_06s.jpg	5	-1	1	0	umbrella_06s.jpg	0	0	0	63.6942284024117	63.7442078249151	0.0499794225033838
75607	50	326	0	0	handlebar	749	17	1	stimuli\handlebar\handlebar_04s.jpg	3	-1	1	0	handlebar_04s.jpg	0	0	0	63.7942143102409	63.8442125060537	0.0499981958128046
75707	50	327	0	0	artichoke	39	18	1	stimuli\artichoke\artichoke_12s.jpg	11	-1	1	0	artichoke_12s.jpg	0	0	0	63.8942360580259	63.9442130424286	0.0499769844027469
75807	50	328	0	0	nose	1063	19	1	stimuli\nose\nose_07s.jpg	6	-1	1	0	nose_07s.jpg	0	0	0	63.9942346439348	64.0441989502579	0.0499643063230906
75907	50	329	0	0	calf2	242	20	1	stimuli\calf2\calf2_11s.jpg	10	-1	1	0	calf2_11s.jpg	0	0	0	64.0942383498332	64.1442189913796	0.0499806415464263
76007	50	330	0	0	pulley	1250	21	1	stimuli\pulley\pulley_06s.jpg	5	-1	1	0	pulley_06s.jpg	0	0	0	64.194239617631	64.2442207467975	0.0499811291665537
76107	50	331	0	0	tube_top	1724	22	1	stimuli\tube_top\tube_top_03s.jpg	2	-1	1	0	tube_top_03s.jpg	0	0	0	64.2942428359238	64.3442234774702	0.0499806415464263
76207	50	332	0	0	fire_pit	593	23	1	stimuli\fire_pit\fire_pit_05s.jpg	4	-1	1	0	fire_pit_05s.jpg	0	0	0	64.394248004668	64.4442301090749	0.0499821044068085
76307	50	333	0	0	sheath	1413	24	1	stimuli\sheath\sheath_07s.jpg	6	-1	1	0	sheath_07s.jpg	0	0	0	64.4942341563146	64.5442294264067	0.0499952700920403
76407	50	334	0	0	headband	762	25	1	stimuli\headband\headband_10s.jpg	9	-1	1	0	headband_10s.jpg	0	0	0	64.5942373745929	64.644230694219	0.0499933196260827
76507	50	335	0	0	thermostat	1648	26	1	stimuli\thermostat\thermostat_01b.jpg	0	-1	1	0	thermostat_01b.jpg	0	0	0	64.694252539528	64.7442348877375	0.0499823482095962
76607	50	336	0	0	squash	1526	27	1	stimuli\squash\squash_08s.jpg	7	-1	1	0	squash_08s.jpg	0	0	0	64.7942567330465	64.8442363993527	0.0499796663061716
76707	50	337	0	0	seismograph	1403	28	1	stimuli\seismograph\seismograph_02s.jpg	1	-1	1	0	seismograph_02s.jpg	0	0	0	64.8942572694214	64.9442230386048	0.0499657691834727
76807	50	338	0	0	jelly_bean	844	29	1	stimuli\jelly_bean\jelly_bean_03s.jpg	2	-1	1	0	jelly_bean_03s.jpg	0	0	0	64.9942431772506	65.0442421044863	0.0499989272357197
76907	50	339	0	0	bubble	207	30	1	stimuli\bubble\bubble_11s.jpg	10	-1	1	0	bubble_11s.jpg	0	0	0	65.0942673631216	65.1442419094383	0.0499745463166619
77007	50	340	0	0	stingray	1556	31	1	stimuli\stingray\stingray_12s.jpg	11	-1	1	0	stingray_12s.jpg	0	0	0	65.1942666804534	65.2442287925078	0.0499621120543452
77107	50	341	0	0	fondue	626	32	1	stimuli\fondue\fondue_02s.jpg	1	-1	1	0	fondue_02s.jpg	0	0	0	65.2942667292227	65.3442502964754	0.0499835672526387
77207	50	342	0	0	coral	406	33	1	stimuli\coral\coral_11s.jpg	10	-1	1	0	coral_11s.jpg	0	0	0	65.3942709227413	65.4442544899939	0.0499835672526387
77307	50	343	0	0	torso	1685	34	1	stimuli\torso\torso_11s.jpg	10	-1	1	0	torso_11s.jpg	0	0	0	65.4942751162598	65.5442533197056	0.0499782034457894
77407	50	344	0	0	applesauce	32	35	1	stimuli\applesauce\applesauce_11s.jpg	10	-1	1	0	applesauce_11s.jpg	0	0	0	65.5942788221582	65.6442611703678	0.0499823482095962
77507	50	345	0	0	life_jacket	924	36	1	stimuli\life_jacket\life_jacket_07s.jpg	6	-1	1	0	life_jacket_07s.jpg	0	0	0	65.6942542461911	65.7442344001174	0.049980153926299
77607	50	346	0	0	bib	122	37	1	stimuli\bib\bib_10n.jpg	9	-1	1	0	bib_10n.jpg	0	0	0	65.7942535635229	65.844239812679	0.0499862491560634
77707	50	347	0	0	javelin	841	38	1	stimuli\javelin\javelin_01s.jpg	0	-1	1	0	javelin_01s.jpg	0	0	0	65.8942614141706	65.9442469319183	0.0499855177477002
77807	50	348	0	0	revolving_door	1305	39	1	stimuli\revolving_door\revolving_door_12s.jpg	11	-1	1	0	revolving_door_12s.jpg	0	0	0	65.994285843859	66.0442681920686	0.0499823482095962
77907	50	349	0	0	memory_stick	995	40	1	stimuli\memory_stick\memory_stick_12s.jpg	11	-1	1	0	memory_stick_12s.jpg	0	0	0	66.0942715078854	66.1442716541642	0.0500001462787623
78007	50	350	0	0	luggage	948	41	1	stimuli\luggage\luggage_05s.jpg	4	-1	1	0	luggage_05s.jpg	0	0	0	66.1942908175697	66.2442777981487	0.0499869805789785
78107	50	351	0	0	cow	426	42	1	stimuli\cow\cow_10s.jpg	9	-1	1	0	cow_10s.jpg	0	0	0	66.2942930606077	66.3442732145486	0.0499801539408509
78207	50	352	0	0	pocket	1205	43	1	stimuli\pocket\pocket_03s.jpg	2	-1	1	0	pocket_03s.jpg	0	0	0	66.3942996922269	66.4442598538008	0.0499601615738356
78307	50	353	0	0	punching_bag	1256	44	1	stimuli\punching_bag\punching_bag_01b.jpg	0	-1	1	0	punching_bag_01b.jpg	0	0	0	66.4942990095587	66.5442794073024	0.0499803977436386
78407	50	354	0	0	boar	151	45	1	stimuli\boar\boar_09s.jpg	8	-1	1	0	boar_09s.jpg	0	0	0	66.5942844297679	66.6442870141473	0.0500025843793992
78507	50	355	0	0	airplane	10	46	1	stimuli\airplane\airplane_03n.jpg	2	-1	1	0	airplane_03n.jpg	0	0	0	66.6943066651584	66.7442680457898	0.0499613806314301
78607	50	356	0	0	figurine	582	47	1	stimuli\figurine\figurine_12s.jpg	11	-1	1	0	figurine_12s.jpg	0	0	0	66.7942918415647	66.844288086897	0.0499962453322951
78707	50	357	0	0	tarp	1628	48	1	stimuli\tarp\tarp_08s.jpg	7	-1	1	0	tarp_08s.jpg	0	0	0	66.8943101760233	66.9442739947262	0.0499638187029632
78807	50	358	0	0	headdress	763	49	1	stimuli\headdress\headdress_03s.jpg	2	-1	1	0	headdress_03s.jpg	0	0	0	66.994294133372	67.044292816805	0.049998683432932
78907	50	359	0	0	wallet	1776	50	1	stimuli\wallet\wallet_01b.jpg	0	-1	1	0	wallet_01b.jpg	0	0	0	67.0943222201895	67.1443001798471	0.0499779596575536
79007	50	360	0	0	snowboard	1481	51	1	stimuli\snowboard\snowboard_09s.jpg	8	-1	1	0	snowboard_09s.jpg	0	0	0	67.1943042270723	67.2442819429125	0.0499777158402139
79107	50	361	0	0	bok_choy	156	52	1	stimuli\bok_choy\bok_choy_09s.jpg	8	-1	1	0	bok_choy_09s.jpg	0	0	0	67.2943196358101	67.3442875992914	0.0499679634813219
79207	50	362	0	0	crown	448	53	1	stimuli\crown\crown_01b.jpg	0	-1	1	0	crown_01b.jpg	0	0	0	67.3943209036224	67.4443008137459	0.0499799101235112
79307	50	363	0	0	mint	1004	54	1	stimuli\mint\mint_04s.jpg	3	-1	1	0	mint_04s.jpg	0	0	0	67.4943233904778	67.5443067139277	0.049983323449851
79407	50	364	0	0	compost	393	55	1	stimuli\compost\compost_10s.jpg	9	-1	1	0	compost_10s.jpg	0	0	0	67.5943268525734	67.6443084693456	0.0499816167721292
79507	50	365	0	0	cake	237	56	1	stimuli\cake\cake_12s.jpg	11	-1	1	0	cake_12s.jpg	0	0	0	67.6943281203712	67.744310224778	0.0499821044068085
79607	50	366	0	0	pig	1170	57	1	stimuli\pig\pig_05s.jpg	4	-1	1	0	pig_05s.jpg	0	0	0	67.7943318262696	67.8443322163657	0.0500003900961019
79707	50	367	0	0	tool	1676	58	1	stimuli\tool\tool_07s.jpg	6	-1	1	0	tool_07s.jpg	0	0	0	67.8943357759854	67.9443144670659	0.0499786910804687
79807	50	368	0	0	hot-water_bottle	802	59	1	stimuli\hot-water_bottle\hot-water_bottle_05s.jpg	4	-1	1	0	hot-water_bottle_05s.jpg	0	0	0	67.9943367999804	68.0443008625007	0.0499640625203028
79907	50	369	0	0	sling	1466	60	1	stimuli\sling\sling_02s.jpg	1	-1	1	0	sling_02s.jpg	0	0	0	68.0943392868357	68.1443206598196	0.0499813729838934
80007	50	370	0	0	spaghetti	1503	61	1	stimuli\spaghetti\spaghetti_01b.jpg	0	-1	1	0	spaghetti_01b.jpg	0	0	0	68.1943466498778	68.2443243657181	0.0499777158402139
80107	50	371	0	0	caterpillar	286	62	1	stimuli\caterpillar\caterpillar_10s.jpg	9	-1	1	0	caterpillar_10s.jpg	0	0	0	68.2943289005634	68.3443283154193	0.0499994148558471
80207	50	372	0	0	grasshopper	706	63	1	stimuli\grasshopper\grasshopper_02s.jpg	1	-1	1	0	grasshopper_02s.jpg	0	0	0	68.394350404531	68.4443120289652	0.0499616244342178
80307	50	373	0	0	hubcap	809	64	1	stimuli\hubcap\hubcap_10s.jpg	9	-1	1	0	hubcap_10s.jpg	0	0	0	68.4943326552311	68.544343529109	0.050010873877909
80407	50	374	0	0	camper	249	65	1	stimuli\camper\camper_03s.jpg	2	-1	1	0	camper_03s.jpg	0	0	0	68.5943522087182	68.6443318750389	0.0499796663207235
80507	50	375	0	0	drill	520	66	1	stimuli\drill\drill_06s.jpg	5	-1	1	0	drill_06s.jpg	0	0	0	68.6943398232106	68.7443199771515	0.0499801539408509
80607	50	376	0	0	snow	1479	67	1	stimuli\snow\snow_03s.jpg	2	-1	1	0	snow_03s.jpg	0	0	0	68.794359620515	68.844342212542	0.0499825920269359
80707	50	377	0	0	can_opener	251	68	1	stimuli\can_opener\can_opener_01b.jpg	0	-1	1	0	can_opener_01b.jpg	0	0	0	68.8943730787869	68.9443407984509	0.0499677196639823
80807	50	378	0	0	sunroof	1586	69	1	stimuli\sunroof\sunroof_01b.jpg	0	-1	1	0	sunroof_01b.jpg	0	0	0	68.9943492342572	69.0443445043493	0.0499952700920403
80907	50	379	0	0	unicycle	1746	70	1	stimuli\unicycle\unicycle_01b.jpg	0	-1	1	0	unicycle_01b.jpg	0	0	0	69.0943687877443	69.1443440654984	0.0499752777541289
81007	50	380	0	0	goblet	685	71	1	stimuli\goblet\goblet_11s.jpg	10	-1	1	0	goblet_11s.jpg	0	0	0	69.1943666422303	69.2443367999804	0.0499701577500673
81107	50	381	0	0	rim	1312	72	1	stimuli\rim\rim_03s.jpg	2	-1	1	0	rim_03s.jpg	0	0	0	69.2943549881456	69.3443512334925	0.049996245346847
81207	50	382	0	0	hose	800	73	1	stimuli\hose\hose_06s.jpg	5	-1	1	0	hose_06s.jpg	0	0	0	69.3943762483104	69.4443383603648	0.0499621120543452
81307	50	383	0	0	wrapping_paper	1838	74	1	stimuli\wrapping_paper\wrapping_paper_09s.jpg	8	-1	1	1	wrapping_paper_09s.jpg	0	0	0	69.4943621561397	69.5443398719799	0.0499777158402139
81407	50	384	0	0	shell2	1418	75	1	stimuli\shell2\shell2_05s.jpg	4	-1	1	0	shell2_05s.jpg	0	0	0	69.594379515358	69.6443596692843	0.049980153926299
81507	50	385	0	0	spider	1513	76	1	stimuli\spider\spider_09n.jpg	8	-1	1	0	spider_09n.jpg	0	0	0	69.6943795641128	69.7443665447063	0.0499869805935305
81607	50	386	0	0	stiletto	1554	77	1	stimuli\stiletto\stiletto_08s.jpg	7	-1	1	0	stiletto_08s.jpg	1	0.292211905296426	1	69.7943879023951	69.8443731763109	0.0499852739158086
81707	50	387	0	0	raccoon	1266	78	1	stimuli\raccoon\raccoon_07n.jpg	6	-1	1	0	raccoon_07n.jpg	0	0	0	69.89438843877	69.944371518417	0.0499830796470633
81807	50	388	0	0	vase	1753	79	1	stimuli\vase\vase_02s.jpg	1	-1	1	0	vase_02s.jpg	0	0	0	69.9943765408825	70.0443559633859	0.0499794225033838
81907	50	389	0	0	man	963	80	1	stimuli\man\man_04s.jpg	3	-1	1	0	man_04s.jpg	0	0	0	70.094394387721	70.1443779549736	0.0499835672526387
82007	50	390	0	0	toad	1664	81	1	stimuli\toad\toad_07s.jpg	6	-1	1	0	toad_07s.jpg	0	0	0	70.1943820022134	70.2443794665887	0.0499974643753376
82107	50	391	0	0	silverware	1445	82	1	stimuli\silverware\silverware_02s.jpg	1	-1	1	0	silverware_02s.jpg	0	0	0	70.2943842452514	70.3443819534441	0.0499977081926772
82207	50	392	0	0	mop	1019	83	1	stimuli\mop\mop_08s.jpg	7	-1	1	0	mop_08s.jpg	0	0	0	70.3944035549357	70.4443834650592	0.0499799101235112
82307	50	393	0	0	fireplace	595	84	1	stimuli\fireplace\fireplace_04s.jpg	3	-1	1	0	fireplace_04s.jpg	0	0	0	70.4944053103682	70.5443854642945	0.049980153926299
82407	50	394	0	0	hail	732	85	1	stimuli\hail\hail_10s.jpg	9	-1	1	0	hail_10s.jpg	0	0	0	70.5944092600694	70.6443903892359	0.0499811291665537
82507	50	395	0	0	lipstick	936	86	1	stimuli\lipstick\lipstick_08s.jpg	7	-1	1	0	lipstick_08s.jpg	0	0	0	70.6944095526414	70.7443738589791	0.0499643063376425
82607	50	396	0	0	caviar	289	87	1	stimuli\caviar\caviar_04s.jpg	3	-1	1	0	caviar_04s.jpg	0	0	0	70.7943969233311	70.8443985324702	0.0500016091391444
82707	50	397	0	0	headrest	767	88	1	stimuli\headrest\headrest_01b.jpg	0	-1	1	0	headrest_01b.jpg	0	0	0	70.8944142825494	70.944396630759	0.0499823482095962
82807	50	398	0	0	eggplant	550	89	1	stimuli\eggplant\eggplant_04s.jpg	3	-1	1	0	eggplant_04s.jpg	0	0	0	70.994420914154	71.0443925347645	0.0499716206104495
82907	50	399	0	0	medal	991	90	1	stimuli\medal\medal_10s.jpg	9	-1	1	0	medal_10s.jpg	0	0	0	71.0944173057796	71.1443969720858	0.0499796663061716
83007	50	400	0	0	stuffing	1575	91	1	stimuli\stuffing\stuffing_10s.jpg	9	-1	1	0	stuffing_10s.jpg	0	0	0	71.1944178421545	71.2443982398981	0.0499803977436386
83107	50	401	0	0	mascara	978	92	1	stimuli\mascara\mascara_03s.jpg	2	-1	1	0	mascara_03s.jpg	0	0	0	71.2944237423362	71.3443892677169	0.049965525380685
83207	50	402	0	0	jump_rope	858	93	1	stimuli\jump_rope\jump_rope_09s.jpg	8	-1	1	0	jump_rope_09s.jpg	0	0	0	71.3944293987151	71.4443951678986	0.0499657691834727
83307	50	403	0	0	mistletoe	1007	94	1	stimuli\mistletoe\mistletoe_12s.jpg	11	-1	1	0	mistletoe_12s.jpg	0	0	0	71.4944277408067	71.5444078947476	0.0499801539408509
83407	50	404	0	0	sea_urchin	1393	95	1	stimuli\sea_urchin\sea_urchin_04s.jpg	3	-1	1	0	sea_urchin_04s.jpg	0	0	0	71.5944307152822	71.6443923397164	0.0499616244342178
83507	50	405	0	0	flamethrower	607	96	1	stimuli\flamethrower\flamethrower_08s.jpg	7	-1	1	0	flamethrower_08s.jpg	0	0	0	71.6944307640515	71.7444182322506	0.0499874681991059
83607	50	406	0	0	hovercraft	808	97	1	stimuli\hovercraft\hovercraft_06s.jpg	5	-1	1	0	hovercraft_06s.jpg	0	0	0	71.7944261804369	71.8444056029402	0.0499794225033838
83707	50	407	0	0	stir_fry	1557	98	1	stimuli\stir_fry\stir_fry_06s.jpg	5	-1	1	0	stir_fry_06s.jpg	0	0	0	71.8944423205976	71.9444039450318	0.0499616244342178
83807	50	408	0	0	chest2	320	99	1	stimuli\chest2\chest2_06s.jpg	5	-1	1	0	chest2_06s.jpg	0	0	0	71.9944274970039	72.0444108204538	0.049983323449851
83907	50	409	0	0	tulip	1726	100	1	stimuli\tulip\tulip_07s.jpg	6	-1	1	0	tulip_07s.jpg	0	0	0	72.0944463190681	72.1444047739787	0.0499584549106658
84007	50	410	0	0	poodle	1221	101	1	stimuli\poodle\poodle_11s.jpg	10	-1	1	0	poodle_11s.jpg	0	0	0	72.1944244250044	72.244406773214	0.0499823482095962
84107	50	411	0	0	dumbwaiter	531	102	1	stimuli\dumbwaiter\dumbwaiter_07s.jpg	6	-1	1	0	dumbwaiter_07s.jpg	0	0	0	72.2944295937632	72.3444363228919	0.0500067291286541
84207	50	412	0	0	pasta	1123	103	1	stimuli\pasta\pasta_06s.jpg	5	-1	1	0	pasta_06s.jpg	0	0	0	72.394452072971	72.4444339335605	0.0499818605894689
84307	50	413	0	0	kitten	875	104	1	stimuli\kitten\kitten_04s.jpg	3	-1	1	0	kitten_04s.jpg	0	0	0	72.4944535845862	72.5444366642332	0.0499830796470633
84407	50	414	0	0	shoe_polish	1424	105	1	stimuli\shoe_polish\shoe_polish_12s.jpg	11	-1	1	0	shoe_polish_12s.jpg	0	0	0	72.5944650923775	72.6444401263143	0.0499750339367893
84507	50	415	0	0	screw	1390	106	1	stimuli\screw\screw_11s.jpg	10	-1	1	0	screw_11s.jpg	0	0	0	72.694460996383	72.7444306665275	0.0499696701444918
84607	50	416	0	0	shoulder	1431	107	1	stimuli\shoulder\shoulder_03s.jpg	2	-1	1	0	shoulder_03s.jpg	0	0	0	72.7944864013116	72.8444465628854	0.0499601615738356
84707	50	417	0	0	boulder	172	108	1	stimuli\boulder\boulder_02s.jpg	1	-1	1	0	boulder_02s.jpg	0	0	0	72.8944637758104	72.9444456363999	0.0499818605894689
84807	50	418	0	0	playing_card	1199	109	1	stimuli\playing_card\playing_card_10s.jpg	9	-1	1	0	playing_card_10s.jpg	0	0	0	72.9944667502859	73.0444308128062	0.0499640625203028
84907	50	419	0	0	pincushion	1179	110	1	stimuli\pincushion\pincushion_10s.jpg	9	-1	1	0	pincushion_10s.jpg	0	0	0	73.0944743571308	73.1444613377244	0.0499869805935305
85007	50	420	0	0	tape	1622	111	1	stimuli\tape\tape_12s.jpg	11	-1	1	0	tape_12s.jpg	0	0	0	73.1944726992224	73.2444391998433	0.0499665006209398
85107	50	421	0	0	blower	145	112	1	stimuli\blower\blower_02s.jpg	1	-1	1	0	blower_02s.jpg	0	0	0	73.294454218485	73.3444582657248	0.0500040472397814
85207	50	422	0	0	gutter	729	113	1	stimuli\gutter\gutter_07s.jpg	6	-1	1	0	gutter_07s.jpg	0	0	0	73.3944769415102	73.4444597773399	0.0499828358297236
85307	50	423	0	0	closet	360	114	1	stimuli\closet\closet_11s.jpg	10	-1	1	0	closet_11s.jpg	0	0	0	73.4944830854947	73.5444885955803	0.0500055100856116
85407	50	424	0	0	paperclip	1116	115	1	stimuli\paperclip\paperclip_05s.jpg	4	-1	1	0	paperclip_05s.jpg	0	0	0	73.5944824028265	73.6444503663079	0.0499679634813219
85507	50	425	0	0	chair	300	116	1	stimuli\chair\chair_08s.jpg	7	-1	1	0	chair_08s.jpg	0	0	0	73.6944863525423	73.7444665064686	0.049980153926299
85607	50	426	0	0	jug	853	117	1	stimuli\jug\jug_07s.jpg	6	-1	1	0	jug_07s.jpg	0	0	0	73.7944768927409	73.8444646047574	0.0499877120164456
85707	50	427	0	0	blanket	136	118	1	stimuli\blanket\blanket_08s.jpg	7	-1	1	0	blanket_08s.jpg	0	0	0	73.8944876691094	73.9444631906663	0.0499755215569166
85807	50	428	0	0	bow3	176	119	1	stimuli\bow3\bow3_12s.jpg	11	-1	1	0	bow3_12s.jpg	0	0	0	73.9944860112155	74.0444654337189	0.0499794225033838
85907	50	429	0	0	wooden_leg	1834	120	1	stimuli\wooden_leg\wooden_leg_12s.jpg	11	-1	1	0	wooden_leg_12s.jpg	0	0	0	74.0944892294938	74.1444693834201	0.049980153926299
86007	50	430	0	0	rollerskate	1327	121	1	stimuli\rollerskate\rollerskate_05s.jpg	4	-1	1	0	rollerskate_05s.jpg	0	0	0	74.194490009686	74.2444718702754	0.0499818605894689
86107	50	431	0	0	barrel	76	122	1	stimuli\barrel\barrel_05s.jpg	4	-1	1	0	barrel_05s.jpg	0	0	0	74.2944963974878	74.3444746009336	0.0499782034457894
86207	50	432	0	0	cantaloupe	263	123	1	stimuli\cantaloupe\cantaloupe_04s.jpg	3	-1	1	0	cantaloupe_04s.jpg	0	0	0	74.3944974214828	74.4444768439862	0.0499794225033838
86307	50	433	0	0	flagpole	606	124	1	stimuli\flagpole\flagpole_09s.jpg	8	-1	1	0	flagpole_09s.jpg	0	0	0	74.4944960073917	74.5444822565478	0.0499862491560634
86407	50	434	0	0	horseshoe	799	125	1	stimuli\horseshoe\horseshoe_04n.jpg	3	-1	1	0	horseshoe_04n.jpg	0	0	0	74.5944999570929	74.6444825491199	0.0499825920269359
86507	50	435	0	0	tweezers	1739	126	1	stimuli\tweezers\tweezers_08s.jpg	7	-1	1	0	tweezers_08s.jpg	0	0	0	74.6945022001455	74.7444838169322	0.0499816167866811
86607	50	436	0	0	truck	1720	127	1	stimuli\truck\truck_02s.jpg	1	-1	1	0	truck_02s.jpg	0	0	0	74.7945078565099	74.8444904485368	0.0499825920269359
86707	50	437	0	0	seafood	1394	128	1	stimuli\seafood\seafood_04s.jpg	3	-1	1	0	seafood_04s.jpg	0	0	0	74.894509368125	74.9444902534888	0.049980885363766
86807	50	438	0	0	gingerbread_man	674	129	1	stimuli\gingerbread_man\gingerbread_man_03s.jpg	2	-1	1	0	gingerbread_man_03s.jpg	0	0	0	74.9945111235575	75.0444915213011	0.0499803977436386
86907	50	439	0	0	lasagna	898	130	1	stimuli\lasagna\lasagna_02s.jpg	1	-1	1	0	lasagna_02s.jpg	0	0	0	75.0945167799364	75.1444986405259	0.0499818605894689
87007	50	440	0	0	cleat	353	131	1	stimuli\cleat\cleat_05s.jpg	4	-1	1	0	cleat_05s.jpg	0	0	0	75.1945165848883	75.2444967388146	0.049980153926299
87107	50	441	0	0	oilcan	1073	132	1	stimuli\oilcan\oilcan_09s.jpg	8	-1	1	0	oilcan_09s.jpg	0	0	0	75.2945207784069	75.3445045894769	0.0499838110699784
87207	50	442	0	0	filter	587	133	1	stimuli\filter\filter_02s.jpg	1	-1	1	0	filter_02s.jpg	0	0	0	75.3945232652623	75.4445090267982	0.049985761535936
87307	50	443	0	0	butterfly	229	134	1	stimuli\butterfly\butterfly_04s.jpg	3	-1	1	0	butterfly_04s.jpg	0	0	0	75.4945216073538	75.5445024927176	0.049980885363766
87407	50	444	0	0	chest1	319	135	1	stimuli\chest1\chest1_03s.jpg	2	-1	1	0	chest1_03s.jpg	0	0	0	75.5945272637327	75.6445076614618	0.0499803977290867
87507	50	445	0	0	panties	1107	136	1	stimuli\panties\panties_08s.jpg	7	-1	1	0	panties_08s.jpg	0	0	0	75.6945297505736	75.7445079540339	0.0499782034603413
87607	50	446	0	0	whiteboard	1813	137	1	stimuli\whiteboard\whiteboard_02s.jpg	1	-1	1	0	whiteboard_02s.jpg	0	0	0	75.7945361383754	75.8445187304023	0.0499825920269359
87707	50	447	0	0	shower	1433	138	1	stimuli\shower\shower_05n.jpg	4	-1	1	0	shower_05n.jpg	0	0	0	75.8945349681017	75.9445168286911	0.0499818605894689
87807	50	448	0	0	ginger	673	139	1	stimuli\ginger\ginger_08s.jpg	7	-1	1	0	ginger_08s.jpg	0	0	0	75.9945408682834	76.0445166336431	0.0499757653597044
87907	50	449	0	0	net	1057	140	1	stimuli\net\net_03s.jpg	2	-1	1	0	net_03s.jpg	0	0	0	76.0945387227548	76.1445200957387	0.0499813729838934
88007	50	450	0	0	doorknob	509	141	1	stimuli\doorknob\doorknob_05s.jpg	4	-1	1	0	doorknob_05s.jpg	0	0	0	76.1945429162733	76.2445218511566	0.0499789348832564
88107	50	451	0	0	neck	1053	142	1	stimuli\neck\neck_06s.jpg	5	-1	1	0	neck_06s.jpg	0	0	0	76.2945468659891	76.3445226313488	0.0499757653597044
88207	50	452	0	0	duckling	526	143	1	stimuli\duckling\duckling_06s.jpg	5	-1	1	0	duckling_06s.jpg	0	0	0	76.394545451898	76.4445290191507	0.0499835672526387
88307	50	453	0	0	cilantro	347	144	1	stimuli\cilantro\cilantro_03s.jpg	2	-1	1	0	cilantro_03s.jpg	0	0	0	76.4945501330221	76.5445349193324	0.0499847863102332
88407	50	454	0	0	chicken1	322	145	1	stimuli\chicken1\chicken1_02s.jpg	1	-1	1	0	chicken1_02s.jpg	0	0	0	76.5945557894011	76.6445344804815	0.0499786910804687
88507	50	455	0	0	wing	1827	146	1	stimuli\wing\wing_06s.jpg	5	-1	1	0	wing_06s.jpg	0	0	0	76.6945519372239	76.7445347730536	0.0499828358297236
88607	50	456	0	0	desk	480	147	1	stimuli\desk\desk_06s.jpg	5	-1	1	0	desk_06s.jpg	0	0	0	76.794563688818	76.844537259909	0.049973571090959
88707	50	457	0	0	incubator	827	148	1	stimuli\incubator\incubator_07s.jpg	6	-1	1	0	incubator_07s.jpg	0	0	0	76.8945578861603	76.9445390153269	0.0499811291665537
88807	50	458	0	0	hairbrush	734	149	1	stimuli\hairbrush\hairbrush_02s.jpg	1	-1	1	0	hairbrush_02s.jpg	0	0	0	76.9945642739622	77.0445480850321	0.0499838110699784
88907	50	459	0	0	pill	1174	150	1	stimuli\pill\pill_02s.jpg	1	-1	1	0	pill_02s.jpg	0	0	0	77.0945674922405	77.1445437452348	0.0499762529943837
89007	50	460	0	0	centrifuge	296	151	1	stimuli\centrifuge\centrifuge_07s.jpg	6	-1	1	0	centrifuge_07s.jpg	0	0	0	77.1945670533896	77.2445481825562	0.0499811291665537
89107	50	461	0	0	maggot	955	152	1	stimuli\maggot\maggot_01b.jpg	0	-1	1	0	maggot_01b.jpg	0	0	0	77.2945739288116	77.3445482313109	0.0499743024993222
89207	50	462	0	0	lava	903	153	1	stimuli\lava\lava_05s.jpg	4	-1	1	0	lava_05s.jpg	0	0	0	77.3945761718496	77.4445548629301	0.0499786910804687
89307	50	463	0	0	balloon	60	154	1	stimuli\balloon\balloon_01b.jpg	0	-1	1	0	balloon_01b.jpg	0	0	0	77.4945769520418	77.5445585688285	0.0499816167866811
89407	50	464	0	0	pom-pom	1218	155	1	stimuli\pom-pom\pom-pom_12s.jpg	11	-1	1	0	pom-pom_12s.jpg	0	0	0	77.5945796827	77.6445591052034	0.0499794225033838
89507	50	465	0	0	hoe	784	156	1	stimuli\hoe\hoe_02s.jpg	1	-1	1	0	hoe_02s.jpg	0	0	0	77.6945831447956	77.7445608606358	0.0499777158402139
89607	50	466	0	0	coat	369	157	1	stimuli\coat\coat_08s.jpg	7	-1	1	0	coat_08s.jpg	0	0	0	77.7945907516405	77.8445645665342	0.0499738148937467
89707	50	467	0	0	tank2	1621	158	1	stimuli\tank2\tank2_07s.jpg	6	-1	1	0	tank2_07s.jpg	0	0	0	77.8945861680259	77.9445631524432	0.0499769844172988
89807	50	468	0	0	webcam	1799	159	1	stimuli\webcam\webcam_10s.jpg	9	-1	1	0	webcam_10s.jpg	0	0	0	77.9945891425014	78.044571490711	0.0499823482095962
89907	50	469	0	0	bedpan	109	160	1	stimuli\bedpan\bedpan_10s.jpg	9	-1	1	0	bedpan_10s.jpg	0	0	0	78.0945904103137	78.1445688575768	0.0499784472631291
90007	50	470	0	0	meat_grinder	988	161	1	stimuli\meat_grinder\meat_grinder_02s.jpg	1	-1	1	0	meat_grinder_02s.jpg	0	0	0	78.1945921657316	78.2445708568121	0.0499786910804687
90107	50	471	0	0	exerciser	561	162	1	stimuli\exerciser\exerciser_11s.jpg	10	-1	1	0	exerciser_11s.jpg	0	0	0	78.2945936773467	78.3445762693736	0.0499825920269359
90207	50	472	0	0	ink	829	163	1	stimuli\ink\ink_03s.jpg	2	-1	1	1	ink_03s.jpg	0	0	0	78.3945981146826	78.4445768057485	0.0499786910659168
90307	50	473	0	0	dresser	519	164	1	stimuli\dresser\dresser_12n.jpg	11	-1	1	0	dresser_12n.jpg	0	0	0	78.4946008453408	78.5445795364212	0.0499786910804687
90407	50	474	0	0	tent	1643	165	1	stimuli\tent\tent_10n.jpg	9	-1	1	0	tent_10n.jpg	0	0	0	78.5946065017197	78.64456349377	0.0499569920502836
90507	50	475	0	0	rollerblade	1326	166	1	stimuli\rollerblade\rollerblade_11s.jpg	10	-1	1	0	rollerblade_11s.jpg	1	0.353576242050622	1	78.6945872895449	78.7445630549191	0.0499757653742563
90607	50	476	0	0	manhole	967	167	1	stimuli\manhole\manhole_10s.jpg	9	-1	1	0	manhole_10s.jpg	0	0	0	78.7945878259343	78.8445643227169	0.0499764967826195
90707	50	477	0	0	tostada	1688	168	1	stimuli\tostada\tostada_04s.jpg	3	-1	1	0	tostada_04s.jpg	0	0	0	78.8945842175599	78.9445665657695	0.0499823482095962
90807	50	478	0	0	parrot	1121	169	1	stimuli\parrot\parrot_08s.jpg	7	-1	1	0	parrot_08s.jpg	0	0	0	78.9945864605979	79.0445736849942	0.0499872243963182
90907	50	479	0	0	glass	677	170	1	stimuli\glass\glass_05s.jpg	4	-1	1	0	glass_05s.jpg	0	0	0	79.0945918731595	79.1445725147059	0.0499806415464263
91007	50	480	0	0	salad	1348	171	1	stimuli\salad\salad_07s.jpg	6	-1	1	0	salad_07s.jpg	0	0	0	79.1945943600149	79.2445732948981	0.0499789348832564
91107	50	481	0	0	bookmark	166	172	1	stimuli\bookmark\bookmark_10s.jpg	9	-1	1	0	bookmark_10s.jpg	0	0	0	79.2945931897266	79.3446096712287	0.050016481502098
91207	50	482	0	0	cup	460	173	1	stimuli\cup\cup_12s.jpg	11	-1	1	0	cup_12s.jpg	0	0	0	79.3946305412974	79.4446102076181	0.0499796663207235
91307	50	483	0	0	owl	1091	174	1	stimuli\owl\owl_03s.jpg	2	-1	1	0	owl_03s.jpg	0	0	0	79.4946305900667	79.5446161077998	0.0499855177331483
91407	50	484	0	0	radiator	1272	175	1	stimuli\radiator\radiator_06s.jpg	5	-1	1	0	radiator_06s.jpg	0	0	0	79.5946396597719	79.6446124994254	0.049972839653492
91507	50	485	0	0	coil	384	176	1	stimuli\coil\coil_09s.jpg	8	-1	1	0	coil_09s.jpg	0	0	0	79.694619959977	79.7445991386776	0.0499791787005961
91607	50	486	0	0	icicle	824	177	1	stimuli\icicle\icicle_01b.jpg	0	-1	1	0	icicle_01b.jpg	0	0	0	79.7946424391848	79.844618935982	0.0499764967971714
91707	50	487	0	0	sausage	1365	178	1	stimuli\sausage\sausage_05s.jpg	4	-1	1	0	sausage_05s.jpg	0	0	0	79.8946422441368	79.9446080133348	0.0499657691980246
91807	50	488	0	0	hockey_stick	783	179	1	stimuli\hockey_stick\hockey_stick_11s.jpg	10	-1	1	0	hockey_stick_11s.jpg	0	0	0	79.9946279081632	80.044628054442	0.0500001462787623
91907	50	489	0	0	swimsuit	1597	180	1	stimuli\swimsuit\swimsuit_12s.jpg	11	-1	1	0	swimsuit_12s.jpg	0	0	0	80.0946442921413	80.1446254213079	0.0499811291665537
92007	50	490	0	0	anklet	23	181	1	stimuli\anklet\anklet_03s.jpg	2	-1	1	0	anklet_03s.jpg	0	0	0	80.1946484856599	80.2446105977142	0.0499621120543452
92107	50	491	0	0	freezer	640	182	1	stimuli\freezer\freezer_08s.jpg	7	-1	1	0	freezer_08s.jpg	0	0	0	80.2946492658521	80.3446303950186	0.0499811291665537
92207	50	492	0	0	stew	1551	183	1	stimuli\stew\stew_08s.jpg	7	-1	1	0	stew_08s.jpg	0	0	0	80.3946534593706	80.4446323942539	0.0499789348832564
92307	50	493	0	0	oil	1072	184	1	stimuli\oil\oil_10s.jpg	9	-1	1	0	oil_10s.jpg	0	0	0	80.4946557024086	80.544635124912	0.0499794225033838
92407	50	494	0	0	machine_gun	954	185	1	stimuli\machine_gun\machine_gun_04s.jpg	3	-1	1	0	machine_gun_04s.jpg	0	0	0	80.5946401473775	80.6446373679646	0.0499972205871018
92507	50	495	0	0	root	1331	186	1	stimuli\root\root_06s.jpg	5	-1	1	1	root_06s.jpg	0	0	0	80.6946438532905	80.7446405862429	0.0499967329524225
92607	50	496	0	0	wheelchair	1808	187	1	stimuli\wheelchair\wheelchair_10n.jpg	9	-1	1	0	wheelchair_10n.jpg	0	0	0	80.7946634067775	80.8446272254951	0.0499638187175151
92707	50	497	0	0	brass_knuckles	193	188	1	stimuli\brass_knuckles\brass_knuckles_12s.jpg	11	-1	1	0	brass_knuckles_12s.jpg	0	0	0	80.8946468765207	80.9446297123504	0.0499828358297236
92807	50	498	0	0	arch	35	189	1	stimuli\arch\arch_05s.jpg	4	-1	1	0	arch_05s.jpg	0	0	0	80.9946539957455	81.0446492658521	0.0499952701065922
92907	50	499	0	0	iguana	825	190	1	stimuli\iguana\iguana_01b.jpg	0	-1	1	0	iguana_01b.jpg	1	0.441933914044057	1	81.0946728178096	81.1446498022269	0.0499769844172988
93007	50	500	0	0	cross	443	191	1	stimuli\cross\cross_10s.jpg	9	-1	1	0	cross_10s.jpg	0	0	0	81.194672135156	81.2446379043395	0.0499657691834727
93107	50	501	0	0	piano	1165	192	1	stimuli\piano\piano_04n.jpg	3	-1	1	0	piano_04n.jpg	0	0	0	81.2946765724773	81.3446606273501	0.0499840548727661
93207	50	502	0	0	taco	1613	193	1	stimuli\taco\taco_12n.jpg	11	-1	1	0	taco_12n.jpg	0	0	0	81.3946778402897	81.4446440970933	0.0499662568036001
93307	50	503	0	0	honeypot	790	194	1	stimuli\honeypot\honeypot_01b.jpg	0	-1	1	0	honeypot_01b.jpg	0	0	0	81.4946637481189	81.5446434144251	0.0499796663061716
93407	50	504	0	0	crib	441	195	1	stimuli\crib\crib_09n.jpg	8	-1	1	0	crib_09n.jpg	0	0	0	81.5946696483006	81.6446656498301	0.0499960015295073
93507	50	505	0	0	brush	205	196	1	stimuli\brush\brush_06s.jpg	5	-1	1	0	brush_06s.jpg	0	0	0	81.694673354199	81.7446647233446	0.0499913691455731
93607	50	506	0	0	horse	798	197	1	stimuli\horse\horse_02s.jpg	1	-1	1	0	horse_02s.jpg	0	0	0	81.7946894943598	81.8446633092535	0.0499738148937467
93707	50	507	0	0	table	1608	198	1	stimuli\table\table_01b.jpg	0	-1	1	0	table_01b.jpg	0	0	0	81.8946851545625	81.9446679903922	0.0499828358297236
93807	50	508	0	0	cordon_bleu	408	199	1	stimuli\cordon_bleu\cordon_bleu_10s.jpg	9	-1	1	0	cordon_bleu_10s.jpg	0	0	0	81.9946878852206	82.0446682829643	0.0499803977436386
93907	50	509	0	0	scooter	1382	200	1	stimuli\scooter\scooter_01b.jpg	0	-1	1	0	scooter_01b.jpg	0	0	0	82.0946889092302	82.1446717450599	0.0499828358297236
94007	50	510	0	0	playpen	1200	201	1	stimuli\playpen\playpen_02s.jpg	1	-1	1	0	playpen_02s.jpg	0	0	0	82.1946979789209	82.2446771576215	0.0499791787005961
94107	50	511	0	0	pistachio	1188	202	1	stimuli\pistachio\pistachio_06n.jpg	5	-1	1	0	pistachio_06n.jpg	0	0	0	82.2947029038769	82.3446786692366	0.0499757653597044
94207	50	512	0	0	compass	392	203	1	stimuli\compass\compass_01b.jpg	0	-1	1	0	compass_01b.jpg	0	0	0	82.3946968574019	82.4446799370489	0.0499830796470633
94307	50	513	0	0	waffle_iron	1771	204	1	stimuli\waffle_iron\waffle_iron_12s.jpg	11	-1	1	0	waffle_iron_12s.jpg	0	0	0	82.4946988566371	82.5446843743703	0.0499855177331483
94407	50	514	0	0	pumpkin	1253	205	1	stimuli\pumpkin\pumpkin_04s.jpg	3	-1	1	0	pumpkin_04s.jpg	0	0	0	82.5947057320591	82.6446849107597	0.0499791787005961
94507	50	515	0	0	casserole	282	206	1	stimuli\casserole\casserole_08s.jpg	7	-1	1	0	casserole_08s.jpg	0	0	0	82.6947279674641	82.7446908109414	0.0499628434772603
94607	50	516	0	0	trombone	1716	207	1	stimuli\trombone\trombone_06s.jpg	5	-1	1	0	trombone_06s.jpg	0	0	0	82.7947107057698	82.8446913473163	0.0499806415464263
94707	50	517	0	0	punch1	1254	208	1	stimuli\punch1\punch1_09s.jpg	8	-1	1	0	punch1_09s.jpg	0	0	0	82.8947183126147	82.9446938341716	0.0499755215569166
94807	50	518	0	0	lamb	889	209	1	stimuli\lamb\lamb_11s.jpg	10	-1	1	0	lamb_11s.jpg	0	0	0	82.9947149480431	83.0446953457867	0.0499803977436386
94907	50	519	0	0	meat	987	210	1	stimuli\meat\meat_05s.jpg	4	-1	1	0	meat_05s.jpg	0	0	0	83.0947196291818	83.1446983202623	0.0499786910804687
95007	50	520	0	0	scone	1380	211	1	stimuli\scone\scone_09s.jpg	8	-1	1	0	scone_09s.jpg	0	0	0	83.1947201655566	83.2447017823433	0.0499816167866811
95107	50	521	0	0	napkin_ring	1051	212	1	stimuli\napkin_ring\napkin_ring_11s.jpg	10	-1	1	0	napkin_ring_11s.jpg	0	0	0	83.2947228962294	83.3447025625355	0.0499796663061716
95207	50	522	0	0	petri_dish	1159	213	1	stimuli\petri_dish\petri_dish_01b.jpg	0	-1	1	0	petri_dish_01b.jpg	0	0	0	83.3947280649736	83.4447060246312	0.0499779596575536
95307	50	523	0	0	weed	1802	214	1	stimuli\weed\weed_05s.jpg	4	-1	1	0	weed_05s.jpg	0	0	0	83.4947473746724	83.5447075362463	0.0499601615738356
95407	50	524	0	0	magnet	956	215	1	stimuli\magnet\magnet_12s.jpg	11	-1	1	0	magnet_12s.jpg	0	0	0	83.5947298691754	83.6447100231017	0.049980153926299
95507	50	525	0	0	costume	419	216	1	stimuli\costume\costume_09s.jpg	8	-1	1	0	costume_09s.jpg	0	0	0	83.6947311369731	83.7447129975772	0.0499818606040208
95607	50	526	0	0	blueberry	149	217	1	stimuli\blueberry\blueberry_04n.jpg	3	-1	1	0	blueberry_04n.jpg	0	0	0	83.794738743818	83.8447403529572	0.0500016091391444
95707	50	527	0	0	grits	717	218	1	stimuli\grits\grits_02s.jpg	1	-1	1	0	grits_02s.jpg	0	0	0	83.8947390363901	83.9447211407969	0.0499821044068085
95807	50	528	0	0	air_pump	6	219	1	stimuli\air_pump\air_pump_08s.jpg	7	-1	1	0	air_pump_08s.jpg	0	0	0	83.9947385975393	84.044721433369	0.0499828358297236
95907	50	529	0	0	melon	994	220	1	stimuli\melon\melon_01b.jpg	0	-1	1	0	melon_01b.jpg	0	0	0	84.0947415720148	84.1447227011813	0.0499811291665537
96007	50	530	0	0	scaffolding	1370	221	1	stimuli\scaffolding\scaffolding_11s.jpg	10	-1	1	0	scaffolding_11s.jpg	0	0	0	84.1947452779132	84.2447244565992	0.0499791786860442
96107	50	531	0	0	bison	134	222	1	stimuli\bison\bison_10s.jpg	9	-1	1	1	bison_10s.jpg	0	0	0	84.2947492276144	84.3447313320212	0.0499821044068085
96207	50	532	0	0	stamp2	1536	223	1	stimuli\stamp2\stamp2_04s.jpg	3	-1	1	0	stamp2_04s.jpg	0	0	0	84.3947522020899	84.4447318684106	0.0499796663207235
96307	50	533	0	0	megaphone	993	224	1	stimuli\megaphone\megaphone_03s.jpg	2	-1	1	0	megaphone_03s.jpg	0	0	0	84.4947544451425	84.5447336238285	0.0499791786860442
96407	50	534	0	0	smoke_alarm	1473	225	1	stimuli\smoke_alarm\smoke_alarm_12s.jpg	11	-1	1	0	smoke_alarm_12s.jpg	1	0.341906071043923	1	84.5947559567576	84.6447356230638	0.0499796663061716
96507	50	535	0	0	lock	940	226	1	stimuli\lock\lock_12s.jpg	11	-1	1	0	lock_12s.jpg	0	0	0	84.6947579559928	84.7447498127585	0.0499918567657005
96607	50	536	0	0	egg	546	227	1	stimuli\egg\egg_10s.jpg	9	-1	1	0	egg_10s.jpg	0	0	0	84.7947601990309	84.8447432786779	0.0499830796470633
96707	50	537	0	0	mousetrap	1029	228	1	stimuli\mousetrap\mousetrap_10n.jpg	9	-1	1	0	mousetrap_10n.jpg	0	0	0	84.8947641487466	84.9447438150528	0.0499796663061716
96807	50	538	0	0	locket	942	229	1	stimuli\locket\locket_10s.jpg	9	-1	1	0	locket_10s.jpg	0	0	0	84.9947503003787	85.0447514218977	0.050001121519017
96907	50	539	0	0	window	1818	230	1	stimuli\window\window_05s.jpg	4	-1	1	0	window_05s.jpg	0	0	0	85.0947696100629	85.144746838283	0.0499772282200865
97007	50	540	0	0	bonnet	163	231	1	stimuli\bonnet\bonnet_09s.jpg	8	-1	1	0	bonnet_09s.jpg	0	0	0	85.1947718531155	85.2447398165823	0.04996796346677
97107	50	541	0	0	soy_sauce	1500	232	1	stimuli\soy_sauce\soy_sauce_05s.jpg	4	-1	1	0	soy_sauce_05s.jpg	0	0	0	85.2947775094799	85.3447564443777	0.0499789348978084
97207	50	542	0	0	gravy	711	233	1	stimuli\gravy\gravy_06s.jpg	5	-1	1	0	gravy_06s.jpg	0	0	0	85.3947741449228	85.4447567369352	0.049982592012384
97307	50	543	0	0	rooster	1330	234	1	stimuli\rooster\rooster_09s.jpg	8	-1	1	0	rooster_09s.jpg	0	0	0	85.4947495689557	85.5447626371315	0.0500130681757582
97407	50	544	0	0	inhaler	828	235	1	stimuli\inhaler\inhaler_03s.jpg	2	-1	1	0	inhaler_03s.jpg	0	0	0	85.5947825319599	85.6447621982661	0.0499796663061716
97507	50	545	0	0	drum	522	236	1	stimuli\drum\drum_07s.jpg	6	-1	1	0	drum_07s.jpg	0	0	0	85.694782824532	85.7447629784583	0.049980153926299
97607	50	546	0	0	raisin	1280	237	1	stimuli\raisin\raisin_08s.jpg	7	-1	1	0	raisin_08s.jpg	0	0	0	85.7947877494735	85.8447705853032	0.0499828358297236
97707	50	547	0	0	carriage	276	238	1	stimuli\carriage\carriage_03s.jpg	2	-1	1	0	carriage_03s.jpg	0	0	0	85.8947858477623	85.9447728283558	0.0499869805935305
97807	50	548	0	0	bedpost	110	239	1	stimuli\bedpost\bedpost_11s.jpg	10	-1	1	0	bedpost_11s.jpg	0	0	0	85.9947922355641	86.0447743399709	0.0499821044068085
97907	50	549	0	0	chinchilla	332	240	1	stimuli\chinchilla\chinchilla_10s.jpg	9	-1	1	0	chinchilla_10s.jpg	0	0	0	86.0947995986062	86.1447719506396	0.0499723520333646
98007	50	550	0	0	moss	1022	241	1	stimuli\moss\moss_04s.jpg	3	-1	1	0	moss_04s.jpg	0	0	0	86.194798915938	86.2447746812977	0.0499757653597044
98107	50	551	0	0	hippopotamus	781	242	1	stimuli\hippopotamus\hippopotamus_05s.jpg	4	-1	1	0	hippopotamus_05s.jpg	0	0	0	86.2947967704094	86.3447803376766	0.0499835672671907
98207	50	552	0	0	satellite_dish	1361	243	1	stimuli\satellite_dish\satellite_dish_10s.jpg	9	-1	1	0	satellite_dish_10s.jpg	0	0	0	86.3948002325051	86.4447818492918	0.0499816167866811
98307	50	553	0	0	fishing_pole	603	244	1	stimuli\fishing_pole\fishing_pole_04s.jpg	3	-1	1	0	fishing_pole_04s.jpg	0	0	0	86.4948034507834	86.5447879932763	0.0499845424928935
98407	50	554	0	0	shark	1409	245	1	stimuli\shark\shark_07s.jpg	6	-1	1	0	shark_07s.jpg	0	0	0	86.5948083757248	86.6447858477623	0.0499774720374262
98507	50	555	0	0	anchor	21	246	1	stimuli\anchor\anchor_02s.jpg	1	-1	1	0	anchor_02s.jpg	0	0	0	86.694809155917	86.7447861403343	0.0499769844172988
98607	50	556	0	0	ferret	578	247	1	stimuli\ferret\ferret_12s.jpg	11	-1	1	0	ferret_12s.jpg	0	0	0	86.7948109113495	86.8447964290826	0.0499855177331483
98707	50	557	0	0	vending_machine	1757	248	1	stimuli\vending_machine\vending_machine_08s.jpg	7	-1	1	0	vending_machine_08s.jpg	0	0	0	86.8948148610507	86.9447916016506	0.0499767405999592
98807	50	558	0	0	magnifier	957	249	1	stimuli\magnifier\magnifier_10s.jpg	9	-1	1	0	magnifier_10s.jpg	0	0	0	86.9948227117129	87.0447950637463	0.0499723520333646
98907	50	559	0	0	toaster_oven	1667	250	1	stimuli\toaster_oven\toaster_oven_11s.jpg	10	-1	1	0	toaster_oven_11s.jpg	0	0	0	87.0948193471413	87.144799013462	0.0499796663207235
99007	50	560	0	0	springboard	1522	251	1	stimuli\springboard\springboard_07s.jpg	6	-1	1	0	springboard_07s.jpg	0	0	0	87.1948218339967	87.2448044260236	0.0499825920269359
99107	50	561	0	0	bank	69	252	1	stimuli\bank\bank_03s.jpg	2	-1	1	0	bank_03s.jpg	0	0	0	87.294821882766	87.3448037433554	0.0499818605894689
99207	50	562	0	0	pallet	1101	253	1	stimuli\pallet\pallet_11s.jpg	10	-1	1	0	pallet_11s.jpg	0	0	0	87.3948499695834	87.4448067178309	0.0499567482474959
99307	50	563	0	0	saw	1366	254	1	stimuli\saw\saw_02s.jpg	1	-1	1	0	saw_02s.jpg	0	0	0	87.4948290507455	87.5448113989696	0.0499823482241482
99407	50	564	0	0	periscope	1155	255	1	stimuli\periscope\periscope_10s.jpg	9	-1	1	0	periscope_10s.jpg	0	0	0	87.594832025221	87.6448126667674	0.0499806415464263
99507	50	565	0	0	leaf	906	256	1	stimuli\leaf\leaf_10s.jpg	9	-1	1	0	leaf_10s.jpg	0	0	0	87.694833049216	87.7448166164831	0.0499835672671907
99607	50	566	0	0	corset	418	257	1	stimuli\corset\corset_11s.jpg	10	-1	1	0	corset_11s.jpg	0	0	0	87.7948408998782	87.8448173966754	0.0499764967971714
99707	50	567	0	0	spool	1518	258	1	stimuli\spool\spool_03s.jpg	2	-1	1	0	spool_03s.jpg	0	0	0	87.894838998167	87.9448203711363	0.0499813729693415
99807	50	568	0	0	wafer	1769	259	1	stimuli\wafer\wafer_08s.jpg	7	-1	1	0	wafer_08s.jpg	0	0	0	87.9948419726425	88.0448243208521	0.0499823482095962
99907	50	569	0	0	cardigan	273	260	1	stimuli\cardigan\cardigan_05s.jpg	4	-1	1	0	cardigan_05s.jpg	0	0	0	88.0948449471034	88.1448270515102	0.0499821044068085
100007	50	570	0	0	meatloaf	990	261	1	stimuli\meatloaf\meatloaf_05s.jpg	4	-1	1	0	meatloaf_05s.jpg	0	0	0	88.1948518225254	88.2448295383656	0.0499777158402139
100107	50	571	0	0	palm_tree	1102	262	1	stimuli\palm_tree\palm_tree_05s.jpg	4	-1	1	0	palm_tree_05s.jpg	0	0	0	88.294849433194	88.3448325128411	0.0499830796470633
100207	50	572	0	0	flower	619	263	1	stimuli\flower\flower_01b.jpg	0	-1	1	0	flower_01b.jpg	0	0	0	88.3948509448091	88.4448349996965	0.0499840548873181
100307	50	573	0	0	bolo_tie	157	264	1	stimuli\bolo_tie\bolo_tie_12s.jpg	11	-1	1	0	bolo_tie_12s.jpg	0	0	0	88.494854163102	88.5448357798887	0.0499816167866811
100407	50	574	0	0	duct_tape	528	265	1	stimuli\duct_tape\duct_tape_06s.jpg	5	-1	1	0	duct_tape_06s.jpg	0	0	0	88.5948595756636	88.6448372915038	0.0499777158402139
100507	50	575	0	0	french_fries	641	266	1	stimuli\french_fries\french_fries_01b.jpg	0	-1	1	0	french_fries_01b.jpg	0	0	0	88.6948610872787	88.7448458735889	0.0499847863102332
100607	50	576	0	0	flypaper	622	267	1	stimuli\flypaper\flypaper_11s.jpg	10	-1	1	0	flypaper_11s.jpg	0	0	0	88.7948645493743	88.8448449471034	0.0499803977290867
100707	50	577	0	0	goalpost	683	268	1	stimuli\goalpost\goalpost_09s.jpg	8	-1	1	0	goalpost_09s.jpg	0	0	0	88.8948631352687	88.9448425577866	0.0499794225179357
100807	50	578	0	0	frame	639	269	1	stimuli\frame\frame_08s.jpg	7	-1	1	0	frame_08s.jpg	0	0	0	88.9948685478448	89.0448465074878	0.0499779596430017
100907	50	579	0	0	scrambled_egg	1386	270	1	stimuli\scrambled_egg\scrambled_egg_03s.jpg	2	-1	1	0	scrambled_egg_03s.jpg	0	0	0	89.0948720099259	89.1448558209959	0.0499838110699784
101007	50	580	0	0	tape_recorder	1624	271	1	stimuli\tape_recorder\tape_recorder_01b.jpg	0	-1	1	0	tape_recorder_01b.jpg	0	0	0	89.1948742529785	89.2448544069048	0.049980153926299
101107	50	581	0	0	braid	190	272	1	stimuli\braid\braid_11s.jpg	10	-1	1	0	braid_11s.jpg	0	0	0	89.2948779588769	89.3448581128032	0.049980153926299
101207	50	582	0	0	music_box	1041	273	1	stimuli\music_box\music_box_07s.jpg	6	-1	1	0	music_box_07s.jpg	0	0	0	89.3948780076316	89.4448579177551	0.0499799101235112
101307	50	583	0	0	traffic_light	1696	274	1	stimuli\traffic_light\traffic_light_09s.jpg	8	-1	1	0	traffic_light_09s.jpg	0	0	0	89.4948822011502	89.5448616236536	0.0499794225033838
101407	50	584	0	0	hot-air_balloon	801	275	1	stimuli\hot-air_balloon\hot-air_balloon_02s.jpg	1	-1	1	0	hot-air_balloon_02s.jpg	0	0	0	89.5948800556362	89.6448604533798	0.0499803977436386
101507	50	585	0	0	sifter	1443	276	1	stimuli\sifter\sifter_05s.jpg	4	-1	1	0	sifter_05s.jpg	0	0	0	89.6948842491547	89.7448663535615	0.0499821044068085
101607	50	586	0	0	walker1	1773	277	1	stimuli\walker1\walker1_02s.jpg	1	-1	1	0	walker1_02s.jpg	0	0	0	89.7948906369566	89.8448698156426	0.0499791786860442
101707	50	587	0	0	chaps	306	278	1	stimuli\chaps\chaps_09s.jpg	8	-1	1	0	chaps_09s.jpg	0	0	0	89.8948921485717	89.9448710834549	0.0499789348832564
101807	50	588	0	0	mud	1033	279	1	stimuli\mud\mud_05s.jpg	4	-1	1	0	mud_05s.jpg	0	0	0	89.9948926849465	90.0448718636471	0.0499791787005961
101907	50	589	0	0	boxer_shorts	182	280	1	stimuli\boxer_shorts\boxer_shorts_07s.jpg	6	-1	1	0	boxer_shorts_07s.jpg	0	0	0	90.0948951718019	90.1448787390691	0.0499835672671907
102007	50	590	0	0	football_helmet	630	281	1	stimuli\football_helmet\football_helmet_12s.jpg	11	-1	1	0	football_helmet_12s.jpg	0	0	0	90.1949003405607	90.2448783002037	0.0499779596430017
102107	50	591	0	0	toothbrush	1679	282	1	stimuli\toothbrush\toothbrush_04s.jpg	3	-1	1	0	toothbrush_04s.jpg	0	0	0	90.2949062407424	90.3448827375396	0.0499764967971714
102207	50	592	0	0	defibrillator	477	283	1	stimuli\defibrillator\defibrillator_10s.jpg	9	-1	1	0	defibrillator_10s.jpg	0	0	0	90.3949028761708	90.4448859558179	0.0499830796470633
102307	50	593	0	0	lizard	937	284	1	stimuli\lizard\lizard_06n.jpg	5	-1	1	0	lizard_06n.jpg	0	0	0	90.4949087763525	90.5448864921927	0.0499777158402139
102407	50	594	0	0	pepper1	1149	285	1	stimuli\pepper1\pepper1_04s.jpg	3	-1	1	0	pepper1_04s.jpg	0	0	0	90.5949068746413	90.6448887352453	0.0499818606040208
102507	50	595	0	0	dashboard	475	286	1	stimuli\dashboard\dashboard_10s.jpg	9	-1	1	0	dashboard_10s.jpg	0	0	0	90.6949098491168	90.744893416384	0.0499835672671907
102607	50	596	0	0	octopus	1070	287	1	stimuli\octopus\octopus_12s.jpg	11	-1	1	0	octopus_12s.jpg	0	0	0	90.7949145302555	90.8448744480265	0.0499599177710479
102707	50	597	0	0	eyepiece	568	288	1	stimuli\eyepiece\eyepiece_10s.jpg	9	-1	1	0	eyepiece_10s.jpg	0	0	0	90.8948870285822	90.9448684015515	0.0499813729693415
102807	50	598	0	0	bin	125	289	1	stimuli\bin\bin_06s.jpg	5	-1	1	0	bin_06s.jpg	0	0	0	90.99489536685	91.0448728388874	0.0499774720374262
102907	50	599	0	0	shaving_cream	1410	290	1	stimuli\shaving_cream\shaving_cream_11s.jpg	10	-1	1	1	shaving_cream_11s.jpg	0	0	0	91.0948966346623	91.1448716685991	0.0499750339367893
103007	50	600	0	0	router	1336	291	1	stimuli\router\router_08s.jpg	7	-1	1	0	router_08s.jpg	0	0	0	91.1948959519941	91.2448763497378	0.0499803977436386
103107	50	601	0	0	helmet	776	292	1	stimuli\helmet\helmet_09s.jpg	8	-1	1	0	helmet_09s.jpg	0	0	0	91.2949342788052	91.3449124822509	0.0499782034457894
103207	50	602	0	0	handcuff	746	293	1	stimuli\handcuff\handcuff_12s.jpg	11	-1	1	0	handcuff_12s.jpg	1	0.353275869128993	1	91.3949309142336	91.4449144814862	0.0499835672526387
103307	50	603	0	0	cream_cheese	437	294	1	stimuli\cream_cheese\cream_cheese_07s.jpg	6	-1	1	0	cream_cheese_07s.jpg	0	0	0	91.4949341325118	91.5449133112124	0.0499791787005961
103407	50	604	0	0	wick	1815	295	1	stimuli\wick\wick_08s.jpg	7	-1	1	0	wick_08s.jpg	0	0	0	91.5949366193672	91.6449001942674	0.0499635749001754
103507	50	605	0	0	shredder	1437	296	1	stimuli\shredder\shredder_01b.jpg	0	-1	1	0	shredder_01b.jpg	0	0	0	91.6949371557421	91.7449039001804	0.0499667444382794
103607	50	606	0	0	bologna	158	297	1	stimuli\bologna\bologna_09s.jpg	8	-1	1	0	bologna_09s.jpg	0	0	0	91.7949457378272	91.8449058994156	0.0499601615883876
103707	50	607	0	0	rock	1319	298	1	stimuli\rock\rock_02s.jpg	1	-1	1	0	rock_02s.jpg	0	0	0	91.8949440799333	91.9449247214798	0.0499806415464263
103807	50	608	0	0	skull	1458	299	1	stimuli\skull\skull_09s.jpg	8	-1	1	0	skull_09s.jpg	0	0	0	91.9949468105915	92.0449296464212	0.0499828358297236
103907	50	609	0	0	trailer	1697	300	1	stimuli\trailer\trailer_12s.jpg	11	-1	1	0	trailer_12s.jpg	0	0	0	92.094934912704	92.1449309142336	0.0499960015295073
104007	50	610	0	0	uniform	1747	301	1	stimuli\uniform\uniform_03s.jpg	2	-1	1	0	uniform_03s.jpg	0	0	0	92.1949554414314	92.2449351077521	0.0499796663207235
104107	50	611	0	0	sledgehammer	1461	302	1	stimuli\sledgehammer\sledgehammer_08s.jpg	7	-1	1	0	sledgehammer_08s.jpg	0	0	0	92.294958903527	92.3449390574533	0.049980153926299
104207	50	612	0	0	lawnmower	905	303	1	stimuli\lawnmower\lawnmower_05n.jpg	4	-1	1	0	lawnmower_05n.jpg	0	0	0	92.3949557827727	92.4449364243192	0.0499806415464263
104307	50	613	0	0	firewood	597	304	1	stimuli\firewood\firewood_07s.jpg	6	-1	1	0	firewood_07s.jpg	0	0	0	92.4949594886712	92.5449403740349	0.049980885363766
104407	50	614	0	0	seaplane	1398	305	1	stimuli\seaplane\seaplane_01b.jpg	0	-1	1	0	seaplane_01b.jpg	0	0	0	92.594965876473	92.6449409104098	0.0499750339367893
104507	50	615	0	0	cardinal	274	306	1	stimuli\cardinal\cardinal_02s.jpg	1	-1	1	0	cardinal_02s.jpg	0	0	0	92.6949647061847	92.7449336448917	0.0499689387070248
104607	50	616	0	0	sand	1351	307	1	stimuli\sand\sand_01b.jpg	0	-1	1	0	sand_01b.jpg	0	0	0	92.7949706063664	92.8449495412497	0.0499789348832564
104707	50	617	0	0	croissant	442	308	1	stimuli\croissant\croissant_10s.jpg	9	-1	1	0	croissant_10s.jpg	0	0	0	92.8949687046552	92.9449571481091	0.0499884434539126
108458	50	618	0	0	treasure	1707	0	2	stimuli\treasure\treasure_11s.jpg	10	-1	2	0	treasure_11s.jpg	0	0	0	96.6450669597689	96.6950578412943	0.0499908815254457
108558	50	619	0	0	gearshift	668	1	2	stimuli\gearshift\gearshift_05s.jpg	4	-1	2	0	gearshift_05s.jpg	0	0	0	96.7450655456778	96.7950435053208	0.0499779596430017
108658	50	620	0	0	chickpea	325	2	2	stimuli\chickpea\chickpea_05s.jpg	4	-1	2	0	chickpea_05s.jpg	0	0	0	96.8450658382353	96.8950511121657	0.0499852739303606
108758	50	621	0	0	broom	203	3	2	stimuli\broom\broom_04s.jpg	3	-1	2	0	broom_04s.jpg	0	0	0	96.9450493079785	96.9950538428238	0.0500045348453568
108858	50	622	0	0	dip	487	4	2	stimuli\dip\dip_12s.jpg	11	-1	2	0	dip_12s.jpg	0	0	0	97.0450737376668	97.095053403973	0.0499796663061716
108958	50	623	0	0	mailbox	960	5	2	stimuli\mailbox\mailbox_10s.jpg	9	-1	2	0	mailbox_10s.jpg	0	0	0	97.1450759807049	97.1950341918127	0.049958211107878
109058	50	624	0	0	column	388	6	2	stimuli\column\column_07s.jpg	6	-1	2	0	column_07s.jpg	0	0	0	97.2450765170797	97.2950634976733	0.0499869805935305
109158	50	625	0	0	headlight	765	7	2	stimuli\headlight\headlight_06s.jpg	5	-1	2	0	headlight_06s.jpg	0	0	0	97.3450802229781	97.3950589140586	0.0499786910804687
109258	50	626	0	0	coffee_filter	379	8	2	stimuli\coffee_filter\coffee_filter_07s.jpg	6	-1	2	0	coffee_filter_07s.jpg	0	0	0	97.4450819784106	97.4950653018604	0.049983323449851
109358	50	627	0	0	puffin	1248	9	2	stimuli\puffin\puffin_05s.jpg	4	-1	2	0	puffin_05s.jpg	0	0	0	97.5450854405062	97.5953920549509	0.0503066144447075
109458	50	628	0	0	tab	1607	10	2	stimuli\tab\tab_05s.jpg	4	-1	2	0	tab_05s.jpg	0	0	0	97.6450881711644	97.6950722260372	0.0499840548727661
109558	50	629	0	0	carrot	277	11	2	stimuli\carrot\carrot_02s.jpg	1	-1	2	0	carrot_02s.jpg	0	0	0	97.7450889513566	97.7950727624266	0.0499838110699784
109658	50	630	0	0	turf	1732	12	2	stimuli\turf\turf_12s.jpg	11	-1	2	0	turf_12s.jpg	0	0	0	97.8450943639182	97.8950740302244	0.0499796663061716
109758	50	631	0	0	ski_pole	1455	13	2	stimuli\ski_pole\ski_pole_07s.jpg	6	-1	2	0	ski_pole_07s.jpg	0	0	0	97.9451009955228	97.9950606694911	0.0499596739682602
109858	50	632	0	0	payphone	1127	14	2	stimuli\payphone\payphone_02s.jpg	1	-1	2	1	payphone_02s.jpg	0	0	0	98.0450910481159	98.0950663258554	0.049975277739577
109958	50	633	0	0	hedgehog	774	15	2	stimuli\hedgehog\hedgehog_09s.jpg	8	-1	2	0	hedgehog_09s.jpg	0	0	0	98.1450876835443	98.195091730784	0.0500040472397814
110058	50	634	0	0	ice_cube	819	16	2	stimuli\ice_cube\ice_cube_12s.jpg	11	-1	2	0	ice_cube_12s.jpg	0	0	0	98.2451101627521	98.2950873909722	0.0499772282200865
110158	50	635	0	0	granite	700	17	2	stimuli\granite\granite_11s.jpg	10	-1	2	0	granite_11s.jpg	0	0	0	98.3450902191544	98.3950718359411	0.0499816167866811
110258	50	636	0	0	feather	574	18	2	stimuli\feather\feather_01b.jpg	0	-1	2	0	feather_01b.jpg	1	0.392292167278356	1	98.4451195250294	98.4950943151489	0.0499747901194496
110358	50	637	0	0	roadsweeper	1316	19	2	stimuli\roadsweeper\roadsweeper_04s.jpg	3	-1	2	0	roadsweeper_04s.jpg	0	0	0	98.5451117718912	98.5950799791754	0.0499682072841097
110458	50	638	0	0	pita	1189	20	2	stimuli\pita\pita_04s.jpg	3	-1	2	0	pita_04s.jpg	0	0	0	98.6451003616239	98.6950983136339	0.0499979520100169
110558	50	639	0	0	garbage_truck	656	21	2	stimuli\garbage_truck\garbage_truck_05s.jpg	4	-1	2	0	garbage_truck_05s.jpg	0	0	0	98.7451204027457	98.7951012880949	0.0499808853492141
110658	50	640	0	0	walnut	1778	22	2	stimuli\walnut\walnut_08n.jpg	7	-1	2	0	walnut_08n.jpg	0	0	0	98.8451197200775	98.8951025559072	0.0499828358297236
110758	50	641	0	0	wreath	1839	23	2	stimuli\wreath\wreath_05s.jpg	4	-1	2	0	wreath_05s.jpg	0	0	0	98.9451295212057	98.9951060180028	0.0499764967971714
110858	50	642	0	0	oven	1089	24	2	stimuli\oven\oven_07s.jpg	6	-1	2	0	oven_07s.jpg	0	0	0	99.045130789018	99.0950921696349	0.0499613806168782
110958	50	643	0	0	blowtorch	148	25	2	stimuli\blowtorch\blowtorch_03s.jpg	2	-1	2	0	blowtorch_03s.jpg	0	0	0	99.145131813013	99.1951124545594	0.0499806415464263
111058	50	644	0	0	hard_disk	752	26	2	stimuli\hard_disk\hard_disk_11s.jpg	10	-1	2	0	hard_disk_11s.jpg	0	0	0	99.2451347874885	99.2951156728377	0.0499808853492141
111158	50	645	0	0	ratchet	1286	27	2	stimuli\ratchet\ratchet_09s.jpg	8	-1	2	0	ratchet_09s.jpg	0	0	0	99.3451250838698	99.3951091387571	0.0499840548873181
111258	50	646	0	0	wire	1828	28	2	stimuli\wire\wire_02s.jpg	1	-1	2	0	wire_02s.jpg	0	0	0	99.4451268393022	99.4951089437091	0.0499821044068085
111358	50	647	0	0	ski_lift	1454	29	2	stimuli\ski_lift\ski_lift_12s.jpg	11	-1	2	0	ski_lift_12s.jpg	0	0	0	99.5451278632972	99.595109967704	0.0499821044068085
111458	50	648	0	0	clipper2	357	30	2	stimuli\clipper2\clipper2_05s.jpg	4	-1	2	0	clipper2_05s.jpg	0	0	0	99.6451332758588	99.6951165993232	0.0499833234644029
111558	50	649	0	0	raincoat	1279	31	2	stimuli\raincoat\raincoat_01s.jpg	0	-1	2	0	raincoat_01s.jpg	0	0	0	99.7451338122482	99.7951168918808	0.0499830796325114
111658	50	650	0	0	violin	1764	32	2	stimuli\violin\violin_10n.jpg	9	-1	2	0	violin_10n.jpg	0	0	0	99.8451428819535	99.8951171844528	0.0499743024993222
111758	50	651	0	0	laundry_basket	902	33	2	stimuli\laundry_basket\laundry_basket_01b.jpg	0	-1	2	0	laundry_basket_01b.jpg	0	0	0	99.9451539021247	99.9951323493879	0.0499784472631291
111858	50	652	0	0	marmalade	976	34	2	stimuli\marmalade\marmalade_03s.jpg	2	-1	2	0	marmalade_03s.jpg	0	0	0	100.045147124227	100.095121914361	0.0499747901340015
111958	50	653	0	0	stove2	1564	35	2	stimuli\stove2\stove2_07s.jpg	6	-1	2	0	stove2_07s.jpg	0	0	0	100.145143028232	100.195128545965	0.0499855177331483
112058	50	654	0	0	coffee_table	381	36	2	stimuli\coffee_table\coffee_table_02s.jpg	1	-1	2	0	coffee_table_02s.jpg	0	0	0	100.245147709371	100.295132251864	0.0499845424928935
