onset	duration	eventnumber	blocksequencenumber	isteststim	object	objectnumber	presentationnumber	sequencenumber	stim	stimnumber	teststimnumber	withinsequencenumber	istarget	stimname	response	rt	correct	time_stimon	time_stimoff	stimdur
137199	50	0	0	0	bologna	158	0	0	stimuli\bologna\bologna_05s.jpg	4	-1	0	0	bologna_05s.jpg	0	0	0	123.008253932639	123.058210290677	0.049956358037889
137299	50	1	0	0	cream_cheese	437	1	0	stimuli\cream_cheese\cream_cheese_08s.jpg	7	-1	0	0	cream_cheese_08s.jpg	0	0	0	123.108236622124	123.158213216404	0.0499765942804515
137399	50	2	0	0	centrifuge	296	2	0	stimuli\centrifuge\centrifuge_01b.jpg	0	-1	0	0	centrifuge_01b.jpg	0	0	0	123.208229795448	123.258215654525	0.0499858590774238
137499	50	3	0	0	flute	620	3	0	stimuli\flute\flute_06s.jpg	5	-1	0	0	flute_06s.jpg	0	0	0	123.308243936452	123.358236134518	0.0499921980663203
137599	50	4	0	0	shorts	1430	4	0	stimuli\shorts\shorts_08s.jpg	7	-1	0	0	shorts_08s.jpg	0	0	0	123.408242961217	123.458218580228	0.0499756190110929
137699	50	5	0	0	xylophone	1843	5	0	stimuli\xylophone\xylophone_02s.jpg	1	-1	0	0	xylophone_02s.jpg	0	0	0	123.508245886886	123.558819571044	0.050573684158735
137799	50	6	0	0	dip	487	6	0	stimuli\dip\dip_10s.jpg	9	-1	0	0	dip_10s.jpg	0	0	0	123.60826197837	123.658251250745	0.0499892723746598
137899	50	7	0	0	mongoose	1016	7	0	stimuli\mongoose\mongoose_09s.jpg	8	-1	0	0	mongoose_09s.jpg	0	0	0	123.708251982171	123.758233696397	0.0499817142263055
137999	50	8	0	0	backpack	49	8	0	stimuli\backpack\backpack_12s.jpg	11	-1	0	0	backpack_12s.jpg	0	0	0	123.808272218332	123.858237109787	0.0499648914556019
138099	50	9	0	0	snack	1475	9	0	stimuli\snack\snack_11s.jpg	10	-1	0	0	snack_11s.jpg	0	0	0	123.908277825976	123.958254176425	0.04997635044856
138199	50	10	0	0	baseball	78	10	0	stimuli\baseball\baseball_06s.jpg	5	-1	0	0	baseball_06s.jpg	0	0	0	124.008273193613	124.058255883108	0.0499826894956641
138299	50	11	0	0	brush	205	11	0	stimuli\brush\brush_10s.jpg	9	-1	0	0	brush_10s.jpg	0	0	0	124.108262222144	124.158279532625	0.0500173104810528
138399	50	12	0	0	gavel	665	12	0	stimuli\gavel\gavel_03s.jpg	2	-1	0	0	gavel_03s.jpg	0	0	0	124.208284165012	124.258261978335	0.049977813323494
138499	50	13	0	0	mussel	1042	13	0	stimuli\mussel\mussel_09s.jpg	8	-1	0	0	mussel_09s.jpg	0	0	0	124.308287578344	124.358245155483	0.0499575771391392
138599	50	14	0	0	girl	676	14	0	stimuli\girl\girl_08s.jpg	7	-1	0	0	girl_08s.jpg	0	0	0	124.408265635488	124.458249056421	0.0499834209331311
138700	50	15	0	0	tulip	1726	15	0	stimuli\tulip\tulip_07s.jpg	6	-1	0	0	tulip_07s.jpg	0	0	0	124.508296355489	124.558270755515	0.0499744000262581
138799	50	16	0	0	bell	116	16	0	stimuli\bell\bell_04s.jpg	3	-1	0	0	bell_04s.jpg	0	0	0	124.608289772645	124.658235403069	0.0499456304241903
138899	50	17	0	0	octopus	1070	17	0	stimuli\octopus\octopus_11n.jpg	10	-1	0	0	octopus_11n.jpg	0	0	0	124.708297574543	124.75827953266	0.0499819581164047
138999	50	18	0	0	sheep	1414	18	0	stimuli\sheep\sheep_03s.jpg	2	-1	0	0	sheep_03s.jpg	0	0	0	124.80829489266	124.858274412632	0.049979519972112
139099	50	19	0	0	wheat	1805	19	0	stimuli\wheat\wheat_12s.jpg	11	-1	0	0	wheat_12s.jpg	0	0	0	124.908288309816	124.958277582191	0.0499892723746598
139200	50	20	0	0	mailbox	960	20	0	stimuli\mailbox\mailbox_01b.jpg	0	-1	0	0	mailbox_01b.jpg	0	0	0	125.008301719325	125.058280020254	0.0499783009290695
139300	50	21	0	0	hatchet	759	21	0	stimuli\hatchet\hatchet_10s.jpg	9	-1	0	0	hatchet_10s.jpg	0	0	0	125.108303182176	125.158294892637	0.0499917104607448
139399	50	22	0	0	potato	1231	22	0	stimuli\potato\potato_05n.jpg	4	-1	0	0	potato_05n.jpg	0	0	0	125.208279776445	125.25827197457	0.0499921981245279
139500	50	23	0	0	abacus	1	23	0	stimuli\abacus\abacus_04s.jpg	3	-1	0	0	abacus_04s.jpg	0	0	0	125.308294405055	125.358274168859	0.0499797638040036
139600	50	24	0	0	pantyhose	1110	24	0	stimuli\pantyhose\pantyhose_12s.jpg	11	-1	0	0	pantyhose_12s.jpg	0	0	0	125.408322930743	125.458293429809	0.049970499065239
139700	50	25	0	0	steering_wheel	1546	25	0	stimuli\steering_wheel\steering_wheel_01b.jpg	0	-1	0	0	steering_wheel_01b.jpg	0	0	0	125.508314153645	125.558278069773	0.0499639161280356
139800	50	26	0	0	switch	1600	26	0	stimuli\switch\switch_06s.jpg	5	-1	0	0	switch_06s.jpg	0	0	0	125.608316591708	125.658291966945	0.049975375237409
139900	50	27	0	0	cane	258	27	0	stimuli\cane\cane_07s.jpg	6	-1	0	0	cane_07s.jpg	0	0	0	125.708307814552	125.758311959333	0.0500041447812691
140000	50	28	0	0	okra	1074	28	0	stimuli\okra\okra_11n.jpg	10	-1	0	0	okra_11n.jpg	0	0	0	125.808310008841	125.858303669782	0.0499936609412543
140100	50	29	0	0	ambulance	19	29	0	stimuli\ambulance\ambulance_05s.jpg	4	-1	0	0	ambulance_05s.jpg	0	0	0	125.908323418407	125.958308545989	0.0499851275817491
140200	50	30	0	0	melon	994	30	0	stimuli\melon\melon_08s.jpg	7	-1	0	0	melon_08s.jpg	0	0	0	126.008333902224	126.058311227884	0.0499773256597109
140300	50	31	0	0	sonogram	1496	31	0	stimuli\sonogram\sonogram_09s.jpg	8	-1	0	0	sonogram_09s.jpg	0	0	0	126.108318298357	126.158309033606	0.0499907352495939
140400	50	32	0	0	sundial	1583	32	0	stimuli\sundial\sundial_05s.jpg	4	-1	0	0	sundial_05s.jpg	0	0	0	126.208332439361	126.258313422208	0.0499809828470461
140500	50	33	0	0	wrapping_paper	1838	33	0	stimuli\wrapping_paper\wrapping_paper_10s.jpg	9	-1	0	0	wrapping_paper_10s.jpg	0	0	0	126.308337071736	126.35834048508	0.0500034133438021
140600	50	34	0	0	cornmeal	415	34	0	stimuli\cornmeal\cornmeal_03s.jpg	2	-1	0	0	cornmeal_03s.jpg	0	0	0	126.408313178399	126.458305864071	0.0499926856718957
140700	50	35	0	0	trigger	1713	35	0	stimuli\trigger\trigger_10s.jpg	9	-1	0	0	trigger_10s.jpg	0	0	0	126.508343166963	126.558305132668	0.0499619657057337
140800	50	36	0	0	fingerprint	589	36	0	stimuli\fingerprint\fingerprint_03s.jpg	2	-1	0	0	fingerprint_03s.jpg	0	0	0	126.608340728853	126.658339022193	0.0499982933397405
140900	50	37	0	0	cornbread	413	37	0	stimuli\cornbread\cornbread_11s.jpg	10	-1	0	0	cornbread_11s.jpg	0	0	0	126.70834560506	126.758326831739	0.0499812266789377
141000	50	38	0	0	lego	913	38	0	stimuli\lego\lego_03s.jpg	2	-1	0	0	lego_03s.jpg	0	0	0	126.808349018393	126.858329026029	0.0499800076358952
141100	50	39	0	0	bookmark	166	39	0	stimuli\bookmark\bookmark_06s.jpg	5	-1	0	0	bookmark_06s.jpg	0	0	0	126.908351456514	126.958334146009	0.0499826894956641
141200	50	40	0	0	goat	684	40	0	stimuli\goat\goat_09s.jpg	8	-1	0	0	goat_09s.jpg	0	0	0	127.008357307932	127.058319029806	0.0499617218738422
141300	50	41	0	0	camera2	247	41	0	stimuli\camera2\camera2_09s.jpg	8	-1	0	0	camera2_09s.jpg	0	0	0	127.108357064135	127.158343898423	0.0499868342885748
141400	50	42	0	0	barbell	72	42	0	stimuli\barbell\barbell_08s.jpg	7	-1	0	0	barbell_08s.jpg	0	0	0	127.208358526987	127.258340972709	0.0499824457219802
141500	50	43	0	0	omelet	1076	43	0	stimuli\omelet\omelet_12s.jpg	11	-1	0	0	omelet_12s.jpg	0	0	0	127.308361940319	127.358343898377	0.0499819580581971
141600	50	44	0	0	butterfly	229	44	0	stimuli\butterfly\butterfly_08s.jpg	7	-1	0	0	butterfly_08s.jpg	0	0	0	127.408366816526	127.458349506021	0.0499826894956641
141700	50	45	0	0	soda	1490	45	0	stimuli\soda\soda_10s.jpg	9	-1	0	0	soda_10s.jpg	0	0	0	127.508366085065	127.558348530787	0.0499824457219802
141800	50	46	0	0	chihuahua	326	46	0	stimuli\chihuahua\chihuahua_03s.jpg	2	-1	0	0	chihuahua_03s.jpg	0	0	0	127.60837071744	127.658355357475	0.0499846400343813
141900	50	47	0	0	lasagna	898	47	0	stimuli\lasagna\lasagna_09s.jpg	8	-1	0	0	lasagna_09s.jpg	0	0	0	127.708375593647	127.758355113619	0.049979519972112
142000	50	48	0	0	ashtray	41	48	0	stimuli\ashtray\ashtray_07n.jpg	6	-1	0	0	ashtray_07n.jpg	0	0	0	127.808380469854	127.858358283178	0.049977813323494
142100	50	49	0	0	knot	883	49	0	stimuli\knot\knot_11s.jpg	10	-1	0	0	knot_11s.jpg	0	0	0	127.908389003191	127.958364378428	0.049975375237409
142200	50	50	0	0	beaker	101	50	0	stimuli\beaker\beaker_06s.jpg	5	-1	0	0	beaker_06s.jpg	0	0	0	128.008380957472	128.05836291553	0.0499819580581971
142300	50	51	0	0	yogurt	1848	51	0	stimuli\yogurt\yogurt_09s.jpg	8	-1	0	0	yogurt_09s.jpg	0	0	0	128.108369498397	128.15836901078	0.049999512382783
142400	50	52	0	0	pedometer	1137	52	0	stimuli\pedometer\pedometer_01b.jpg	0	-1	0	0	pedometer_01b.jpg	0	0	0	128.208386808925	128.258369986026	0.0499831771012396
142500	50	53	0	0	guitar	723	53	0	stimuli\guitar\guitar_03s.jpg	2	-1	0	0	guitar_03s.jpg	0	0	0	128.308389246988	128.35837364319	0.0499843962024897
142600	50	54	0	0	curry	464	54	0	stimuli\curry\curry_09s.jpg	8	-1	0	0	curry_09s.jpg	0	0	0	128.408394367027	128.458374130772	0.0499797637457959
142700	50	55	0	0	chipmunk	334	55	0	stimuli\chipmunk\chipmunk_01b.jpg	0	-1	0	0	chipmunk_01b.jpg	0	0	0	128.508395586046	128.55836584128	0.0499702552333474
142800	50	56	0	0	magnifying_glass	958	56	0	stimuli\magnifying_glass\magnifying_glass_10s.jpg	9	-1	0	0	magnifying_glass_10s.jpg	0	0	0	128.608396805124	128.658381201269	0.0499843961442821
142900	50	57	0	0	fork	634	57	0	stimuli\fork\fork_01b.jpg	0	-1	0	0	fork_01b.jpg	0	0	0	128.708375837479	128.75836462219	0.0499887847108766
143000	50	58	0	0	soda_fountain	1491	58	0	stimuli\soda_fountain\soda_fountain_11s.jpg	10	-1	0	0	soda_fountain_11s.jpg	0	0	0	128.808402168914	128.858368523186	0.0499663542723283
143100	50	59	0	0	mitten	1008	59	0	stimuli\mitten\mitten_11s.jpg	10	-1	0	0	mitten_11s.jpg	0	0	0	128.908407776558	128.958386321261	0.0499785447027534
143200	50	60	0	0	cigar	343	60	0	stimuli\cigar\cigar_08s.jpg	7	-1	0	0	cigar_08s.jpg	0	0	0	129.008407776535	129.058390466031	0.0499826894956641
143300	50	61	0	0	paddle	1094	61	0	stimuli\paddle\paddle_02s.jpg	1	-1	0	0	paddle_02s.jpg	0	0	0	129.108411189867	129.158390466066	0.0499792761984281
143400	50	62	0	0	toaster_oven	1667	62	0	stimuli\toaster_oven\toaster_oven_10s.jpg	9	-1	0	0	toaster_oven_10s.jpg	0	0	0	129.208431426086	129.258430450805	0.0499990247189999
143500	50	63	0	0	toad	1664	63	0	stimuli\toad\toad_10s.jpg	9	-1	0	1	toad_10s.jpg	0	0	0	129.308417285094	129.358400218422	0.0499829333275557
143600	50	64	0	0	speedometer	1512	64	0	stimuli\speedometer\speedometer_10s.jpg	9	-1	0	0	speedometer_10s.jpg	0	0	0	129.408418504172	129.458406801277	0.0499882971053012
143700	50	65	0	0	flask	612	65	0	stimuli\flask\flask_03s.jpg	2	-1	0	0	flask_03s.jpg	0	0	0	129.508419967024	129.558386808902	0.0499668418779038
143800	50	66	0	0	photograph	1164	66	0	stimuli\photograph\photograph_09s.jpg	8	-1	0	0	photograph_09s.jpg	0	0	0	129.608396805124	129.658386077499	0.0499892723746598
143900	50	67	0	0	pincushion	1179	67	0	stimuli\pincushion\pincushion_04s.jpg	3	-1	0	0	pincushion_04s.jpg	0	0	0	129.708397536539	129.758379982202	0.0499824456637725
144000	50	68	0	0	watch	1786	68	0	stimuli\watch\watch_09s.jpg	8	-1	0	0	watch_09s.jpg	1	0.504403202678077	1	129.808404363168	129.858385589847	0.0499812266789377
144100	50	69	0	0	boomerang	168	69	0	stimuli\boomerang\boomerang_03s.jpg	2	-1	0	0	boomerang_03s.jpg	0	0	0	129.908430206997	129.958386565093	0.0499563580960967
144200	50	70	0	0	submarine	1577	70	0	stimuli\submarine\submarine_03s.jpg	2	-1	0	0	submarine_03s.jpg	0	0	0	130.008435327036	130.058418260363	0.0499829333275557
144300	50	71	0	0	bandanna	67	71	0	stimuli\bandanna\bandanna_01b.jpg	0	-1	0	0	bandanna_01b.jpg	0	0	0	130.108439471805	130.158422161301	0.0499826894956641
144400	50	72	0	0	plug	1202	72	0	stimuli\plug\plug_01b.jpg	0	-1	0	0	plug_01b.jpg	0	0	0	130.20844020322	130.258423380321	0.0499831771012396
144500	50	73	0	0	firecracker	594	73	0	stimuli\firecracker\firecracker_05s.jpg	4	-1	0	0	firecracker_05s.jpg	0	0	0	130.308444347989	130.358425087004	0.0499807390151545
144600	50	74	0	0	dagger	469	74	0	stimuli\dagger\dagger_08s.jpg	7	-1	0	0	dagger_08s.jpg	0	0	0	130.408444347966	130.458431913692	0.0499875657260418
144700	50	75	0	0	fire	590	75	0	stimuli\fire\fire_10s.jpg	9	-1	0	0	fire_10s.jpg	0	0	0	130.508450687048	130.558416066051	0.0499653790029697
144800	50	76	0	0	gingerbread_man	674	76	0	stimuli\gingerbread_man\gingerbread_man_10s.jpg	9	-1	0	0	gingerbread_man_10s.jpg	0	0	0	130.608423624188	130.658402900328	0.0499792761402205
144900	50	77	0	0	bone	161	77	0	stimuli\bone\bone_10s.jpg	9	-1	0	0	bone_10s.jpg	0	0	0	130.708426306082	130.758407288929	0.0499809828470461
145000	50	78	0	0	doll	499	78	0	stimuli\doll\doll_06s.jpg	5	-1	0	0	doll_06s.jpg	0	0	0	130.80843020702	130.858407288906	0.049977081886027
145100	50	79	0	0	sandwich	1357	79	0	stimuli\sandwich\sandwich_08s.jpg	7	-1	0	0	sandwich_08s.jpg	0	0	0	130.908460683248	130.958424355602	0.0499636723543517
145200	50	80	0	0	ice_pack	820	80	0	stimuli\ice_pack\ice_pack_02s.jpg	1	-1	0	0	ice_pack_02s.jpg	0	0	0	131.008463365142	131.058443616552	0.0499802514095791
145300	50	81	0	0	tuba	1723	81	0	stimuli\tuba\tuba_09s.jpg	8	-1	0	0	tuba_09s.jpg	0	0	0	131.108464340388	131.158430694661	0.0499663542723283
145400	50	82	0	0	fire_hydrant	592	82	0	stimuli\fire_hydrant\fire_hydrant_11s.jpg	10	-1	0	0	fire_hydrant_11s.jpg	0	0	0	131.208469216595	131.258451174654	0.0499819580581971
145500	50	83	0	0	kimono	873	83	0	stimuli\kimono\kimono_07s.jpg	6	-1	0	0	kimono_07s.jpg	0	0	0	131.308473117533	131.358454831818	0.0499817142845131
145600	50	84	0	0	shoelace	1426	84	0	stimuli\shoelace\shoelace_01b.jpg	0	-1	0	0	shoelace_01b.jpg	0	0	0	131.408473361342	131.458459951798	0.0499865904566832
145700	50	85	0	0	blindfold	142	85	0	stimuli\blindfold\blindfold_01b.jpg	0	-1	0	0	blindfold_01b.jpg	0	0	0	131.508459464181	131.558435570856	0.0499761066748761
145800	50	86	0	0	tape_recorder	1624	86	0	stimuli\tape_recorder\tape_recorder_07s.jpg	6	-1	0	0	tape_recorder_07s.jpg	0	0	0	131.608450687025	131.658448248927	0.0499975619022734
145900	50	87	0	0	marmalade	976	87	0	stimuli\marmalade\marmalade_04s.jpg	3	-1	0	0	marmalade_04s.jpg	0	0	0	131.708460683236	131.758456294658	0.0499956114217639
146000	50	88	0	0	amber	18	88	0	stimuli\amber\amber_05s.jpg	4	-1	0	0	amber_05s.jpg	0	0	0	131.808477262268	131.858459951822	0.0499826895538718
146100	50	89	0	0	water_fountain	1790	89	0	stimuli\water_fountain\water_fountain_12s.jpg	11	-1	0	0	water_fountain_12s.jpg	0	0	0	131.908477749908	131.958457513712	0.0499797638040036
146200	50	90	0	0	coaster	368	90	0	stimuli\coaster\coaster_03s.jpg	2	-1	0	0	coaster_03s.jpg	0	0	0	132.008459464181	132.058441909903	0.0499824457219802
146300	50	91	0	0	leggings	912	91	0	stimuli\leggings\leggings_11s.jpg	10	-1	0	0	leggings_11s.jpg	0	0	0	132.108470923209	132.158468241338	0.0499973181285895
146400	50	92	0	0	chip	333	92	0	stimuli\chip\chip_05s.jpg	4	-1	0	0	chip_05s.jpg	0	0	0	132.208475311811	132.258457269869	0.0499819580581971
146500	50	93	0	0	shrimp	1438	93	0	stimuli\shrimp\shrimp_05s.jpg	4	-1	0	0	shrimp_05s.jpg	0	0	0	132.308479944186	132.358459464158	0.049979519972112
146600	50	94	0	0	brace	186	94	0	stimuli\brace\brace_05s.jpg	4	-1	0	0	brace_05s.jpg	0	0	0	132.408503106097	132.458469216595	0.0499661104986444
146700	50	95	0	0	binoculars	127	95	0	stimuli\binoculars\binoculars_11n.jpg	10	-1	0	0	binoculars_11n.jpg	0	0	0	132.508489208936	132.558472386096	0.0499831771594472
146800	50	96	0	0	caramel	270	96	0	stimuli\caramel\caramel_01b.jpg	0	-1	0	0	caramel_01b.jpg	0	0	0	132.608514077554	132.658492866089	0.049978788534645
146900	50	97	0	0	sandcastle	1355	97	0	stimuli\sandcastle\sandcastle_08s.jpg	7	-1	0	0	sandcastle_08s.jpg	0	0	0	132.708498473745	132.758495791815	0.0499973180703819
147000	50	98	0	0	dumpling	532	98	0	stimuli\dumpling\dumpling_12s.jpg	11	-1	0	0	dumpling_12s.jpg	0	0	0	132.808523586136	132.858496279456	0.0499726933194324
147100	50	99	0	0	bazooka	98	99	0	stimuli\bazooka\bazooka_04s.jpg	3	-1	0	0	bazooka_04s.jpg	0	0	0	132.908519685152	132.958483113733	0.0499634285806678
147200	50	100	0	0	peacock	1130	100	0	stimuli\peacock\peacock_09s.jpg	8	-1	0	0	peacock_09s.jpg	0	0	0	133.008520660398	133.058506031812	0.0499853714136407
147300	50	101	0	0	flour	618	101	0	stimuli\flour\flour_07s.jpg	6	-1	0	0	flour_07s.jpg	0	0	0	133.108524561336	133.158497010882	0.0499724495457485
147400	50	102	0	0	chain	298	102	0	stimuli\chain\chain_12s.jpg	11	-1	0	0	chain_12s.jpg	0	0	0	133.208520416578	133.258498961339	0.0499785447609611
147500	50	103	0	0	home_plate	787	103	0	stimuli\home_plate\home_plate_02s.jpg	1	-1	0	0	home_plate_02s.jpg	0	0	0	133.308523098531	133.35850139946	0.0499783009290695
147600	50	104	0	0	beet	114	104	0	stimuli\beet\beet_09s.jpg	8	-1	0	0	beet_09s.jpg	0	0	0	133.408526268031	133.458505544229	0.0499792761984281
147700	50	105	0	0	confetti	396	105	0	stimuli\confetti\confetti_04s.jpg	3	-1	0	0	confetti_04s.jpg	0	0	0	133.508526024234	133.558511395648	0.0499853714136407
147800	50	106	0	0	pocketknife	1207	106	0	stimuli\pocketknife\pocketknife_06s.jpg	5	-1	0	0	pocketknife_06s.jpg	0	0	0	133.608531875652	133.658501155616	0.0499692799639888
147900	50	107	0	0	bark	74	107	0	stimuli\bark\bark_04s.jpg	3	-1	0	0	bark_04s.jpg	0	0	0	133.708519928972	133.758523342316	0.0500034133438021
148000	50	108	0	0	milkshake	1002	108	0	stimuli\milkshake\milkshake_08s.jpg	7	-1	0	0	milkshake_08s.jpg	0	0	0	133.808542115672	133.858511395636	0.0499692799639888
148100	50	109	0	0	almond	13	109	0	stimuli\almond\almond_07s.jpg	6	-1	0	0	almond_07s.jpg	0	0	0	133.90854601661	133.958508957527	0.0499629409168847
148200	50	110	0	0	mouthpiece	1032	110	0	stimuli\mouthpiece\mouthpiece_11s.jpg	10	-1	0	0	mouthpiece_11s.jpg	0	0	0	134.008547967067	134.058514565171	0.0499665981042199
148300	50	111	0	0	wine_cooler	1825	111	0	stimuli\wine_cooler\wine_cooler_02s.jpg	1	-1	0	0	wine_cooler_02s.jpg	0	0	0	134.108550405188	134.158535532828	0.0499851276399568
148400	50	112	0	0	shaving_cream	1410	112	0	stimuli\shaving_cream\shaving_cream_10s.jpg	9	-1	0	0	shaving_cream_10s.jpg	0	0	0	134.208532607066	134.258514565183	0.0499819581164047
148500	50	113	0	0	gem	670	113	0	stimuli\gem\gem_11s.jpg	10	-1	0	0	gem_11s.jpg	0	0	0	134.308535045187	134.358515052765	0.0499800075776875
148600	50	114	0	0	hairspray	738	114	0	stimuli\hairspray\hairspray_06s.jpg	5	-1	0	0	hairspray_06s.jpg	0	0	0	134.408532607078	134.458516759449	0.0499841523705982
148700	50	115	0	0	mistletoe	1007	115	0	stimuli\mistletoe\mistletoe_03s.jpg	2	-1	0	0	mistletoe_03s.jpg	0	0	0	134.508537970891	134.558522367093	0.0499843962024897
148800	50	116	0	0	mask	980	116	0	stimuli\mask\mask_08s.jpg	7	-1	0	0	mask_08s.jpg	0	0	0	134.608541384223	134.65852431755	0.0499829333275557
148900	50	117	0	0	doormat	511	117	0	stimuli\doormat\doormat_03s.jpg	2	-1	0	0	doormat_03s.jpg	0	0	0	134.708545528993	134.758528706152	0.0499831771594472
149000	50	118	0	0	rabbit	1265	118	0	stimuli\rabbit\rabbit_03s.jpg	2	-1	0	0	rabbit_03s.jpg	0	0	0	134.808553818497	134.858531875652	0.0499780571553856
149100	50	119	0	0	gasket	661	119	0	stimuli\gasket\gasket_11s.jpg	10	-1	0	0	gasket_11s.jpg	0	0	0	134.90854894236	134.958529925148	0.0499809827888384
149200	50	120	0	0	olive	1075	120	0	stimuli\olive\olive_09s.jpg	8	-1	0	0	olive_09s.jpg	0	0	0	135.008546991856	135.05856747186	0.0500204800046049
149300	50	121	0	0	piecrust	1169	121	0	stimuli\piecrust\piecrust_02s.jpg	1	-1	0	0	piecrust_02s.jpg	0	0	0	135.108575517603	135.15855918231	0.049983664706815
149400	50	122	0	0	music_box	1041	122	0	stimuli\music_box\music_box_09s.jpg	8	-1	0	0	music_box_09s.jpg	0	0	0	135.208563570923	135.258544797543	0.04998122662073
149500	50	123	0	0	defibrillator	477	123	0	stimuli\defibrillator\defibrillator_03s.jpg	2	-1	0	0	defibrillator_03s.jpg	0	0	0	135.308587951877	135.358580393775	0.0499924418982118
149600	50	124	0	0	cupcake	461	124	0	stimuli\cupcake\cupcake_02s.jpg	1	-1	0	0	cupcake_02s.jpg	0	0	0	135.408587464248	135.458552599477	0.0499651352292858
149700	50	125	0	0	hole	785	125	0	stimuli\hole\hole_07s.jpg	6	-1	0	0	hole_07s.jpg	0	0	0	135.508586976619	135.55857039761	0.0499834209913388
149800	50	126	0	0	hearing_aid	770	126	0	stimuli\hearing_aid\hearing_aid_07s.jpg	6	-1	0	0	hearing_aid_07s.jpg	0	0	0	135.608605262358	135.658570885193	0.0499656228348613
149900	50	127	0	0	pita	1189	127	0	stimuli\pita\pita_03s.jpg	2	-1	0	0	pita_03s.jpg	0	0	0	135.708593803283	135.75855771947	0.0499639161862433
150000	50	128	0	0	snowball	1480	128	0	stimuli\snowball\snowball_01b.jpg	0	-1	0	0	snowball_01b.jpg	0	0	0	135.808539677586	135.858577224251	0.0500375466654077
150100	50	129	0	0	woman	1832	129	0	stimuli\woman\woman_05s.jpg	4	-1	0	0	woman_05s.jpg	0	0	0	135.908598923299	135.958564789966	0.0499658666667528
150200	50	130	0	0	cooker	399	130	0	stimuli\cooker\cooker_02s.jpg	1	-1	0	0	cooker_02s.jpg	0	0	0	136.008585026138	136.058584294748	0.0499992686090991
150300	50	131	0	0	traffic_light	1696	131	0	stimuli\traffic_light\traffic_light_07s.jpg	6	-1	0	0	traffic_light_07s.jpg	0	0	0	136.108603311877	136.158569178544	0.0499658666667528
150400	50	132	0	0	mustard	1044	132	0	stimuli\mustard\mustard_12s.jpg	11	-1	0	0	mustard_12s.jpg	0	0	0	136.208614527131	136.258603311901	0.0499887847690843
150500	50	133	0	0	cantaloupe	263	133	0	stimuli\cantaloupe\cantaloupe_05s.jpg	4	-1	0	0	cantaloupe_05s.jpg	0	0	0	136.308592584275	136.358573810896	0.04998122662073
150600	50	134	0	0	power_line	1237	134	0	stimuli\power_line\power_line_12s.jpg	11	-1	0	0	power_line_12s.jpg	0	0	0	136.408588927123	136.458571616618	0.0499826894956641
150700	50	135	0	0	seed	1401	135	0	stimuli\seed\seed_07s.jpg	6	-1	0	0	seed_07s.jpg	0	0	0	136.508613064303	136.558624523343	0.0500114590395242
150800	50	136	0	0	torch	1683	136	0	stimuli\torch\torch_06s.jpg	5	-1	0	0	torch_06s.jpg	0	0	0	136.608655730961	136.65858965856	0.0499339275993407
150900	50	137	0	0	groundhog	718	137	0	stimuli\groundhog\groundhog_12n.jpg	11	-1	0	0	groundhog_12n.jpg	0	0	0	136.70861355192	136.75859380333	0.0499802514095791
151000	50	138	0	0	roll	1323	138	0	stimuli\roll\roll_09s.jpg	8	-1	0	0	roll_09s.jpg	0	0	0	136.808617696632	136.858598923311	0.0499812266789377
151100	50	139	0	0	hatbox	758	139	0	stimuli\hatbox\hatbox_08s.jpg	7	-1	0	0	hatbox_08s.jpg	0	0	0	136.90861794044	136.958600142389	0.0499822019482963
151200	50	140	0	0	casserole	282	140	0	stimuli\casserole\casserole_05s.jpg	4	-1	0	0	casserole_05s.jpg	0	0	0	137.008624767128	137.058605993807	0.0499812266789377
151300	50	141	0	0	radiator	1272	141	0	stimuli\radiator\radiator_05s.jpg	4	-1	0	0	radiator_05s.jpg	0	0	0	137.108624767163	137.158608188096	0.0499834209331311
151400	50	142	0	0	doorbell	507	142	0	stimuli\doorbell\doorbell_04s.jpg	3	-1	0	0	doorbell_04s.jpg	0	0	0	137.208624523308	137.258600386151	0.0499758628429845
151500	50	143	0	0	accordion	2	143	0	stimuli\accordion\accordion_02s.jpg	1	-1	0	0	accordion_02s.jpg	0	0	0	137.308613551897	137.358597948099	0.0499843962024897
151600	50	144	0	0	moss	1022	144	0	stimuli\moss\moss_03s.jpg	2	-1	0	0	moss_03s.jpg	0	0	0	137.408617452835	137.458598923287	0.0499814704526216
151700	50	145	0	0	bagpipe	56	145	0	stimuli\bagpipe\bagpipe_04s.jpg	3	-1	0	0	bagpipe_04s.jpg	0	0	0	137.508633300487	137.558622085257	0.0499887847690843
151800	50	146	0	0	bun	220	146	0	stimuli\bun\bun_09s.jpg	8	-1	0	0	bun_09s.jpg	0	0	0	137.608643784304	137.658603799529	0.0499600152252242
151900	50	147	0	0	triangle	1710	147	0	stimuli\triangle\triangle_02s.jpg	1	-1	0	0	triangle_02s.jpg	0	0	0	137.708644028113	137.758650854754	0.0500068266410381
152000	50	148	0	0	police_car	1214	148	0	stimuli\police_car\police_car_03s.jpg	2	-1	0	0	police_car_03s.jpg	0	0	0	137.808627449034	137.858607700444	0.0499802514095791
152100	50	149	0	0	christmas_tree	341	149	0	stimuli\christmas_tree\christmas_tree_12s.jpg	11	-1	0	0	christmas_tree_12s.jpg	0	0	0	137.908648172859	137.958627936663	0.0499797638040036
152200	50	150	0	0	swing	1598	150	0	stimuli\swing\swing_02s.jpg	1	-1	0	0	swing_02s.jpg	0	0	0	138.008675967169	138.058631106163	0.0499551389948465
152300	50	151	0	0	fruitcake	646	151	0	stimuli\fruitcake\fruitcake_07s.jpg	6	-1	0	0	fruitcake_07s.jpg	0	0	0	138.108653536707	138.158619890921	0.0499663542141207
152400	50	152	0	0	sweater	1592	152	0	stimuli\sweater\sweater_02s.jpg	1	-1	0	0	sweater_02s.jpg	0	0	0	138.208641346195	138.258637201448	0.0499958552536555
152500	50	153	0	0	jug	853	153	0	stimuli\jug\jug_11s.jpg	10	-1	0	0	jug_11s.jpg	0	0	0	138.308657193847	138.358638908074	0.0499817142263055
152600	50	154	0	0	curling_iron	463	154	0	stimuli\curling_iron\curling_iron_02s.jpg	1	-1	0	0	curling_iron_02s.jpg	0	0	0	138.408657437656	138.458625986183	0.0499685485265218
152700	50	155	0	0	lip_balm	934	155	0	stimuli\lip_balm\lip_balm_06s.jpg	5	-1	0	0	lip_balm_06s.jpg	0	0	0	138.508664508117	138.55865158618	0.0499870780622587
152800	50	156	0	0	walker1	1773	156	0	stimuli\walker1\walker1_07s.jpg	6	-1	0	0	walker1_07s.jpg	0	0	0	138.608656218566	138.658630862366	0.049974643799942
152900	50	157	0	0	bottle	170	157	0	stimuli\bottle\bottle_10s.jpg	9	-1	0	0	bottle_10s.jpg	0	0	0	138.708670847176	138.758659144281	0.0499882971053012
153000	50	158	0	0	fuse	652	158	0	stimuli\fuse\fuse_09s.jpg	8	-1	0	0	fuse_09s.jpg	0	0	0	138.808674991946	138.858655243355	0.0499802514095791
153100	50	159	0	0	ladybug	888	159	0	stimuli\ladybug\ladybug_05s.jpg	4	-1	0	0	ladybug_05s.jpg	0	0	0	138.908674504317	138.958641102363	0.0499665980460122
153200	50	160	0	0	christmas_card	340	160	0	stimuli\christmas_card\christmas_card_03s.jpg	2	-1	0	0	christmas_card_03s.jpg	0	0	0	139.008676698606	139.058660119539	0.0499834209331311
153300	50	161	0	0	handle	748	161	0	stimuli\handle\handle_01b.jpg	0	-1	0	0	handle_01b.jpg	0	0	0	139.108682306251	139.158661826223	0.049979519972112
153400	50	162	0	0	yolk	1850	162	0	stimuli\yolk\yolk_07s.jpg	6	-1	0	0	yolk_07s.jpg	0	0	0	139.208680843352	139.258665239555	0.0499843962024897
153500	50	163	0	0	boot	169	163	0	stimuli\boot\boot_08s.jpg	7	-1	0	0	boot_08s.jpg	0	0	0	139.308685231954	139.358666214801	0.0499809828470461
153600	50	164	0	0	sled	1460	164	0	stimuli\sled\sled_10s.jpg	9	-1	0	0	sled_10s.jpg	0	0	0	139.408671090961	139.458673772868	0.0500026819063351
153700	50	165	0	0	mousepad	1028	165	0	stimuli\mousepad\mousepad_11s.jpg	10	-1	0	0	mousepad_11s.jpg	0	0	0	139.508694252872	139.558672310028	0.0499780571553856
153800	50	166	0	0	swing_set	1599	166	0	stimuli\swing_set\swing_set_04s.jpg	3	-1	0	0	swing_set_04s.jpg	0	0	0	139.608675723372	139.658664264309	0.0499885409371927
153900	50	167	0	0	crane	431	167	0	stimuli\crane\crane_08s.jpg	7	-1	0	0	crane_08s.jpg	0	0	0	139.70868913288	139.758676942438	0.0499878095579334
154000	50	168	0	0	cap	265	168	0	stimuli\cap\cap_03s.jpg	2	-1	0	0	cap_03s.jpg	0	0	0	139.808715951978	139.858673772891	0.0499578209128231
154100	50	169	0	0	swimsuit	1597	169	0	stimuli\swimsuit\swimsuit_10s.jpg	9	-1	0	0	swimsuit_10s.jpg	0	0	0	139.908672553836	139.958663045254	0.0499904914177023
154200	50	170	0	0	shelf	1416	170	0	stimuli\shelf\shelf_05s.jpg	4	-1	0	0	shelf_05s.jpg	0	0	0	140.008685231966	140.058668652899	0.0499834209331311
154300	50	171	0	0	plastic_film	1196	171	0	stimuli\plastic_film\plastic_film_09s.jpg	8	-1	0	0	plastic_film_09s.jpg	0	0	0	140.108681087149	140.158668896707	0.0499878095579334
154400	50	172	0	0	dynamite	536	172	0	stimuli\dynamite\dynamite_08s.jpg	7	-1	0	0	dynamite_08s.jpg	0	0	0	140.208692302404	140.25867133477	0.0499790323665366
154500	50	173	0	0	meat_grinder	988	173	0	stimuli\meat_grinder\meat_grinder_01b.jpg	0	-1	0	0	meat_grinder_01b.jpg	0	0	0	140.308722291025	140.358696447161	0.0499741561361589
154600	50	174	0	0	sea_urchin	1393	174	0	stimuli\sea_urchin\sea_urchin_09s.jpg	8	-1	0	0	sea_urchin_09s.jpg	0	0	0	140.408698153857	140.458679868141	0.0499817142845131
154700	50	175	0	0	handprint	750	175	0	stimuli\handprint\handprint_12s.jpg	11	-1	0	0	handprint_12s.jpg	0	0	0	140.508716439595	140.558699372923	0.0499829333275557
154800	50	176	0	0	heater	772	176	0	stimuli\heater\heater_06s.jpg	5	-1	0	0	heater_06s.jpg	0	0	0	140.608728142455	140.658686938579	0.049958796123974
154900	50	177	0	0	braid	190	177	0	stimuli\braid\braid_09s.jpg	8	-1	0	0	braid_09s.jpg	0	0	0	140.708710344334	140.758708393842	0.0499980495078489
155000	50	178	0	0	strawberry	1570	178	0	stimuli\strawberry\strawberry_01b.jpg	0	-1	0	0	strawberry_01b.jpg	0	0	0	140.808729605284	140.8587115634	0.0499819581164047
155100	50	179	0	0	barbed_wire	71	179	0	stimuli\barbed_wire\barbed_wire_05s.jpg	4	-1	0	0	barbed_wire_05s.jpg	0	0	0	140.908716439561	140.958709856728	0.0499934171675704
155200	50	180	0	0	prune	1244	180	0	stimuli\prune\prune_12s.jpg	11	-1	0	0	prune_12s.jpg	0	0	0	141.008713513846	141.058714245271	0.0500007314258255
155300	50	181	0	0	cockroach	373	181	0	stimuli\cockroach\cockroach_09s.jpg	8	-1	0	0	cockroach_09s.jpg	0	0	0	141.108722291014	141.15871741483	0.0499951238161884
155400	50	182	0	0	airbag	7	182	0	stimuli\airbag\airbag_11s.jpg	10	-1	0	0	airbag_11s.jpg	0	0	0	141.208738138608	141.258717171033	0.0499790324247442
155500	50	183	0	0	vegetable	1754	183	0	stimuli\vegetable\vegetable_03s.jpg	2	-1	0	0	vegetable_03s.jpg	0	0	0	141.308738382475	141.358720584365	0.0499822018900886
155600	50	184	0	0	poppy	1224	184	0	stimuli\poppy\poppy_07s.jpg	6	-1	0	0	poppy_07s.jpg	0	0	0	141.408742527186	141.458706930978	0.0499644037918188
155700	50	185	0	0	snake	1477	185	0	stimuli\snake\snake_04s.jpg	3	-1	0	0	snake_04s.jpg	0	0	0	141.508720828162	141.558709125267	0.0499882971053012
155800	50	186	0	0	copier	405	186	0	stimuli\copier\copier_04n.jpg	3	-1	0	0	copier_04n.jpg	0	0	0	141.608717902447	141.658711075783	0.0499931733356789
155900	50	187	0	0	scooter	1382	187	0	stimuli\scooter\scooter_10s.jpg	9	-1	0	0	scooter_10s.jpg	0	0	0	141.708731555787	141.758734725299	0.0500031695119105
156000	50	188	0	0	otter	1085	188	0	stimuli\otter\otter_08n.jpg	7	-1	0	0	otter_08n.jpg	0	0	0	141.808752523386	141.858735944377	0.0499834209913388
156100	50	189	0	0	straw1	1568	189	0	stimuli\straw1\straw1_06s.jpg	5	-1	0	0	straw1_06s.jpg	0	0	0	141.9087400891	141.958727167221	0.0499870781204663
156200	50	190	0	0	garter	659	190	0	stimuli\garter\garter_02s.jpg	1	-1	0	0	garter_02s.jpg	0	0	0	142.008757399628	142.058716195752	0.049958796123974
156300	50	191	0	0	toolbox	1677	191	0	stimuli\toolbox\toolbox_03s.jpg	2	-1	0	0	toolbox_03s.jpg	0	0	0	142.108741308155	142.158725948131	0.0499846399761736
156400	50	192	0	0	crumb	451	192	0	stimuli\crumb\crumb_07s.jpg	6	-1	0	0	crumb_07s.jpg	0	0	0	142.208745696757	142.258734481467	0.0499887847108766
156500	50	193	0	0	cable	234	193	0	stimuli\cable\cable_05s.jpg	4	-1	0	0	cable_05s.jpg	0	0	0	142.308748866257	142.358709125314	0.0499602590571158
156600	50	194	0	0	ice_cube	819	194	0	stimuli\ice_cube\ice_cube_11s.jpg	10	-1	0	0	ice_cube_11s.jpg	0	0	0	142.408752523421	142.458748378616	0.0499958551954478
156700	50	195	0	0	furnace	651	195	0	stimuli\furnace\furnace_08s.jpg	7	-1	0	0	furnace_08s.jpg	0	0	0	142.50877080916	142.558754473866	0.049983664706815
156800	50	196	0	0	combination_lock	390	196	0	stimuli\combination_lock\combination_lock_01b.jpg	0	-1	0	0	combination_lock_01b.jpg	0	0	0	142.608772272011	142.658754961507	0.0499826894956641
156900	50	197	0	0	ruler	1341	197	0	stimuli\ruler\ruler_03s.jpg	2	-1	0	0	ruler_03s.jpg	0	0	0	142.708779830078	142.758763494843	0.0499836647650227
157000	50	198	0	0	chest1	319	198	0	stimuli\chest1\chest1_03s.jpg	2	-1	0	0	chest1_03s.jpg	0	0	0	142.808782755805	142.858765689132	0.0499829333275557
157100	50	199	0	0	dalmatian	471	199	0	stimuli\dalmatian\dalmatian_09s.jpg	8	-1	0	0	dalmatian_09s.jpg	0	0	0	142.908765201515	142.958763738628	0.0499985371134244
157200	50	200	0	0	rack2	1269	200	0	stimuli\rack2\rack2_09s.jpg	8	-1	0	0	rack2_09s.jpg	0	0	0	143.008785681508	143.058748622425	0.0499629409168847
157300	50	201	0	0	lawnmower	905	201	0	stimuli\lawnmower\lawnmower_08s.jpg	7	-1	0	0	lawnmower_08s.jpg	0	0	0	143.108774710097	143.158760325343	0.0499856152455322
157400	50	202	0	0	belt	118	202	0	stimuli\belt\belt_02s.jpg	1	-1	0	0	belt_02s.jpg	0	0	0	143.208774953906	143.25878031773	0.0500053638243116
157500	50	203	0	0	licorice	922	203	0	stimuli\licorice\licorice_01b.jpg	0	-1	0	0	licorice_01b.jpg	0	0	0	143.308795677731	143.358781292976	0.0499856152455322
157600	50	204	0	0	toothbrush	1679	204	0	stimuli\toothbrush\toothbrush_12s.jpg	11	-1	0	0	toothbrush_12s.jpg	0	0	0	143.408794702496	143.458776416781	0.0499817142845131
157700	50	205	0	0	badger	53	205	0	stimuli\badger\badger_08s.jpg	7	-1	0	0	badger_08s.jpg	0	0	0	143.508784950071	143.55877861107	0.049993660999462
157800	50	206	0	0	album	11	206	0	stimuli\album\album_09s.jpg	8	-1	0	0	album_09s.jpg	0	0	0	143.608800797723	143.658764957683	0.0499641599599272
157900	50	207	0	0	macadamia	951	207	0	stimuli\macadamia\macadamia_01b.jpg	0	-1	0	0	macadamia_01b.jpg	0	0	0	143.708802260575	143.758786900551	0.0499846399761736
158000	50	208	0	0	dresser	519	208	0	stimuli\dresser\dresser_05n.jpg	4	-1	0	0	dresser_05n.jpg	0	0	0	143.808808111993	143.858788851066	0.0499807390733622
158100	50	209	0	0	applesauce	32	209	0	stimuli\applesauce\applesauce_02s.jpg	1	-1	0	0	applesauce_02s.jpg	0	0	0	143.908808843466	143.958773978637	0.0499651351710781
158200	50	210	0	0	pastry	1124	210	0	stimuli\pastry\pastry_10s.jpg	9	-1	0	0	pastry_10s.jpg	0	0	0	144.008794458699	144.058777635801	0.0499831771012396
158300	50	211	0	0	blind	140	211	0	stimuli\blind\blind_02s.jpg	1	-1	0	0	blind_02s.jpg	0	0	0	144.108797872032	144.158780073922	0.0499822018900886
158400	50	212	0	0	canvas	264	212	0	stimuli\canvas\canvas_05s.jpg	4	-1	0	0	canvas_05s.jpg	0	0	0	144.208799091051	144.258781780547	0.0499826894956641
158500	50	213	0	0	green_beans	712	213	0	stimuli\green_beans\green_beans_04s.jpg	3	-1	0	0	green_beans_04s.jpg	0	0	0	144.308830298716	144.358788607235	0.0499583085183986
158600	50	214	0	0	boulder	172	214	0	stimuli\boulder\boulder_09s.jpg	8	-1	0	0	boulder_09s.jpg	0	0	0	144.408805673942	144.458784218645	0.0499785447027534
158700	50	215	0	0	sock	1489	215	0	stimuli\sock\sock_05s.jpg	4	-1	0	0	sock_05s.jpg	0	0	0	144.508840051072	144.558812012954	0.0499719618819654
158800	50	216	0	0	camera1	246	216	0	stimuli\camera1\camera1_08n.jpg	7	-1	0	0	camera1_08n.jpg	0	0	0	144.608811281563	144.658808112028	0.0499968304648064
158900	50	217	0	0	mousetrap	1029	217	0	stimuli\mousetrap\mousetrap_11s.jpg	10	-1	0	0	mousetrap_11s.jpg	0	0	0	144.708832005388	144.758816401532	0.0499843961442821
159000	50	218	0	0	crystal_ball	455	218	0	stimuli\crystal_ball\crystal_ball_10s.jpg	9	-1	0	0	crystal_ball_10s.jpg	0	0	0	144.80883810058	144.858815913904	0.049977813323494
159100	50	219	0	0	screen1	1388	219	0	stimuli\screen1\screen1_12s.jpg	11	-1	0	0	screen1_12s.jpg	0	0	0	144.908838100615	144.958821033943	0.0499829333275557
159200	50	220	0	0	gong	692	220	0	stimuli\gong\gong_09s.jpg	8	-1	0	0	gong_09s.jpg	0	0	0	145.008822009142	145.058807136782	0.0499851276399568
159300	50	221	0	0	star_fruit	1540	221	0	stimuli\star_fruit\star_fruit_06s.jpg	5	-1	0	0	star_fruit_06s.jpg	0	0	0	145.10882322822	145.158803235798	0.0499800075776875
159400	50	222	0	0	ribbon	1308	222	0	stimuli\ribbon\ribbon_09s.jpg	8	-1	0	0	ribbon_09s.jpg	0	0	0	145.208843220607	145.258808355837	0.0499651352292858
159500	50	223	0	0	board	152	223	0	stimuli\board\board_05s.jpg	4	-1	0	0	board_05s.jpg	0	0	0	145.308847121545	145.358831517748	0.0499843962024897
159600	50	224	0	0	foam	624	224	0	stimuli\foam\foam_06s.jpg	5	-1	0	0	foam_06s.jpg	0	0	0	145.408850778709	145.458818352025	0.0499675733153708
159700	50	225	0	0	pocket_watch	1206	225	0	stimuli\pocket_watch\pocket_watch_08s.jpg	7	-1	0	0	pocket_watch_08s.jpg	0	0	0	145.50885126635	145.558835662494	0.0499843961442821
159800	50	226	0	0	cobra	371	226	0	stimuli\cobra\cobra_01b.jpg	0	-1	0	0	cobra_01b.jpg	0	0	0	145.608852972975	145.65883663774	0.0499836647650227
159900	50	227	0	0	dashboard	475	227	0	stimuli\dashboard\dashboard_03s.jpg	2	-1	0	0	dashboard_03s.jpg	0	0	0	145.708856630139	145.758840294904	0.0499836647650227
160000	50	228	0	0	mousse	1030	228	0	stimuli\mousse\mousse_12s.jpg	11	-1	0	0	mousse_12s.jpg	0	0	0	145.808859555866	145.858841757756	0.0499822018900886
160100	50	229	0	0	bison	134	229	0	stimuli\bison\bison_04n.jpg	3	-1	0	0	bison_04n.jpg	0	0	0	145.908861750155	145.958828104427	0.0499663542723283
160200	50	230	0	0	brussels_sprouts	206	230	0	stimuli\brussels_sprouts\brussels_sprouts_04s.jpg	3	-1	0	0	brussels_sprouts_04s.jpg	0	0	0	146.008852485393	146.058830298716	0.049977813323494
160300	50	231	0	0	coffee_bean	378	231	0	stimuli\coffee_bean\coffee_bean_05s.jpg	4	-1	0	0	coffee_bean_05s.jpg	0	0	0	146.108853704412	146.158830054861	0.04997635044856
160400	50	232	0	0	artichoke	39	232	0	stimuli\artichoke\artichoke_02s.jpg	1	-1	0	0	artichoke_02s.jpg	0	0	0	146.20885297301	146.25886077492	0.0500078019103967
160500	50	233	0	0	aquarium	34	233	0	stimuli\aquarium\aquarium_10s.jpg	9	-1	0	0	aquarium_10s.jpg	0	0	0	146.308875647315	146.358838100627	0.0499624533113092
160600	50	234	0	0	donut	505	234	0	stimuli\donut\donut_08s.jpg	7	-1	0	0	donut_08s.jpg	0	0	0	146.408861993928	146.458857849182	0.0499958552536555
160700	50	235	0	0	tractor	1695	235	0	stimuli\tractor\tractor_09n.jpg	8	-1	0	0	tractor_09n.jpg	0	0	0	146.508879304456	146.558861506346	0.0499822018900886
160800	50	236	0	0	handcuff	746	236	0	stimuli\handcuff\handcuff_11s.jpg	10	-1	0	0	handcuff_11s.jpg	0	0	0	146.608881986351	146.658862481592	0.0499804952414706
160900	50	237	0	0	slide	1464	237	0	stimuli\slide\slide_09s.jpg	8	-1	0	0	slide_09s.jpg	0	0	0	146.708867113979	146.758843464428	0.04997635044856
161000	50	238	0	0	trolley	1715	238	0	stimuli\trolley\trolley_12s.jpg	11	-1	0	0	trolley_12s.jpg	0	0	0	146.808876622526	146.858840538713	0.0499639161862433
161100	50	239	0	0	mullet	1039	239	0	stimuli\mullet\mullet_10s.jpg	9	-1	0	0	mullet_10s.jpg	0	0	0	146.908874672081	146.958853216784	0.0499785447027534
161200	50	240	0	0	grill	714	240	0	stimuli\grill\grill_02s.jpg	1	-1	0	0	grill_02s.jpg	0	0	0	147.00887394062	147.058855411073	0.0499814704526216
161300	50	241	0	0	coffee_filter	379	241	0	stimuli\coffee_filter\coffee_filter_02s.jpg	1	-1	0	0	coffee_filter_02s.jpg	0	0	0	147.108876622515	147.158858336799	0.0499817142845131
161400	50	242	0	0	quesadilla	1261	242	0	stimuli\quesadilla\quesadilla_12s.jpg	11	-1	0	0	quesadilla_12s.jpg	0	0	0	147.208882230159	147.258864675881	0.0499824457219802
161500	50	243	0	0	vise	1765	243	0	stimuli\vise\vise_09s.jpg	8	-1	0	0	vise_09s.jpg	0	0	0	147.3088827178	147.358868332987	0.0499856151873246
161600	50	244	0	0	radar	1271	244	0	stimuli\radar\radar_10s.jpg	9	-1	0	0	radar_10s.jpg	0	0	0	147.408890032035	147.458870039671	0.0499800076358952
161700	50	245	0	0	workbench	1835	245	0	stimuli\workbench\workbench_08s.jpg	7	-1	0	0	workbench_08s.jpg	0	0	0	147.508905635856	147.558890032058	0.0499843962024897
161800	50	246	0	0	handkerchief	747	246	0	stimuli\handkerchief\handkerchief_11s.jpg	10	-1	0	0	handkerchief_11s.jpg	0	0	0	147.608911974938	147.658871990163	0.0499600152252242
161900	50	247	0	0	anklet	23	247	0	stimuli\anklet\anklet_01b.jpg	0	-1	0	0	anklet_01b.jpg	0	0	0	147.708891494898	147.758876622538	0.0499851276399568
162000	50	248	0	0	axe	45	248	0	stimuli\axe\axe_06n.jpg	5	-1	0	0	axe_06n.jpg	0	0	0	147.808890763496	147.858881254913	0.0499904914177023
162100	50	249	0	0	pepper1	1149	249	0	stimuli\pepper1\pepper1_11s.jpg	10	-1	0	0	pepper1_11s.jpg	0	0	0	147.908901734918	147.958904660656	0.0500029257382266
162200	50	250	0	0	nacho	1045	250	0	stimuli\nacho\nacho_11s.jpg	10	-1	0	0	nacho_11s.jpg	0	0	0	148.008894664468	148.058876378695	0.0499817142263055
162300	50	251	0	0	thermostat	1648	251	0	stimuli\thermostat\thermostat_07s.jpg	6	-1	0	0	thermostat_07s.jpg	0	0	0	148.10891221877	148.158863700635	0.049951481865719
162400	50	252	0	0	teabag	1632	252	0	stimuli\teabag\teabag_07s.jpg	6	-1	0	0	teabag_07s.jpg	0	0	0	148.208917582582	148.258905635856	0.0499880532734096
162500	50	253	0	0	cloud	364	253	0	stimuli\cloud\cloud_11s.jpg	10	-1	0	0	cloud_11s.jpg	0	0	0	148.308925872087	148.358891982527	0.0499661104404368
162600	50	254	0	0	treasure	1707	254	0	stimuli\treasure\treasure_05s.jpg	4	-1	0	0	treasure_05s.jpg	0	0	0	148.408930992067	148.458900515863	0.0499695237958804
162700	50	255	0	0	bowler_hat	178	255	0	stimuli\bowler_hat\bowler_hat_05s.jpg	4	-1	0	0	bowler_hat_05s.jpg	0	0	0	148.508935868274	148.558913437766	0.0499775694916025
162800	50	256	0	0	seagull	1395	256	0	stimuli\seagull\seagull_09s.jpg	8	-1	0	0	seagull_09s.jpg	0	0	0	148.60893489304	148.65891709493	0.0499822018900886
162900	50	257	0	0	snowman	1482	257	0	stimuli\snowman\snowman_09s.jpg	8	-1	0	0	snowman_09s.jpg	0	0	0	148.70892587211	148.758918557782	0.0499926856718957
163000	50	258	0	0	tea	1631	258	0	stimuli\tea\tea_05s.jpg	4	-1	0	0	tea_05s.jpg	0	0	0	148.808942451142	148.85889320157	0.0499507504282519
163100	50	259	0	0	train_car	1699	259	0	stimuli\train_car\train_car_12s.jpg	11	-1	0	0	train_car_12s.jpg	0	0	0	148.908926603501	148.958911974914	0.0499853714136407
163200	50	260	0	0	hearse	771	260	0	stimuli\hearse\hearse_05s.jpg	4	-1	0	0	hearse_05s.jpg	0	0	0	149.008933917794	149.05893952545	0.0500056076562032
163300	50	261	0	0	phone_booth	1162	261	0	stimuli\phone_booth\phone_booth_07s.jpg	6	-1	0	0	phone_booth_07s.jpg	0	0	0	149.108933186391	149.158916851098	0.049983664706815
163400	50	262	0	0	mannequin	968	262	0	stimuli\mannequin\mannequin_12s.jpg	11	-1	0	0	mannequin_12s.jpg	0	0	0	149.20895707974	149.258932211145	0.0499751314055175
163500	50	263	0	0	bed	108	263	0	stimuli\bed\bed_11n.jpg	10	-1	0	0	bed_11n.jpg	0	0	0	149.308957079716	149.358934649208	0.0499775694916025
163600	50	264	0	0	retainer	1303	264	0	stimuli\retainer\retainer_05s.jpg	4	-1	0	0	retainer_05s.jpg	0	0	0	149.408944401599	149.45892294636	0.0499785447609611
163700	50	265	0	0	roadsweeper	1316	265	0	stimuli\roadsweeper\roadsweeper_10s.jpg	9	-1	0	0	roadsweeper_10s.jpg	0	0	0	149.508960736857	149.55894220731	0.0499814704526216
163800	50	266	0	0	notebook	1064	266	0	stimuli\notebook\notebook_05s.jpg	4	-1	0	0	notebook_05s.jpg	0	0	0	149.60894805874	149.658927822544	0.0499797638040036
163900	50	267	0	0	canoe	262	267	0	stimuli\canoe\canoe_07s.jpg	6	-1	0	0	canoe_07s.jpg	0	0	0	149.708939525415	149.75892879779	0.0499892723746598
164000	50	268	0	0	lens	916	268	0	stimuli\lens\lens_03s.jpg	2	-1	0	0	lens_03s.jpg	0	0	0	149.808955860673	149.858934161603	0.0499783009290695
164100	50	269	0	0	extinguisher	563	269	0	stimuli\extinguisher\extinguisher_07s.jpg	6	-1	0	0	extinguisher_07s.jpg	0	0	0	149.908961224486	149.958942938771	0.0499817142845131
164200	50	270	0	0	sidecar	1442	270	0	stimuli\sidecar\sidecar_06s.jpg	5	-1	0	0	sidecar_06s.jpg	0	0	0	150.008963906381	150.058942451142	0.0499785447609611
164300	50	271	0	0	couch	422	271	0	stimuli\couch\couch_12s.jpg	11	-1	0	0	couch_12s.jpg	0	0	0	150.10895854258	150.15894830256	0.0499897599802352
164400	50	272	0	0	cooler	403	272	0	stimuli\cooler\cooler_12s.jpg	11	-1	0	0	cooler_12s.jpg	0	0	0	150.208970001608	150.258942938759	0.049972937151324
164500	50	273	0	0	flyswatter	623	273	0	stimuli\flyswatter\flyswatter_01b.jpg	0	-1	0	0	flyswatter_01b.jpg	0	0	0	150.30896317499	150.358945620654	0.0499824456637725
164600	50	274	0	0	bowtie	180	274	0	stimuli\bowtie\bowtie_08s.jpg	7	-1	0	0	bowtie_08s.jpg	0	0	0	150.408966588322	150.458945133025	0.0499785447027534
164700	50	275	0	0	sail	1346	275	0	stimuli\sail\sail_08s.jpg	7	-1	0	0	sail_08s.jpg	0	0	0	150.508968782611	150.558951715939	0.0499829333275557
164800	50	276	0	0	hot-air_balloon	801	276	0	stimuli\hot-air_balloon\hot-air_balloon_05s.jpg	4	-1	0	0	hot-air_balloon_05s.jpg	0	0	0	150.608972927323	150.658952203521	0.0499792761984281
164900	50	277	0	0	stereo	1549	277	0	stimuli\stereo\stereo_12s.jpg	11	-1	0	0	stereo_12s.jpg	0	0	0	150.708976340713	150.758956348291	0.0499800075776875
165000	50	278	0	0	crucifix	449	278	0	stimuli\crucifix\crucifix_11s.jpg	10	-1	0	0	crucifix_11s.jpg	0	0	0	150.809003891191	150.858959274017	0.0499553828267381
165100	50	279	0	0	baseball_bat	79	279	0	stimuli\baseball_bat\baseball_bat_11s.jpg	10	-1	0	0	baseball_bat_11s.jpg	0	0	0	150.908983898815	150.958978291135	0.0499943923205137
165200	50	280	0	0	tiramisu	1663	280	0	stimuli\tiramisu\tiramisu_03s.jpg	2	-1	0	0	tiramisu_03s.jpg	0	0	0	151.009004622581	151.058983167342	0.0499785447609611
165300	50	281	0	0	videogame	1762	281	0	stimuli\videogame\videogame_03s.jpg	2	-1	0	0	videogame_03s.jpg	0	0	0	151.108986093081	151.158985849237	0.0499997561564669
165400	50	282	0	0	pear	1133	282	0	stimuli\pear\pear_05s.jpg	4	-1	0	0	pear_05s.jpg	0	0	0	151.209008035949	151.25899048167	0.0499824457219802
165500	50	283	0	0	eggshell	551	283	0	stimuli\eggshell\eggshell_02s.jpg	1	-1	0	0	eggshell_02s.jpg	0	0	0	151.309013155929	151.358989506436	0.0499763505067676
165600	50	284	0	0	rooster	1330	284	0	stimuli\rooster\rooster_01b.jpg	0	-1	0	0	rooster_01b.jpg	0	0	0	151.409009498777	151.458993894979	0.0499843962024897
165700	50	285	0	0	cheetah	315	285	0	stimuli\cheetah\cheetah_06s.jpg	5	-1	0	0	cheetah_06s.jpg	0	0	0	151.508999746409	151.558997064538	0.0499973181285895
165800	50	286	0	0	pigeon	1171	286	0	stimuli\pigeon\pigeon_03s.jpg	2	-1	0	0	pigeon_03s.jpg	0	0	0	151.609017788316	151.659001940687	0.0499841523705982
165900	50	287	0	0	credit_card	438	287	0	stimuli\credit_card\credit_card_05s.jpg	4	-1	0	0	credit_card_05s.jpg	0	0	0	151.70902144548	151.759003403538	0.0499819580581971
166000	50	288	0	0	map	970	288	0	stimuli\map\map_03s.jpg	2	-1	0	0	map_03s.jpg	0	0	0	151.808992919745	151.858985605475	0.0499926857301034
166100	50	289	0	0	van	1752	289	0	stimuli\van\van_05s.jpg	4	-1	0	0	van_05s.jpg	0	0	0	151.908997064515	151.958991456893	0.0499943923787214
166200	50	290	0	0	padlock	1095	290	0	stimuli\padlock\padlock_06s.jpg	5	-1	0	0	padlock_06s.jpg	0	0	0	152.009009498812	152.058992919745	0.0499834209331311
166300	50	291	0	0	candelabra	252	291	0	stimuli\candelabra\candelabra_03s.jpg	2	-1	0	1	candelabra_03s.jpg	0	0	0	152.109012912144	152.158994382597	0.0499814704526216
166400	50	292	0	0	bagel	55	292	0	stimuli\bagel\bagel_03s.jpg	2	-1	0	0	bagel_03s.jpg	0	0	0	152.209019007394	152.258996576886	0.0499775694916025
166500	50	293	0	0	outfit	1087	293	0	stimuli\outfit\outfit_02s.jpg	1	-1	0	0	outfit_02s.jpg	0	0	0	152.309037049301	152.359015837836	0.049978788534645
166600	50	294	0	0	tripod	1714	294	0	stimuli\tripod\tripod_12s.jpg	11	-1	0	0	tripod_12s.jpg	0	0	0	152.409036805504	152.459018519789	0.0499817142845131
166700	50	295	0	0	stilt	1555	295	0	stimuli\stilt\stilt_01b.jpg	0	-1	0	0	stilt_01b.jpg	1	0.441933556983713	1	152.509039243567	152.559017544496	0.0499783009290695
166800	50	296	0	0	leg	911	296	0	stimuli\leg\leg_02s.jpg	1	-1	0	0	leg_02s.jpg	0	0	0	152.609014862624	152.659009498777	0.0499946361524053
166900	50	297	0	0	cassette	283	297	0	stimuli\cassette\cassette_07s.jpg	6	-1	0	0	cassette_07s.jpg	0	0	0	152.709058504552	152.759029491222	0.0499709866708145
167000	50	298	0	0	drum	522	298	0	stimuli\drum\drum_05s.jpg	4	-1	0	0	drum_05s.jpg	0	0	0	152.809046801704	152.859030954074	0.0499841523705982
167100	50	299	0	0	flatiron	613	299	0	stimuli\flatiron\flatiron_03s.jpg	2	-1	0	0	flatiron_03s.jpg	0	0	0	152.909035342629	152.959033148363	0.049997805734165
167200	50	300	0	0	flagpole	606	300	0	stimuli\flagpole\flagpole_01s.jpg	0	-1	0	0	flagpole_01s.jpg	0	0	0	153.009055578848	153.059018519765	0.0499629409168847
167300	50	301	0	0	wafer	1769	301	0	stimuli\wafer\wafer_11s.jpg	10	-1	0	0	wafer_11s.jpg	1	0	0	153.109056066431	153.159037536941	0.0499814705108292
167400	50	302	0	0	typewriter	1741	302	0	stimuli\typewriter\typewriter_03s.jpg	2	-1	0	0	typewriter_03s.jpg	0	0	0	153.209041681665	153.259033635957	0.0499919542926364
167500	50	303	0	0	dice	486	303	0	stimuli\dice\dice_04s.jpg	3	-1	0	0	dice_04s.jpg	0	0	0	153.309050215001	153.359024371195	0.0499741561943665
167600	50	304	0	0	air_conditioner	4	304	0	stimuli\air_conditioner\air_conditioner_07s.jpg	6	-1	0	0	air_conditioner_07s.jpg	0	0	0	153.409047533118	153.459031197883	0.0499836647650227
167700	50	305	0	0	stick	1552	305	0	stimuli\stick\stick_12s.jpg	11	-1	0	0	stick_12s.jpg	0	0	0	153.509048752137	153.559030710254	0.0499819581164047
167800	50	306	0	0	sunglasses	1585	306	0	stimuli\sunglasses\sunglasses_08s.jpg	7	-1	0	0	sunglasses_08s.jpg	0	0	0	153.609059235954	153.659038024547	0.0499787885928527
167900	50	307	0	0	cheeseburger	313	307	0	stimuli\cheeseburger\cheeseburger_07s.jpg	6	-1	0	0	cheeseburger_07s.jpg	0	0	0	153.709072401689	153.759057041665	0.0499846399761736
168000	50	308	0	0	chandelier	305	308	0	stimuli\chandelier\chandelier_12s.jpg	11	-1	0	0	chandelier_12s.jpg	0	0	0	153.809073133103	153.859041194082	0.049968060979154
173500	50	309	0	0	beachball	99	0	1	stimuli\beachball\beachball_01b.jpg	0	-1	1	0	beachball_01b.jpg	0	0	0	159.309209422732	159.359187967493	0.0499785447609611
173600	50	310	0	0	dart	473	1	1	stimuli\dart\dart_10s.jpg	9	-1	1	0	dart_10s.jpg	0	0	0	159.409226001764	159.459208935092	0.0499829333275557
173700	50	311	0	0	kangaroo	862	2	1	stimuli\kangaroo\kangaroo_03n.jpg	2	-1	1	0	kangaroo_03n.jpg	0	0	0	159.509233803721	159.559211129381	0.0499773256597109
173800	50	312	0	0	doily	498	3	1	stimuli\doily\doily_12s.jpg	11	-1	1	0	doily_12s.jpg	0	0	0	159.609231853217	159.65920015797	0.0499683047528379
173900	50	313	0	0	bow2	175	4	1	stimuli\bow2\bow2_01s.jpg	0	-1	1	0	bow2_01s.jpg	0	0	0	159.70923526655	159.759218687483	0.0499834209331311
174000	50	314	0	0	puffin	1248	5	1	stimuli\puffin\puffin_12s.jpg	11	-1	1	0	puffin_12s.jpg	0	0	0	159.809239898925	159.859218687518	0.0499787885928527
174100	50	315	0	0	aircraft_carrier	9	6	1	stimuli\aircraft_carrier\aircraft_carrier_07s.jpg	6	-1	1	0	aircraft_carrier_07s.jpg	0	0	0	159.909225514159	159.959225026541	0.049999512382783
174200	50	316	0	0	tomato_sauce	1673	7	1	stimuli\tomato_sauce\tomato_sauce_10s.jpg	9	-1	1	0	tomato_sauce_10s.jpg	0	0	0	160.009230390366	160.059206984646	0.0499765942804515
174300	50	317	0	0	seaweed	1400	8	1	stimuli\seaweed\seaweed_07s.jpg	6	-1	1	0	seaweed_07s.jpg	0	0	0	160.109228439862	160.159217224631	0.0499887847690843
174400	50	318	0	0	trampoline	1701	9	1	stimuli\trampoline\trampoline_09s.jpg	8	-1	1	0	trampoline_09s.jpg	0	0	0	160.20925233321	160.259238679893	0.0499863466829993
174500	50	319	0	0	taxi	1630	10	1	stimuli\taxi\taxi_10s.jpg	9	-1	1	0	taxi_10s.jpg	0	0	0	160.309256965644	160.359231609385	0.0499746437417343
174600	50	320	0	0	fencepost	576	11	1	stimuli\fencepost\fencepost_06s.jpg	5	-1	1	0	fencepost_06s.jpg	0	0	0	160.40923892369	160.459234047506	0.0499951238161884
174700	50	321	0	0	card	271	12	1	stimuli\card\card_12s.jpg	11	-1	1	0	card_12s.jpg	0	0	0	160.509256477992	160.559236485627	0.0499800076358952
174800	50	322	0	0	floss	617	13	1	stimuli\floss\floss_07s.jpg	6	-1	1	0	floss_07s.jpg	0	0	0	160.609246481792	160.659237217042	0.0499907352495939
174900	50	323	0	0	headset	769	14	1	stimuli\headset\headset_09s.jpg	8	-1	1	0	headset_09s.jpg	0	0	0	160.709261354175	160.759243556065	0.0499822018900886
175000	50	324	0	0	oilcan	1073	15	1	stimuli\oilcan\oilcan_01b.jpg	0	-1	1	1	oilcan_01b.jpg	0	0	0	160.809265986551	160.859245018917	0.0499790323665366
175100	50	325	0	0	minivan	1003	16	1	stimuli\minivan\minivan_08s.jpg	7	-1	1	0	minivan_08s.jpg	0	0	0	160.90927110659	160.959251114167	0.0499800075776875
175200	50	326	0	0	hand	744	17	1	stimuli\hand\hand_12s.jpg	11	-1	1	0	hand_12s.jpg	0	0	0	161.009272081836	161.059251114202	0.0499790323665366
175300	50	327	0	0	manhole	967	18	1	stimuli\manhole\manhole_11s.jpg	10	-1	1	0	manhole_11s.jpg	1	0.350142872484867	1	161.109273544687	161.159252333222	0.049978788534645
175400	50	328	0	0	stamp1	1535	19	1	stimuli\stamp1\stamp1_07s.jpg	6	-1	1	0	stamp1_07s.jpg	0	0	0	161.209279152274	161.259258428472	0.0499792761984281
175500	50	329	0	0	armor	37	20	1	stimuli\armor\armor_01b.jpg	0	-1	1	0	armor_01b.jpg	0	0	0	161.309279396082	161.359266718035	0.0499873219523579
175600	50	330	0	0	perfume	1154	21	1	stimuli\perfume\perfume_08s.jpg	7	-1	1	0	perfume_08s.jpg	0	0	0	161.409290367563	161.459267937054	0.0499775694916025
175700	50	331	0	0	waterwheel	1794	22	1	stimuli\waterwheel\waterwheel_03s.jpg	2	-1	1	0	waterwheel_03s.jpg	0	0	0	161.509287685622	161.5592689123	0.0499812266789377
175800	50	332	0	0	hotdog	805	23	1	stimuli\hotdog\hotdog_09s.jpg	8	-1	1	0	hotdog_09s.jpg	0	0	0	161.609288660868	161.659254527534	0.0499658666667528
175900	50	333	0	0	drumstick	523	24	1	stimuli\drumstick\drumstick_01s.jpg	0	-1	1	0	drumstick_01s.jpg	0	0	0	161.709281102754	161.75927427609	0.0499931733356789
176000	50	334	0	0	skirt	1457	25	1	stimuli\skirt\skirt_07s.jpg	6	-1	1	0	skirt_07s.jpg	0	0	0	161.809299876099	161.85928329709	0.0499834209913388
176100	50	335	0	0	slug	1472	26	1	stimuli\slug\slug_10s.jpg	9	-1	1	0	slug_10s.jpg	0	0	0	161.909300607571	161.959284272278	0.049983664706815
176200	50	336	0	0	chalkboard	303	27	1	stimuli\chalkboard\chalkboard_11s.jpg	10	-1	1	0	chalkboard_11s.jpg	0	0	0	162.009288417059	162.059281590395	0.0499931733356789
176300	50	337	0	0	gravel	709	28	1	stimuli\gravel\gravel_11s.jpg	10	-1	1	0	gravel_11s.jpg	0	0	0	162.109294512309	162.159268912277	0.0499743999680504
176400	50	338	0	0	grille	715	29	1	stimuli\grille\grille_05s.jpg	4	-1	1	0	grille_05s.jpg	0	0	0	162.209290367551	162.259270618961	0.0499802514095791
176500	50	339	0	0	turkey	1733	30	1	stimuli\turkey\turkey_12s.jpg	11	-1	1	0	turkey_12s.jpg	0	0	0	162.309291098965	162.359270862769	0.0499797638040036
176600	50	340	0	0	bull	214	31	1	stimuli\bull\bull_09s.jpg	8	-1	1	0	bull_09s.jpg	0	0	0	162.409294024692	162.45927403227	0.0499800075776875
176700	50	341	0	0	telescope	1640	32	1	stimuli\telescope\telescope_06s.jpg	5	-1	1	0	telescope_06s.jpg	0	0	0	162.509294024669	162.559298900887	0.0500048762187362
176800	50	342	0	0	helmet	776	33	1	stimuli\helmet\helmet_09s.jpg	8	-1	1	0	helmet_09s.jpg	0	0	0	162.609301826626	162.659282321809	0.049980495183263
176900	50	343	0	0	potholder	1232	34	1	stimuli\potholder\potholder_06s.jpg	5	-1	1	0	potholder_06s.jpg	0	0	0	162.70930450852	162.759283053281	0.0499785447609611
177000	50	344	0	0	coop	404	35	1	stimuli\coop\coop_06s.jpg	5	-1	1	0	coop_06s.jpg	0	0	0	162.809313041857	162.859295731352	0.0499826894956641
177100	50	345	0	0	seesaw	1402	36	1	stimuli\seesaw\seesaw_11s.jpg	10	-1	1	0	seesaw_11s.jpg	0	0	0	162.909316698962	162.959291098989	0.0499744000262581
177200	50	346	0	0	spam	1504	37	1	stimuli\spam\spam_05s.jpg	4	-1	1	0	spam_05s.jpg	0	0	0	163.00930548372	163.059284759918	0.0499792761984281
177300	50	347	0	0	branch	192	38	1	stimuli\branch\branch_08s.jpg	7	-1	1	0	branch_08s.jpg	0	0	0	163.109330352338	163.159294999903	0.0499646475655027
177400	50	348	0	0	ravioli	1289	39	1	stimuli\ravioli\ravioli_03s.jpg	2	-1	1	0	ravioli_03s.jpg	0	0	0	163.209311579005	163.259293537063	0.0499819580581971
177500	50	349	0	0	pot	1230	40	1	stimuli\pot\pot_05s.jpg	4	-1	1	0	pot_05s.jpg	0	0	0	163.309312798025	163.359322550416	0.0500097523909062
177600	50	350	0	0	balance_beam	58	41	1	stimuli\balance_beam\balance_beam_12s.jpg	11	-1	1	0	balance_beam_12s.jpg	0	0	0	163.409340348502	163.459303045645	0.0499626971432008
177700	50	351	0	0	sauerkraut	1364	42	1	stimuli\sauerkraut\sauerkraut_02s.jpg	1	-1	1	0	sauerkraut_02s.jpg	0	0	0	163.509341323748	163.559322794259	0.0499814705108292
177800	50	352	0	0	handbrake	745	43	1	stimuli\handbrake\handbrake_03s.jpg	2	-1	1	0	handbrake_03s.jpg	0	0	0	163.609350100916	163.659310359915	0.0499602589989081
177900	50	353	0	0	pin	1177	44	1	stimuli\pin\pin_10s.jpg	9	-1	1	0	pin_10s.jpg	0	0	0	163.709349125682	163.759310847556	0.0499617218738422
178000	50	354	0	0	pipe2	1187	45	1	stimuli\pipe2\pipe2_09s.jpg	8	-1	1	0	pipe2_09s.jpg	0	0	0	163.809350832365	163.859330352338	0.049979519972112
178100	50	355	0	0	apple_tree	31	46	1	stimuli\apple_tree\apple_tree_06s.jpg	5	-1	1	0	apple_tree_06s.jpg	0	0	0	163.909356196178	163.959333521838	0.0499773256597109
178200	50	356	0	0	parfait	1119	47	1	stimuli\parfait\parfait_04s.jpg	3	-1	1	0	parfait_04s.jpg	0	0	0	164.009339373268	164.059323038033	0.0499836647650227
178300	50	357	0	0	pine_tree	1181	48	1	stimuli\pine_tree\pine_tree_10s.jpg	9	-1	1	0	pine_tree_10s.jpg	0	0	0	164.109366192366	164.159338398022	0.0499722056556493
178400	50	358	0	0	eye	564	49	1	stimuli\eye\eye_10s.jpg	9	-1	1	0	eye_10s.jpg	0	0	0	164.20934424951	164.259341811412	0.0499975619022734
178500	50	359	0	0	faucet	573	50	1	stimuli\faucet\faucet_10s.jpg	9	-1	1	0	faucet_10s.jpg	0	0	0	164.309346931404	164.359345956123	0.0499990247189999
178600	50	360	0	0	blowtorch	148	51	1	stimuli\blowtorch\blowtorch_06s.jpg	5	-1	1	0	blowtorch_06s.jpg	0	0	0	164.409364485706	164.459351076162	0.0499865904566832
178700	50	361	0	0	thumbtack	1654	52	1	stimuli\thumbtack\thumbtack_02s.jpg	1	-1	1	0	thumbtack_02s.jpg	0	0	0	164.509371068561	164.559337179002	0.0499661104404368
178800	50	362	0	0	punch1	1254	53	1	stimuli\punch1\punch1_12s.jpg	11	-1	1	0	punch1_12s.jpg	0	0	0	164.609373750456	164.659353270428	0.049979519972112
178900	50	363	0	0	lemon	914	54	1	stimuli\lemon\lemon_06s.jpg	5	-1	1	0	lemon_06s.jpg	0	0	0	164.709374969476	164.759354489506	0.0499795200303197
179000	50	364	0	0	ferret	578	55	1	stimuli\ferret\ferret_03s.jpg	2	-1	1	0	ferret_03s.jpg	0	0	0	164.809377651429	164.859359121881	0.0499814704526216
179100	50	365	0	0	jukebox	857	56	1	stimuli\jukebox\jukebox_11s.jpg	10	-1	1	0	jukebox_11s.jpg	0	0	0	164.909382283804	164.959361803776	0.049979519972112
179200	50	366	0	0	scallion	1372	57	1	stimuli\scallion\scallion_11s.jpg	10	-1	1	0	scallion_11s.jpg	0	0	0	165.009383015218	165.059366436151	0.0499834209331311
179300	50	367	0	0	arch	35	58	1	stimuli\arch\arch_01b.jpg	0	-1	1	0	arch_01b.jpg	0	0	0	165.109375213331	165.159347906651	0.0499726933194324
179400	50	368	0	0	rake	1281	59	1	stimuli\rake\rake_05s.jpg	4	-1	1	0	rake_05s.jpg	0	0	0	165.209389598109	165.259373262816	0.049983664706815
179500	50	369	0	0	camper	249	60	1	stimuli\camper\camper_11s.jpg	10	-1	1	0	camper_11s.jpg	0	0	0	165.309389841917	165.359353514272	0.0499636723543517
179600	50	370	0	0	torpedo	1684	61	1	stimuli\torpedo\torpedo_04s.jpg	3	-1	1	0	torpedo_04s.jpg	0	0	0	165.409374481882	165.459355952335	0.0499814704526216
179700	50	371	0	0	hyena	815	62	1	stimuli\hyena\hyena_03s.jpg	2	-1	1	0	hyena_03s.jpg	0	0	0	165.509393499058	165.559377407597	0.0499839085387066
179800	50	372	0	0	harp	755	63	1	stimuli\harp\harp_01b.jpg	0	-1	1	0	harp_01b.jpg	0	0	0	165.609404958086	165.659378626675	0.049973668588791
179900	50	373	0	0	shoe_polish	1424	64	1	stimuli\shoe_polish\shoe_polish_08s.jpg	7	-1	1	0	shoe_polish_08s.jpg	0	0	0	165.709382527624	165.75935765903	0.0499751314055175
180000	50	374	0	0	vent	1758	65	1	stimuli\vent\vent_05s.jpg	4	-1	1	0	vent_05s.jpg	0	0	0	165.809398619051	165.859370337101	0.0499717180500738
180100	50	375	0	0	bongo	162	66	1	stimuli\bongo\bongo_08s.jpg	7	-1	1	0	bongo_08s.jpg	0	0	0	165.909412759996	165.959387891402	0.0499751314055175
180200	50	376	0	0	peach	1129	67	1	stimuli\peach\peach_12s.jpg	11	-1	1	0	peach_12s.jpg	0	0	0	166.009397643793	166.059407883789	0.0500102399964817
180300	50	377	0	0	quill	1263	68	1	stimuli\quill\quill_08s.jpg	7	-1	1	0	quill_08s.jpg	0	0	0	166.109417392407	166.159377895237	0.0499605028307997
180400	50	378	0	0	terrarium	1644	69	1	stimuli\terrarium\terrarium_08s.jpg	7	-1	1	0	terrarium_08s.jpg	0	0	0	166.209421537176	166.259380820906	0.0499592837295495
180500	50	379	0	0	grenade	713	70	1	stimuli\grenade\grenade_11s.jpg	10	-1	1	0	grenade_11s.jpg	0	0	0	166.309421293321	166.359376188542	0.0499548952211626
180600	50	380	0	0	train_set	1700	71	1	stimuli\train_set\train_set_10s.jpg	9	-1	1	0	train_set_10s.jpg	0	0	0	166.409422756173	166.459395937156	0.0499731809832156
180700	50	381	0	0	suitcase	1581	72	1	stimuli\suitcase\suitcase_03s.jpg	2	-1	1	1	suitcase_03s.jpg	0	0	0	166.509417148598	166.559372287593	0.0499551389948465
180800	50	382	0	0	toaster	1666	73	1	stimuli\toaster\toaster_09s.jpg	8	-1	1	0	toaster_09s.jpg	0	0	0	166.609429339063	166.659408859035	0.049979519972112
180900	50	383	0	0	shark	1409	74	1	stimuli\shark\shark_09s.jpg	8	-1	1	0	shark_09s.jpg	0	0	0	166.709429582872	166.759411784762	0.0499822018900886
181000	50	384	0	0	clipboard	355	75	1	stimuli\clipboard\clipboard_11s.jpg	10	-1	1	0	clipboard_11s.jpg	1	0.341912101721391	1	166.809429826681	166.859412760008	0.0499829333275557
181100	50	385	0	0	snowplow	1484	76	1	stimuli\snowplow\snowplow_12s.jpg	11	-1	1	0	snowplow_12s.jpg	0	0	0	166.909434946661	166.95941617334	0.0499812266789377
181200	50	386	0	0	raspberry	1284	77	1	stimuli\raspberry\raspberry_03n.jpg	2	-1	1	0	raspberry_03n.jpg	0	0	0	167.009436165739	167.059424462845	0.0499882971053012
181300	50	387	0	0	bok_choy	156	78	1	stimuli\bok_choy\bok_choy_08s.jpg	7	-1	1	0	bok_choy_08s.jpg	0	0	0	167.10944128572	167.159420318087	0.0499790323665366
181400	50	388	0	0	overalls	1090	79	1	stimuli\overalls\overalls_09s.jpg	8	-1	1	0	overalls_09s.jpg	0	0	0	167.209441041923	167.259403739066	0.0499626971432008
181500	50	389	0	0	skateboard	1449	80	1	stimuli\skateboard\skateboard_10s.jpg	9	-1	1	0	skateboard_10s.jpg	0	0	0	167.309446649568	167.359428607626	0.0499819580581971
181600	50	390	0	0	chinchilla	332	81	1	stimuli\chinchilla\chinchilla_06s.jpg	5	-1	1	0	chinchilla_06s.jpg	0	0	0	167.409445430501	167.459426900954	0.0499814704526216
181700	50	391	0	0	incubator	827	82	1	stimuli\incubator\incubator_07s.jpg	6	-1	1	0	incubator_07s.jpg	0	0	0	167.509449819045	167.559428120032	0.0499783009872772
181800	50	392	0	0	snorkel	1478	83	1	stimuli\snorkel\snorkel_06s.jpg	5	-1	1	0	snorkel_06s.jpg	0	0	0	167.609452988603	167.65943202097	0.0499790323665366
181900	50	393	0	0	chimney	329	84	1	stimuli\chimney\chimney_07s.jpg	6	-1	1	0	chimney_07s.jpg	0	0	0	167.709438360005	167.759436409513	0.0499980495078489
182001	50	394	0	0	pelican	1140	85	1	stimuli\pelican\pelican_07s.jpg	6	-1	1	0	pelican_07s.jpg	0	0	0	167.809458596224	167.85943933524	0.0499807390151545
182101	50	395	0	0	radio	1273	86	1	stimuli\radio\radio_05s.jpg	4	-1	1	0	radio_05s.jpg	0	0	0	167.909444699064	167.959429095266	0.0499843962024897
182200	50	396	0	0	sim_card	1446	87	1	stimuli\sim_card\sim_card_12s.jpg	11	-1	1	0	sim_card_12s.jpg	0	0	0	168.009435921907	168.059409590496	0.049973668588791
182300	50	397	0	0	watermelon	1793	88	1	stimuli\watermelon\watermelon_01b.jpg	0	-1	1	0	watermelon_01b.jpg	0	0	0	168.109452013334	168.159446405713	0.0499943923787214
182400	50	398	0	0	clothespin	363	89	1	stimuli\clothespin\clothespin_04s.jpg	3	-1	1	0	clothespin_04s.jpg	0	0	0	168.209447624802	168.259415685723	0.0499680609209463
182501	50	399	0	0	torso	1685	90	1	stimuli\torso\torso_08s.jpg	7	-1	1	0	torso_08s.jpg	0	0	0	168.309451038134	168.359419830493	0.0499687923584133
182601	50	400	0	0	jackhammer	837	91	1	stimuli\jackhammer\jackhammer_01b.jpg	0	-1	1	0	jackhammer_01b.jpg	0	0	0	168.409442748583	168.459419342864	0.0499765942804515
182701	50	401	0	0	lemonade	915	92	1	stimuli\lemonade\lemonade_03s.jpg	2	-1	1	0	lemonade_03s.jpg	0	0	0	168.509443967661	168.559461034311	0.0500170666491613
182801	50	402	0	0	patch	1125	93	1	stimuli\patch\patch_08s.jpg	7	-1	1	0	patch_08s.jpg	0	0	0	168.609470299096	168.659459083865	0.0499887847690843
182901	50	403	0	0	parachute	1118	94	1	stimuli\parachute\parachute_08s.jpg	7	-1	1	0	parachute_08s.jpg	0	0	0	168.709467373381	168.75946079049	0.0499934171093628
183001	50	404	0	0	honey	788	95	1	stimuli\honey\honey_02s.jpg	1	-1	1	0	honey_02s.jpg	0	0	0	168.809484196245	168.859452500998	0.0499683047528379
183101	50	405	0	0	cocktail	374	96	1	stimuli\cocktail\cocktail_06s.jpg	5	-1	1	0	cocktail_06s.jpg	0	0	0	168.909487121971	168.959467129549	0.0499800075776875
183201	50	406	0	0	coffee_table	381	97	1	stimuli\coffee_table\coffee_table_10s.jpg	9	-1	1	0	coffee_table_10s.jpg	0	0	0	169.009488340991	169.059474687674	0.0499863466829993
183301	50	407	0	0	filing_cabinet	585	98	1	stimuli\filing_cabinet\filing_cabinet_11s.jpg	10	-1	1	0	filing_cabinet_11s.jpg	0	0	0	169.109498824808	169.159475175256	0.04997635044856
183401	50	408	0	0	reindeer	1301	99	1	stimuli\reindeer\reindeer_04s.jpg	3	-1	1	0	reindeer_04s.jpg	0	0	0	169.209495167655	169.25945884001	0.0499636723543517
183501	50	409	0	0	chariot	309	100	1	stimuli\chariot\chariot_02s.jpg	1	-1	1	0	chariot_02s.jpg	0	0	0	169.309501750511	169.359478344792	0.0499765942804515
183601	50	410	0	0	laundry_basket	902	101	1	stimuli\laundry_basket\laundry_basket_08s.jpg	7	-1	1	0	laundry_basket_08s.jpg	0	0	0	169.409500043839	169.459480539081	0.0499804952414706
183701	50	411	0	0	pom-pom	1218	102	1	stimuli\pom-pom\pom-pom_12s.jpg	11	-1	1	0	pom-pom_12s.jpg	0	0	0	169.509501750523	169.559471518151	0.0499697676277719
183801	50	412	0	0	pen	1141	103	1	stimuli\pen\pen_01b.jpg	0	-1	1	0	pen_01b.jpg	0	0	0	169.609512721945	169.659470055252	0.0499573333072476
183901	50	413	0	0	yak	1845	104	1	stimuli\yak\yak_03s.jpg	2	-1	1	0	yak_03s.jpg	0	0	0	169.709506870538	169.759498580999	0.0499917104607448
184001	50	414	0	0	calf2	242	105	1	stimuli\calf2\calf2_04s.jpg	3	-1	1	0	calf2_04s.jpg	0	0	0	169.809514184832	169.859490291448	0.0499761066166684
184101	50	415	0	0	wing	1827	106	1	stimuli\wing\wing_07s.jpg	6	-1	1	0	wing_07s.jpg	0	0	0	169.909514184808	169.959492729569	0.0499785447609611
184201	50	416	0	0	eggbeater	548	107	1	stimuli\eggbeater\eggbeater_11s.jpg	10	-1	1	0	eggbeater_11s.jpg	0	0	0	170.009517110535	170.059482489538	0.0499653790029697
184301	50	417	0	0	whiteboard	1813	108	1	stimuli\whiteboard\whiteboard_12s.jpg	11	-1	1	0	whiteboard_12s.jpg	0	0	0	170.109521011473	170.159484440053	0.0499634285806678
184401	50	418	0	0	camel	245	109	1	stimuli\camel\camel_08s.jpg	7	-1	1	0	camel_08s.jpg	0	0	0	170.209522961988	170.259486878116	0.0499639161280356
184501	50	419	0	0	ukulele	1742	110	1	stimuli\ukulele\ukulele_04s.jpg	3	-1	1	0	ukulele_04s.jpg	0	0	0	170.309531739098	170.359506382898	0.049974643799942
184601	50	420	0	0	centerpiece	295	111	1	stimuli\centerpiece\centerpiece_09s.jpg	8	-1	1	0	centerpiece_09s.jpg	0	0	0	170.409529788652	170.459494923882	0.0499651352292858
184701	50	421	0	0	grate	707	112	1	stimuli\grate\grate_06s.jpg	5	-1	1	0	grate_06s.jpg	0	0	0	170.509532714379	170.559510771476	0.049978057097178
184801	50	422	0	0	meerkat	992	113	1	stimuli\meerkat\meerkat_10s.jpg	9	-1	1	0	meerkat_10s.jpg	0	0	0	170.609534908668	170.65951247816	0.0499775694916025
184901	50	423	0	0	window	1818	114	1	stimuli\window\window_11s.jpg	10	-1	1	0	window_11s.jpg	0	0	0	170.70955904579	170.759499312437	0.0499402666464448
185001	50	424	0	0	pedal	1136	115	1	stimuli\pedal\pedal_09s.jpg	8	-1	1	0	pedal_09s.jpg	0	0	0	170.809523205797	170.859501750558	0.0499785447609611
185101	50	425	0	0	kneepad	878	116	1	stimuli\kneepad\kneepad_04s.jpg	3	-1	1	0	kneepad_04s.jpg	0	0	0	170.909524668648	170.959502481972	0.049977813323494
185201	50	426	0	0	scallop	1373	117	1	stimuli\scallop\scallop_06s.jpg	5	-1	1	0	scallop_06s.jpg	0	0	0	171.00954417343	171.05952344957	0.0499792761402205
185301	50	427	0	0	bracelet2	188	118	1	stimuli\bracelet2\bracelet2_02s.jpg	1	-1	1	1	bracelet2_02s.jpg	0	0	0	171.109530520043	171.159507358156	0.0499768381123431
185401	50	428	0	0	hairbrush	734	119	1	stimuli\hairbrush\hairbrush_07s.jpg	6	-1	1	0	hairbrush_07s.jpg	0	0	0	171.209528081992	171.259509308613	0.04998122662073
185501	50	429	0	0	javelin	841	120	1	stimuli\javelin\javelin_02s.jpg	1	-1	1	0	javelin_02s.jpg	0	0	0	171.309530520055	171.359516135301	0.0499856152455322
185601	50	430	0	0	bucket	209	121	1	stimuli\bucket\bucket_06n.jpg	5	-1	1	0	bucket_06n.jpg	0	0	0	171.4095361277	171.459515647672	0.049979519972112
185701	50	431	0	0	crystal1	453	122	1	stimuli\crystal1\crystal1_11s.jpg	10	-1	1	0	crystal1_11s.jpg	0	0	0	171.509540272469	171.559543441981	0.0500031695119105
185801	50	432	0	0	caviar	289	123	1	stimuli\caviar\caviar_07s.jpg	6	-1	1	0	caviar_07s.jpg	1	0.500189196318388	1	171.609558801982	171.659540516266	0.0499817142845131
185901	50	433	0	0	lunchbox	950	124	1	stimuli\lunchbox\lunchbox_06s.jpg	5	-1	1	0	lunchbox_06s.jpg	0	0	0	171.70954588009	171.759523693414	0.049977813323494
186001	50	434	0	0	teddy_bear	1635	125	1	stimuli\teddy_bear\teddy_bear_01b.jpg	0	-1	1	0	teddy_bear_01b.jpg	0	0	0	171.809546123899	171.859523937223	0.049977813323494
186101	50	435	0	0	soap	1487	126	1	stimuli\soap\soap_10s.jpg	9	-1	1	0	soap_10s.jpg	0	0	0	171.909547099145	171.959525643906	0.0499785447609611
186201	50	436	0	0	loom	946	127	1	stimuli\loom\loom_12s.jpg	11	-1	1	0	loom_12s.jpg	0	0	0	172.009547830559	172.059559533431	0.0500117028714158
186301	50	437	0	0	slipper	1468	128	1	stimuli\slipper\slipper_10s.jpg	9	-1	1	0	slipper_10s.jpg	0	0	0	172.109577331517	172.159553925798	0.0499765942804515
186401	50	438	0	0	penlight	1147	129	1	stimuli\penlight\penlight_01b.jpg	0	-1	1	0	penlight_01b.jpg	0	0	0	172.209575868677	172.259558070567	0.0499822018900886
186501	50	439	0	0	water_heater	1791	130	1	stimuli\water_heater\water_heater_12s.jpg	11	-1	1	0	water_heater_12s.jpg	0	0	0	172.309577575361	172.359559777251	0.0499822018900886
186601	50	440	0	0	ferry	580	131	1	stimuli\ferry\ferry_04s.jpg	3	-1	1	0	ferry_04s.jpg	0	0	0	172.409584158217	172.459563922021	0.0499797638040036
186701	50	441	0	0	shield	1420	132	1	stimuli\shield\shield_05s.jpg	4	-1	1	0	shield_05s.jpg	0	0	0	172.509570261056	172.559570504876	0.05000024382025
186801	50	442	0	0	cranberry	430	133	1	stimuli\cranberry\cranberry_12s.jpg	11	-1	1	0	cranberry_12s.jpg	0	0	0	172.609590009612	172.659568066767	0.0499780571553856
186901	50	443	0	0	grape	702	134	1	stimuli\grape\grape_03s.jpg	2	-1	1	0	grape_03s.jpg	0	0	0	172.709573430591	172.759553925775	0.049980495183263
187001	50	444	0	0	dishrag	490	135	1	stimuli\dishrag\dishrag_10s.jpg	9	-1	1	0	dishrag_10s.jpg	0	0	0	172.809592935373	172.859573186783	0.0499802514095791
187101	50	445	0	0	drain	515	136	1	stimuli\drain\drain_01b.jpg	0	-1	1	0	drain_01b.jpg	0	0	0	172.90959488583	172.959579769638	0.0499848838080652
187201	50	446	0	0	basketball	83	137	1	stimuli\basketball\basketball_05s.jpg	4	-1	1	0	basketball_05s.jpg	0	0	0	173.009589765803	173.059569529607	0.0499797638040036
187301	50	447	0	0	denture	478	138	1	stimuli\denture\denture_08s.jpg	7	-1	1	0	denture_08s.jpg	0	0	0	173.109595861053	173.159573918208	0.0499780571553856
187401	50	448	0	0	ivy	834	139	1	stimuli\ivy\ivy_04s.jpg	3	-1	1	0	ivy_04s.jpg	0	0	0	173.209596348694	173.259578794416	0.0499824457219802
187501	50	449	0	0	pepper2	1150	140	1	stimuli\pepper2\pepper2_07s.jpg	6	-1	1	0	pepper2_07s.jpg	0	0	0	173.309601224901	173.359567091509	0.0499658666085452
187601	50	450	0	0	turnstile	1734	141	1	stimuli\turnstile\turnstile_08s.jpg	7	-1	1	0	turnstile_08s.jpg	0	0	0	173.409594398225	173.459576112509	0.0499817142845131
187701	50	451	0	0	telephone_pole	1639	142	1	stimuli\telephone_pole\telephone_pole_07s.jpg	6	-1	1	0	telephone_pole_07s.jpg	0	0	0	173.509597080119	173.559569773439	0.0499726933194324
187801	50	452	0	0	noisemaker	1060	143	1	stimuli\noisemaker\noisemaker_08s.jpg	7	-1	1	0	noisemaker_08s.jpg	0	0	0	173.609596348659	173.659574161982	0.049977813323494
187901	50	453	0	0	shell1	1417	144	1	stimuli\shell1\shell1_08s.jpg	7	-1	1	0	shell1_08s.jpg	0	0	0	173.709598299174	173.759576356271	0.049978057097178
188001	50	454	0	0	book	165	145	1	stimuli\book\book_03s.jpg	2	-1	1	0	book_03s.jpg	0	0	0	173.809617072518	173.859596592491	0.049979519972112
188101	50	455	0	0	stem	1547	146	1	stimuli\stem\stem_08s.jpg	7	-1	1	0	stem_08s.jpg	0	0	0	173.90960049344	173.959596592467	0.0499960990273394
188201	50	456	0	0	comb	389	147	1	stimuli\comb\comb_06s.jpg	5	-1	1	0	comb_06s.jpg	0	0	0	174.00961975439	174.059600005858	0.0499802514677867
188301	50	457	0	0	vest	1759	148	1	stimuli\vest\vest_11s.jpg	10	-1	1	0	vest_11s.jpg	0	0	0	174.109601224889	174.15958440199	0.0499831771012396
188401	50	458	0	0	ballot_box	61	149	1	stimuli\ballot_box\ballot_box_11s.jpg	10	-1	1	0	ballot_box_11s.jpg	0	0	0	174.209606832475	174.259585621068	0.0499787885928527
188501	50	459	0	0	sunflower	1584	150	1	stimuli\sunflower\sunflower_09s.jpg	8	-1	1	0	sunflower_09s.jpg	0	0	0	174.309639503015	174.359610245854	0.0499707428389229
188601	50	460	0	0	gyro	730	151	1	stimuli\gyro\gyro_05s.jpg	4	-1	1	0	gyro_05s.jpg	0	0	0	174.409629750589	174.459597323905	0.0499675733153708
188701	50	461	0	0	jacket	836	152	1	stimuli\jacket\jacket_04s.jpg	3	-1	1	0	jacket_04s.jpg	0	0	0	174.509634139191	174.559615122038	0.0499809828470461
188801	50	462	0	0	tape_measure	1623	153	1	stimuli\tape_measure\tape_measure_01b.jpg	0	-1	1	0	tape_measure_01b.jpg	0	0	0	174.609638771566	174.659618779202	0.0499800076358952
188901	50	463	0	0	waffle	1770	154	1	stimuli\waffle\waffle_11s.jpg	10	-1	1	0	waffle_11s.jpg	0	0	0	174.7096375525	174.759618291573	0.0499807390733622
189001	50	464	0	0	turbine	1731	155	1	stimuli\turbine\turbine_02s.jpg	1	-1	1	0	turbine_02s.jpg	0	0	0	174.809640234453	174.859626337246	0.0499861027929001
189101	50	465	0	0	crepe	440	156	1	stimuli\crepe\crepe_01b.jpg	0	-1	1	0	crepe_01b.jpg	0	0	0	174.90964413539	174.959607807745	0.0499636723543517
189201	50	466	0	0	birdhouse	131	157	1	stimuli\birdhouse\birdhouse_10s.jpg	9	-1	1	1	birdhouse_10s.jpg	0	0	0	175.009650962078	175.05963048205	0.049979519972112
189301	50	467	0	0	manatee	964	158	1	stimuli\manatee\manatee_10n.jpg	9	-1	1	0	manatee_10n.jpg	0	0	0	175.109664127755	175.159629750589	0.0499656228348613
189401	50	468	0	0	satellite	1360	159	1	stimuli\satellite\satellite_06s.jpg	5	-1	1	0	satellite_06s.jpg	0	0	0	175.209637308726	175.259636333445	0.0499990247189999
189501	50	469	0	0	baton3	94	160	1	stimuli\baton3\baton3_12s.jpg	11	-1	1	0	baton3_12s.jpg	1	0.341945747437421	1	175.309657057282	175.359635845874	0.0499787885928527
189601	50	470	0	0	hockey_stick	783	161	1	stimuli\hockey_stick\hockey_stick_03s.jpg	2	-1	1	0	hockey_stick_03s.jpg	0	0	0	175.409641697304	175.459622192488	0.049980495183263
189701	50	471	0	0	lettuce	920	162	1	stimuli\lettuce\lettuce_12s.jpg	11	-1	1	0	lettuce_12s.jpg	0	0	0	175.509659982985	175.559614634432	0.0499546514474787
189801	50	472	0	0	juicer2	856	163	1	stimuli\juicer2\juicer2_06s.jpg	5	-1	1	0	juicer2_06s.jpg	0	0	0	175.609646573488	175.659625849628	0.0499792761402205
189901	50	473	0	0	bat1	87	164	1	stimuli\bat1\bat1_07s.jpg	6	-1	1	0	bat1_07s.jpg	0	0	0	175.709675099235	175.759628531581	0.0499534323462285
190001	50	474	0	0	corn	412	165	1	stimuli\corn\corn_01s.jpg	0	-1	1	0	corn_01s.jpg	0	0	0	175.809650962066	175.859664371586	0.0500134095200337
190101	50	475	0	0	fox	638	166	1	stimuli\fox\fox_02s.jpg	1	-1	1	0	fox_02s.jpg	0	0	0	175.909670710622	175.959650718258	0.0499800076358952
190201	50	476	0	0	chips	335	167	1	stimuli\chips\chips_08s.jpg	7	-1	1	0	chips_08s.jpg	0	0	0	176.009672904911	176.059655838239	0.0499829333275557
190301	50	477	0	0	railing	1277	168	1	stimuli\railing\railing_07s.jpg	6	-1	1	0	railing_07s.jpg	0	0	0	176.109678756329	176.159639746824	0.0499609904945828
190401	50	478	0	0	wrench	1841	169	1	stimuli\wrench\wrench_05s.jpg	4	-1	1	0	wrench_05s.jpg	0	0	0	176.209684120142	176.259654131602	0.0499700114596635
190501	50	479	0	0	lion	933	170	1	stimuli\lion\lion_02s.jpg	1	-1	1	0	lion_02s.jpg	0	0	0	176.309684607782	176.359665346798	0.0499807390151545
190601	50	480	0	0	carousel	275	171	1	stimuli\carousel\carousel_12s.jpg	11	-1	1	0	carousel_12s.jpg	0	0	0	176.409668272536	176.459665346832	0.049997074296698
190701	50	481	0	0	metronome	997	172	1	stimuli\metronome\metronome_03s.jpg	2	-1	1	0	metronome_03s.jpg	0	0	0	176.509674855391	176.559665346809	0.0499904914177023
190801	50	482	0	0	license_plate	921	173	1	stimuli\license_plate\license_plate_03s.jpg	2	-1	1	0	license_plate_03s.jpg	0	0	0	176.609693872568	176.659671685891	0.049977813323494
190901	50	483	0	0	eggplant	550	174	1	stimuli\eggplant\eggplant_11s.jpg	10	-1	1	0	eggplant_11s.jpg	0	0	0	176.709677293489	176.759679975396	0.0500026819063351
191001	50	484	0	0	hairpin	737	175	1	stimuli\hairpin\hairpin_09s.jpg	8	-1	1	0	hairpin_09s.jpg	0	0	0	176.80969850492	176.859679487767	0.0499809828470461
191101	50	485	0	0	washing_machine	1784	176	1	stimuli\washing_machine\washing_machine_01b.jpg	0	-1	1	0	washing_machine_01b.jpg	0	0	0	176.909697773517	176.959664127789	0.0499663542723283
191201	50	486	0	0	flan	609	177	1	stimuli\flan\flan_12s.jpg	11	-1	1	0	flan_12s.jpg	0	0	0	177.009688021149	177.059696310665	0.0500082895159721
191301	50	487	0	0	sewing_machine	1407	178	1	stimuli\sewing_machine\sewing_machine_09s.jpg	8	-1	1	0	sewing_machine_09s.jpg	0	0	0	177.109704600181	177.159683388716	0.049978788534645
191401	50	488	0	0	dumbbell	530	179	1	stimuli\dumbbell\dumbbell_11s.jpg	10	-1	1	0	dumbbell_11s.jpg	0	0	0	177.209708988725	177.259681682044	0.0499726933194324
191501	50	489	0	0	sandbox	1354	180	1	stimuli\sandbox\sandbox_08s.jpg	7	-1	1	0	sandbox_08s.jpg	0	0	0	177.309718253498	177.359713377315	0.0499951238161884
191601	50	490	0	0	bike	123	181	1	stimuli\bike\bike_10s.jpg	9	-1	1	0	bike_10s.jpg	0	0	0	177.409707282088	177.459695823025	0.0499885409371927
191701	50	491	0	0	moth	1023	182	1	stimuli\moth\moth_04n.jpg	3	-1	1	0	moth_04n.jpg	0	0	0	177.509726543038	177.559682657302	0.0499561142642051
191801	50	492	0	0	chaps	306	183	1	stimuli\chaps\chaps_09s.jpg	8	-1	1	0	chaps_09s.jpg	0	0	0	177.609723129717	177.659684851591	0.0499617218738422
191901	50	493	0	0	bracket	189	184	1	stimuli\bracket\bracket_02s.jpg	1	-1	1	0	bracket_02s.jpg	0	0	0	177.709724592569	177.759695091576	0.0499704990070313
192001	50	494	0	0	ice_cream	818	185	1	stimuli\ice_cream\ice_cream_03s.jpg	2	-1	1	0	ice_cream_03s.jpg	0	0	0	177.809726543026	177.859705819224	0.0499792761984281
192101	50	495	0	0	cow	426	186	1	stimuli\cow\cow_04s.jpg	3	-1	1	0	cow_04s.jpg	0	0	0	177.90971410874	177.959695091587	0.0499809828470461
192201	50	496	0	0	crouton	445	187	1	stimuli\crouton\crouton_06s.jpg	5	-1	1	0	crouton_06s.jpg	0	0	0	178.009713864943	178.059712645889	0.049998780945316
192301	50	497	0	0	slingshot	1467	188	1	stimuli\slingshot\slingshot_01b.jpg	0	-1	1	0	slingshot_01b.jpg	0	0	0	178.109737026854	178.159716790658	0.0499797638040036
192401	50	498	0	0	bathmat	89	189	1	stimuli\bathmat\bathmat_06s.jpg	5	-1	1	0	bathmat_06s.jpg	0	0	0	178.209722154483	178.259718984948	0.0499968304648064
192501	50	499	0	0	flower	619	190	1	stimuli\flower\flower_08s.jpg	7	-1	1	0	flower_08s.jpg	0	0	0	178.30974019639	178.359726786846	0.0499865904566832
192601	50	500	0	0	bead	100	191	1	stimuli\bead\bead_02s.jpg	1	-1	1	0	bead_02s.jpg	0	0	0	178.409726543061	178.459707282076	0.0499807390151545
192701	50	501	0	0	wheelchair	1808	192	1	stimuli\wheelchair\wheelchair_05s.jpg	4	-1	1	0	wheelchair_05s.jpg	0	0	0	178.50974751066	178.559725080209	0.0499775695498101
192801	50	502	0	0	grapevine	704	193	1	stimuli\grapevine\grapevine_06s.jpg	5	-1	1	0	grapevine_06s.jpg	0	0	0	178.609751899261	178.659729956358	0.049978057097178
192901	50	503	0	0	zucchini	1853	194	1	stimuli\zucchini\zucchini_11s.jpg	10	-1	1	0	zucchini_11s.jpg	1	0	0	178.709748973546	178.759715327818	0.0499663542723283
193001	50	504	0	0	thermos	1647	195	1	stimuli\thermos\thermos_09s.jpg	8	-1	1	0	thermos_09s.jpg	0	0	0	178.809740927827	178.859717278276	0.04997635044856
193101	50	505	0	0	biscuit	133	196	1	stimuli\biscuit\biscuit_02s.jpg	1	-1	1	0	biscuit_02s.jpg	0	0	0	178.909736051632	178.959717522084	0.0499814704526216
193201	50	506	0	0	snow	1479	197	1	stimuli\snow\snow_09s.jpg	8	-1	1	0	snow_09s.jpg	0	0	0	179.009732882085	179.059742634476	0.0500097523909062
193301	50	507	0	0	seal	1397	198	1	stimuli\seal\seal_08s.jpg	7	-1	1	0	seal_08s.jpg	0	0	0	179.10976604023	179.159744828765	0.049978788534645
193401	50	508	0	0	column	388	199	1	stimuli\column\column_08s.jpg	7	-1	1	0	column_08s.jpg	0	0	0	179.209764577332	179.259744341136	0.0499797638040036
193501	50	509	0	0	mat	982	200	1	stimuli\mat\mat_08s.jpg	7	-1	1	0	mat_08s.jpg	0	0	0	179.309766527847	179.359740927815	0.0499743999680504
193601	50	510	0	0	sling	1466	201	1	stimuli\sling\sling_06s.jpg	5	-1	1	0	sling_06s.jpg	0	0	0	179.409747266851	179.459731906885	0.0499846400343813
193701	50	511	0	0	blimp	139	202	1	stimuli\blimp\blimp_07s.jpg	6	-1	1	0	blimp_07s.jpg	0	0	0	179.509752143058	179.559730931651	0.0499787885928527
193801	50	512	0	0	electric_chair	553	203	1	stimuli\electric_chair\electric_chair_02s.jpg	1	-1	1	0	electric_chair_02s.jpg	0	0	0	179.609778962156	179.659739708761	0.0499607466044836
193901	50	513	0	0	box	181	204	1	stimuli\box\box_05s.jpg	4	-1	1	0	box_05s.jpg	0	0	0	179.709777011652	179.7597579945	0.0499809828470461
194001	50	514	0	0	pretzel	1239	205	1	stimuli\pretzel\pretzel_05s.jpg	4	-1	1	0	pretzel_05s.jpg	0	0	0	179.809761407843	179.859735807811	0.0499743999680504
194101	50	515	0	0	chisel	336	206	1	stimuli\chisel\chisel_12s.jpg	11	-1	1	0	chisel_12s.jpg	0	0	0	179.909784082149	179.959764821164	0.0499807390151545
194201	50	516	0	0	hood	791	207	1	stimuli\hood\hood_03s.jpg	2	-1	1	0	hood_03s.jpg	0	0	0	180.009788226918	180.059776524024	0.0499882971053012
194301	50	517	0	0	contact_lens	397	208	1	stimuli\contact_lens\contact_lens_12s.jpg	11	-1	1	0	contact_lens_12s.jpg	0	0	0	180.10978968977	180.159752874519	0.0499631847487763
194401	50	518	0	0	turban	1730	209	1	stimuli\turban\turban_03s.jpg	2	-1	1	0	turban_03s.jpg	0	0	0	180.209791640227	180.2597579945	0.0499663542723283
194501	50	519	0	0	mulberry	1037	210	1	stimuli\mulberry\mulberry_04s.jpg	3	-1	1	0	mulberry_04s.jpg	0	0	0	180.309795053559	180.359777255449	0.0499822018900886
194601	50	520	0	0	reel	1299	211	1	stimuli\reel\reel_09s.jpg	8	-1	1	0	reel_09s.jpg	0	0	0	180.409796028805	180.459782131657	0.0499861028511077
194701	50	521	0	0	scale	1371	212	1	stimuli\scale\scale_03s.jpg	2	-1	1	0	scale_03s.jpg	0	0	0	180.509800417407	180.559784569778	0.0499841523705982
194801	50	522	0	0	hat	757	213	1	stimuli\hat\hat_04s.jpg	3	-1	1	0	hat_04s.jpg	0	0	0	180.609803830739	180.659766527824	0.0499626970849931
194901	50	523	0	0	counter	424	214	1	stimuli\counter\counter_01b.jpg	0	-1	1	0	counter_01b.jpg	0	0	0	180.709804805927	180.759785057395	0.0499802514677867
195001	50	524	0	0	ant	24	215	1	stimuli\ant\ant_03s.jpg	2	-1	1	0	ant_03s.jpg	0	0	0	180.809813826927	180.859790908813	0.049977081886027
195101	50	525	0	0	scalpel	1374	216	1	stimuli\scalpel\scalpel_04s.jpg	3	-1	1	0	scalpel_04s.jpg	0	0	0	180.909812851693	180.959775061172	0.0499622094794177
195201	50	526	0	0	foot	628	217	1	stimuli\foot\foot_11s.jpg	10	-1	1	0	foot_11s.jpg	0	0	0	181.009812607837	181.059801148833	0.0499885409954004
195301	50	527	0	0	yacht	1844	218	1	stimuli\yacht\yacht_11s.jpg	10	-1	1	0	yacht_11s.jpg	0	0	0	181.109816996439	181.159797735454	0.0499807390151545
195401	50	528	0	0	ladder	886	219	1	stimuli\ladder\ladder_03s.jpg	2	-1	1	0	ladder_03s.jpg	0	0	0	181.209803099278	181.259783838294	0.0499807390151545
195501	50	529	0	0	flip_flop	614	220	1	stimuli\flip_flop\flip_flop_11s.jpg	10	-1	1	0	flip_flop_11s.jpg	0	0	0	181.309808219317	181.359777743055	0.0499695237376727
195601	50	530	0	0	generator	671	221	1	stimuli\generator\generator_08s.jpg	7	-1	1	0	generator_08s.jpg	0	0	0	181.409789689758	181.459771404043	0.0499817142845131
195701	50	531	0	0	cotton_candy	421	222	1	stimuli\cotton_candy\cotton_candy_12s.jpg	11	-1	1	0	cotton_candy_12s.jpg	0	0	0	181.509794565965	181.559776767856	0.0499822018900886
195801	50	532	0	0	wagon	1772	223	1	stimuli\wagon\wagon_11s.jpg	10	-1	1	0	wagon_11s.jpg	0	0	0	181.609830162139	181.659795784974	0.0499656228348613
195901	50	533	0	0	latte	901	224	1	stimuli\latte\latte_05s.jpg	4	-1	1	0	latte_05s.jpg	0	0	0	181.709831137385	181.759801392618	0.0499702552333474
196001	50	534	0	0	lantern	895	225	1	stimuli\lantern\lantern_11s.jpg	10	-1	1	0	lantern_11s.jpg	0	0	0	181.809818459267	181.859795053548	0.0499765942804515
196101	50	535	0	0	scoop	1381	226	1	stimuli\scoop\scoop_05s.jpg	4	-1	1	0	scoop_05s.jpg	0	0	0	181.909808219294	181.959787739266	0.049979519972112
196201	50	536	0	0	lectern	908	227	1	stimuli\lectern\lectern_06s.jpg	5	-1	1	0	lectern_06s.jpg	0	0	0	182.00984040217	182.059820165974	0.0499797638040036
196301	50	537	0	0	corkboard	410	228	1	stimuli\corkboard\corkboard_05s.jpg	4	-1	1	0	corkboard_05s.jpg	0	0	0	182.109827724053	182.159807975462	0.0499802514095791
196401	50	538	0	0	pan	1103	229	1	stimuli\pan\pan_02s.jpg	1	-1	1	0	pan_02s.jpg	0	0	0	182.209844790748	182.259826261201	0.0499814704526216
196501	50	539	0	0	footbath	631	230	1	stimuli\footbath\footbath_07s.jpg	6	-1	1	0	footbath_07s.jpg	0	0	0	182.309854055522	182.359853811678	0.0499997561564669
196601	50	540	0	0	razor_blade	1291	231	1	stimuli\razor_blade\razor_blade_08s.jpg	7	-1	1	0	razor_blade_08s.jpg	0	0	0	182.40985234885	182.459801148798	0.0499487999477424
196701	50	541	0	0	punching_bag	1256	232	1	stimuli\punching_bag\punching_bag_01b.jpg	0	-1	1	0	punching_bag_01b.jpg	0	0	0	182.509824554552	182.559819434537	0.0499948799842969
196801	50	542	0	0	bassoon	86	233	1	stimuli\bassoon\bassoon_11s.jpg	10	-1	1	0	bassoon_11s.jpg	0	0	0	182.609827967884	182.659815777384	0.0499878094997257
196901	50	543	0	0	blowgun	147	234	1	stimuli\blowgun\blowgun_03s.jpg	2	-1	1	0	blowgun_03s.jpg	0	0	0	182.709830162174	182.759805781185	0.0499756190110929
197001	50	544	0	0	chair	300	235	1	stimuli\chair\chair_10s.jpg	9	-1	1	0	chair_10s.jpg	0	0	0	182.809828943107	182.859818946919	0.0499900038121268
197101	50	545	0	0	coffee	377	236	1	stimuli\coffee\coffee_03s.jpg	2	-1	1	0	coffee_03s.jpg	0	0	0	182.909831137396	182.95981455833	0.0499834209331311
197201	50	546	0	0	noodle	1061	237	1	stimuli\noodle\noodle_06s.jpg	5	-1	1	0	noodle_06s.jpg	0	0	0	183.009833819291	183.05981504597	0.0499812266789377
197301	50	547	0	0	potpourri	1235	238	1	stimuli\potpourri\potpourri_06s.jpg	5	-1	1	0	potpourri_06s.jpg	0	0	0	183.10983893933	183.159815533552	0.0499765942222439
197401	50	548	0	0	weed	1802	239	1	stimuli\weed\weed_10s.jpg	9	-1	1	0	weed_10s.jpg	0	0	0	183.209838695475	183.259817971673	0.0499792761984281
197501	50	549	0	0	siren	1448	240	1	stimuli\siren\siren_07s.jpg	6	-1	1	0	siren_07s.jpg	0	0	0	183.309860882175	183.359856737428	0.0499958552536555
197601	50	550	0	0	cross	443	241	1	stimuli\cross\cross_10s.jpg	9	-1	1	0	cross_10s.jpg	0	0	0	183.409878680308	183.459844790748	0.0499661104404368
197701	50	551	0	0	popcorn	1223	242	1	stimuli\popcorn\popcorn_07s.jpg	6	-1	1	0	popcorn_07s.jpg	0	0	0	183.509881849808	183.559863076487	0.0499812266789377
197801	50	552	0	0	sponge	1517	243	1	stimuli\sponge\sponge_05s.jpg	4	-1	1	0	sponge_05s.jpg	0	0	0	183.60986722121	183.659864783112	0.0499975619022734
197901	50	553	0	0	football_helmet	630	244	1	stimuli\football_helmet\football_helmet_08s.jpg	7	-1	1	0	football_helmet_08s.jpg	0	0	0	183.709874047898	183.759873316449	0.0499992685508914
198001	50	554	0	0	pocket	1205	245	1	stimuli\pocket\pocket_03s.jpg	2	-1	1	0	pocket_03s.jpg	0	0	0	183.809875754581	183.859853080241	0.0499773256597109
198101	50	555	0	0	ankle	22	246	1	stimuli\ankle\ankle_01b.jpg	0	-1	1	0	ankle_01b.jpg	0	0	0	183.909890870797	183.959871853585	0.0499809827888384
198201	50	556	0	0	wasp	1785	247	1	stimuli\wasp\wasp_08s.jpg	7	-1	1	0	wasp_08s.jpg	0	0	0	184.00989525934	184.05986136978	0.0499661104404368
198301	50	557	0	0	bowl	177	248	1	stimuli\bowl\bowl_09s.jpg	8	-1	1	0	bowl_09s.jpg	0	0	0	184.109866733605	184.159845765971	0.0499790323665366
198401	50	558	0	0	block	143	249	1	stimuli\block\block_12s.jpg	11	-1	1	0	block_12s.jpg	0	0	0	184.209864539327	184.259882825078	0.0500182857504115
198501	50	559	0	0	porcupine	1226	250	1	stimuli\porcupine\porcupine_07s.jpg	6	-1	1	0	porcupine_07s.jpg	0	0	0	184.30988794507	184.359865758393	0.049977813323494
198601	50	560	0	0	cutting_board	467	251	1	stimuli\cutting_board\cutting_board_10s.jpg	9	-1	1	0	cutting_board_10s.jpg	0	0	0	184.409904280328	184.459870146937	0.0499658666085452
198701	50	561	0	0	target	1627	252	1	stimuli\target\target_04s.jpg	3	-1	1	0	target_04s.jpg	0	0	0	184.509879899328	184.559886969801	0.0500070704729296
198801	50	562	0	0	spatula	1508	253	1	stimuli\spatula\spatula_02s.jpg	1	-1	1	0	spatula_02s.jpg	0	0	0	184.609887213621	184.659866002155	0.049978788534645
198901	50	563	0	0	cash_machine	279	254	1	stimuli\cash_machine\cash_machine_12s.jpg	11	-1	1	0	cash_machine_12s.jpg	0	0	0	184.709895259351	184.759866977402	0.0499717180500738
199001	50	564	0	0	bubble_wrap	208	255	1	stimuli\bubble_wrap\bubble_wrap_09s.jpg	8	-1	1	0	bubble_wrap_09s.jpg	0	0	0	184.809919640305	184.859879899304	0.0499602589989081
199101	50	565	0	0	lavender	904	256	1	stimuli\lavender\lavender_08s.jpg	7	-1	1	0	lavender_08s.jpg	0	0	0	184.909901354578	184.959901110793	0.0499997562146746
199201	50	566	0	0	roller	1324	257	1	stimuli\roller\roller_11s.jpg	10	-1	1	0	roller_11s.jpg	0	0	0	185.009920127923	185.05990111077	0.0499809828470461
199301	50	567	0	0	anchor	21	258	1	stimuli\anchor\anchor_07n.jpg	6	-1	1	0	anchor_07n.jpg	0	0	0	185.109907206031	185.159904767934	0.0499975619022734
199401	50	568	0	0	root	1331	259	1	stimuli\root\root_03s.jpg	2	-1	1	0	root_03s.jpg	0	0	0	185.209910863137	185.259891845984	0.0499809828470461
199501	50	569	0	0	mail	959	260	1	stimuli\mail\mail_05s.jpg	4	-1	1	0	mail_05s.jpg	0	0	0	185.3099323184	185.359916714602	0.0499843962024897
199601	50	570	0	0	racehorse	1267	261	1	stimuli\racehorse\racehorse_04s.jpg	3	-1	1	0	racehorse_04s.jpg	0	0	0	185.409910619375	185.459878436464	0.0499678170890547
199701	50	571	0	0	satellite_dish	1361	262	1	stimuli\satellite_dish\satellite_dish_08s.jpg	7	-1	1	0	satellite_dish_08s.jpg	0	0	0	185.50991330127	185.559884531714	0.0499712304444984
199801	50	572	0	0	spring_roll	1521	263	1	stimuli\spring_roll\spring_roll_01b.jpg	0	-1	1	0	spring_roll_01b.jpg	0	0	0	185.609913788852	185.659911838418	0.0499980495660566
199901	50	573	0	0	dish	489	264	1	stimuli\dish\dish_03s.jpg	2	-1	1	0	dish_03s.jpg	0	0	0	185.709929392673	185.759912326001	0.0499829333275557
200001	50	574	0	0	altar	16	265	1	stimuli\altar\altar_06s.jpg	5	-1	1	0	altar_06s.jpg	0	0	0	185.809940120322	185.859913057473	0.049972937151324
200101	50	575	0	0	gondola	691	266	1	stimuli\gondola\gondola_05s.jpg	4	-1	1	0	gondola_05s.jpg	0	0	0	185.90995840606	185.959925247938	0.0499668418779038
200201	50	576	0	0	turntable	1735	267	1	stimuli\turntable\turntable_11s.jpg	10	-1	1	0	turntable_11s.jpg	0	0	0	186.009946946986	186.05992476031	0.049977813323494
200301	50	577	0	0	stamp2	1536	268	1	stimuli\stamp2\stamp2_09s.jpg	8	-1	1	0	stamp2_09s.jpg	0	0	0	186.109941339353	186.159922078426	0.0499807390733622
200401	50	578	0	0	painting	1098	269	1	stimuli\painting\painting_06s.jpg	5	-1	1	0	painting_06s.jpg	0	0	0	186.209945971728	186.259923785052	0.049977813323494
200501	50	579	0	0	shopping_cart	1428	270	1	stimuli\shopping_cart\shopping_cart_07s.jpg	6	-1	1	0	shopping_cart_07s.jpg	0	0	0	186.309947922244	186.359927929821	0.0499800075776875
200601	50	580	0	0	kazoo	864	271	1	stimuli\kazoo\kazoo_03s.jpg	2	-1	1	0	kazoo_03s.jpg	0	0	0	186.409950360307	186.459935244115	0.0499848838080652
200701	50	581	0	0	pony	1220	272	1	stimuli\pony\pony_12s.jpg	11	-1	1	0	pony_12s.jpg	0	0	0	186.509954748908	186.559935731755	0.0499809828470461
200801	50	582	0	0	file2	584	273	1	stimuli\file2\file2_10s.jpg	9	-1	1	0	file2_10s.jpg	0	0	0	186.609946459357	186.659912813629	0.0499663542723283
200901	50	583	0	0	top_hat	1682	274	1	stimuli\top_hat\top_hat_10s.jpg	9	-1	1	0	top_hat_10s.jpg	0	0	0	186.709938413638	186.759917689837	0.0499792761984281
201001	50	584	0	0	mattress	985	275	1	stimuli\mattress\mattress_12s.jpg	11	-1	1	0	mattress_12s.jpg	0	0	0	186.809972059389	186.859951091756	0.0499790323665366
201101	50	585	0	0	skewer	1451	276	1	stimuli\skewer\skewer_02s.jpg	1	-1	1	0	skewer_02s.jpg	0	0	0	186.909957187017	186.959935000341	0.049977813323494
201201	50	586	0	0	tupperware	1729	277	1	stimuli\tupperware\tupperware_06s.jpg	5	-1	1	0	tupperware_06s.jpg	0	0	0	187.009958406037	187.059919884137	0.0499614781001583
201301	50	587	0	0	sequin	1404	278	1	stimuli\sequin\sequin_10s.jpg	9	-1	1	1	sequin_10s.jpg	0	0	0	187.109954261279	187.159938901255	0.0499846399761736
201401	50	588	0	0	goggles	686	279	1	stimuli\goggles\goggles_08s.jpg	7	-1	1	0	goggles_08s.jpg	0	0	0	187.209957430838	187.25995962508	0.0500021942425519
201501	50	589	0	0	sword	1602	280	1	stimuli\sword\sword_04s.jpg	3	-1	1	0	sword_04s.jpg	0	0	0	187.309986200358	187.359962794639	0.0499765942804515
201601	50	590	0	0	train	1698	281	1	stimuli\train\train_10n.jpg	9	-1	1	0	train_10n.jpg	0	0	0	187.409991076565	187.459970108932	0.0499790323665366
201701	50	591	0	0	awning	44	282	1	stimuli\awning\awning_10s.jpg	9	-1	1	0	awning_10s.jpg	1	0.392200284753926	1	187.509990588936	187.559955480334	0.0499648913973942
201801	50	592	0	0	roller_coaster	1325	283	1	stimuli\roller_coaster\roller_coaster_05s.jpg	4	-1	1	0	roller_coaster_05s.jpg	0	0	0	187.60997425369	187.659949141263	0.0499748875736259
201901	50	593	0	0	doghouse	497	284	1	stimuli\doghouse\doghouse_10s.jpg	9	-1	1	0	doghouse_10s.jpg	0	0	0	187.709972790792	187.759977910842	0.0500051200506277
202001	50	594	0	0	skull	1458	285	1	stimuli\skull\skull_06s.jpg	5	-1	1	0	skull_06s.jpg	0	0	0	187.80999960989	187.859961331764	0.0499617218738422
202101	50	595	0	0	walker2	1774	286	1	stimuli\walker2\walker2_12s.jpg	11	-1	1	0	walker2_12s.jpg	0	0	0	187.91000009753	187.959980592714	0.049980495183263
202201	50	596	0	0	velcro	1756	287	1	stimuli\velcro\velcro_06s.jpg	5	-1	1	0	velcro_06s.jpg	0	0	0	188.01000131655	188.05998156796	0.0499802514095791
202301	50	597	0	0	riser	1314	288	1	stimuli\riser\riser_04s.jpg	3	-1	1	0	riser_04s.jpg	0	0	0	188.11002813559	188.159988638421	0.0499605028307997
202401	50	598	0	0	swimming_pool	1596	289	1	stimuli\swimming_pool\swimming_pool_04s.jpg	3	-1	1	0	swimming_pool_04s.jpg	0	0	0	188.210000341292	188.259982299409	0.0499819581164047
202501	50	599	0	0	snowmobile	1483	290	1	stimuli\snowmobile\snowmobile_11s.jpg	10	-1	1	0	snowmobile_11s.jpg	0	0	0	188.310002291808	188.359983518429	0.04998122662073
202601	50	600	0	0	lightning_bug	929	291	1	stimuli\lightning_bug\lightning_bug_03s.jpg	2	-1	1	0	lightning_bug_03s.jpg	0	0	0	188.410015701316	188.45998595655	0.0499702552333474
202701	50	601	0	0	teepee	1637	292	1	stimuli\teepee\teepee_01b.jpg	0	-1	1	0	teepee_01b.jpg	0	0	0	188.510005461343	188.55999107653	0.0499856151873246
202801	50	602	0	0	bulletin_board	217	293	1	stimuli\bulletin_board\bulletin_board_01b.jpg	0	-1	1	0	bulletin_board_01b.jpg	0	0	0	188.610013994679	188.659990832733	0.0499768380541354
202901	50	603	0	0	wallpaper	1777	294	1	stimuli\wallpaper\wallpaper_05s.jpg	4	-1	1	0	wallpaper_05s.jpg	0	0	0	188.710013263219	188.759994246066	0.0499809828470461
203001	50	604	0	0	fishhook	602	295	1	stimuli\fishhook\fishhook_10s.jpg	9	-1	1	0	fishhook_10s.jpg	0	0	0	188.810015945113	188.859998878441	0.0499829333275557
203101	50	605	0	0	flag	605	296	1	stimuli\flag\flag_01b.jpg	0	-1	1	0	flag_01b.jpg	0	0	0	188.910015945148	188.960002047999	0.0499861028511077
203201	50	606	0	0	lip_gloss	935	297	1	stimuli\lip_gloss\lip_gloss_04s.jpg	3	-1	1	0	lip_gloss_04s.jpg	0	0	0	189.010021308961	189.059998634621	0.0499773256597109
203301	50	607	0	0	honeypot	790	298	1	stimuli\honeypot\honeypot_06s.jpg	5	-1	1	0	honeypot_06s.jpg	0	0	0	189.110027891817	189.160005948914	0.049978057097178
203401	50	608	0	0	amplifier	20	299	1	stimuli\amplifier\amplifier_04s.jpg	3	-1	1	0	amplifier_04s.jpg	0	0	0	189.210027404188	189.26000692416	0.049979519972112
203501	50	609	0	0	toast	1665	300	1	stimuli\toast\toast_05s.jpg	4	-1	1	0	toast_05s.jpg	0	0	0	189.310030086082	189.360013507016	0.0499834209331311
203601	50	610	0	0	blinder	141	301	1	stimuli\blinder\blinder_05s.jpg	4	-1	1	0	blinder_05s.jpg	0	0	0	189.41003398702	189.460012288007	0.0499783009872772
203701	50	611	0	0	alpaca	15	302	1	stimuli\alpaca\alpaca_08s.jpg	7	-1	1	0	alpaca_08s.jpg	0	0	0	189.510038375622	189.560006924148	0.0499685485265218
203801	50	612	0	0	pendulum	1144	303	1	stimuli\pendulum\pendulum_10s.jpg	9	-1	1	0	pendulum_10s.jpg	0	0	0	189.610029354633	189.660009849875	0.0499804952414706
203901	50	613	0	0	matchbox	984	304	1	stimuli\matchbox\matchbox_09s.jpg	8	-1	1	0	matchbox_09s.jpg	0	0	0	189.710029354668	189.760028379445	0.0499990247772075
204001	50	614	0	0	mole	1014	305	1	stimuli\mole\mole_07s.jpg	6	-1	1	0	mole_07s.jpg	0	0	0	189.810033011832	189.860036181344	0.0500031695119105
204101	50	615	0	0	sickle	1441	306	1	stimuli\sickle\sickle_06s.jpg	5	-1	1	0	sickle_06s.jpg	0	0	0	189.910050322302	189.960036668926	0.0499863466247916
204201	50	616	0	0	tostada	1688	307	1	stimuli\tostada\tostada_04s.jpg	3	-1	1	0	tostada_04s.jpg	0	0	0	190.010054954677	190.060022040387	0.0499670857097954
204301	50	617	0	0	highchair	777	308	1	stimuli\highchair\highchair_07s.jpg	6	-1	1	0	highchair_07s.jpg	0	0	0	190.110063000408	190.160039594688	0.0499765942804515
209668	50	618	0	0	mango	966	0	2	stimuli\mango\mango_02s.jpg	1	-1	2	0	mango_02s.jpg	0	0	0	195.476852465887	195.52682832873	0.0499758628429845
209768	50	619	0	0	clothesline	362	1	2	stimuli\clothesline\clothesline_04s.jpg	3	-1	2	0	clothesline_04s.jpg	0	0	0	195.576867582044	195.626853928727	0.0499863466829993
209868	50	620	0	0	cage	236	2	2	stimuli\cage\cage_03s.jpg	2	-1	2	0	cage_03s.jpg	0	0	0	195.676858073508	195.726833204913	0.0499751314055175
209968	50	621	0	0	lanyard	896	3	2	stimuli\lanyard\lanyard_07s.jpg	6	-1	2	0	lanyard_07s.jpg	0	0	0	195.776858073485	195.826838324894	0.0499802514095791
210068	50	622	0	0	dollhouse	500	4	2	stimuli\dollhouse\dollhouse_11s.jpg	10	-1	2	0	dollhouse_11s.jpg	0	0	0	195.876860267774	195.926858317282	0.0499980495078489
210168	50	623	0	0	eraser	559	5	2	stimuli\eraser\eraser_07s.jpg	6	-1	2	0	eraser_07s.jpg	0	0	0	195.976862218231	196.026858804922	0.0499965866911225
210268	50	624	0	0	eyedropper	566	6	2	stimuli\eyedropper\eyedropper_04s.jpg	3	-1	2	0	eyedropper_04s.jpg	0	0	0	196.076884648763	196.126865875383	0.04998122662073
210368	50	625	0	0	mustache	1043	7	2	stimuli\mustache\mustache_11s.jpg	10	-1	2	0	mustache_11s.jpg	0	0	0	196.176890500181	196.226864168711	0.0499736685305834
210468	50	626	0	0	clipper2	357	8	2	stimuli\clipper2\clipper2_02s.jpg	1	-1	2	0	clipper2_02s.jpg	0	0	0	196.276886843028	196.326870020188	0.0499831771594472
210568	50	627	0	0	toilet	1670	9	2	stimuli\toilet\toilet_02s.jpg	1	-1	2	0	toilet_02s.jpg	0	0	0	196.37689391349	196.426870020165	0.0499761066748761
210668	50	628	0	0	crossbow	444	10	2	stimuli\crossbow\crossbow_01s.jpg	0	-1	2	0	crossbow_01s.jpg	0	0	0	196.476896107779	196.526880747813	0.0499846400343813
210768	50	629	0	0	spear	1510	11	2	stimuli\spear\spear_04s.jpg	3	-1	2	0	spear_04s.jpg	0	0	0	196.576896839251	196.626877334435	0.049980495183263
210868	50	630	0	0	anvil	28	12	2	stimuli\anvil\anvil_06s.jpg	5	-1	2	0	anvil_06s.jpg	0	0	0	196.676897326834	196.726865143981	0.0499678171472624
210968	50	631	0	0	coverall	425	13	2	stimuli\coverall\coverall_06s.jpg	5	-1	2	0	coverall_06s.jpg	0	0	0	196.776902203041	196.826881235407	0.0499790323665366
211068	50	632	0	0	file1	583	14	2	stimuli\file1\file1_10s.jpg	9	-1	2	0	file1_10s.jpg	0	0	0	196.876901471638	196.926886111614	0.0499846399761736
211168	50	633	0	0	flashlight	611	15	2	stimuli\flashlight\flashlight_03s.jpg	2	-1	2	1	flashlight_03s.jpg	0	0	0	196.976903909701	197.026885867817	0.0499819581164047
211268	50	634	0	0	envelope	558	16	2	stimuli\envelope\envelope_02s.jpg	1	-1	2	0	envelope_02s.jpg	0	0	0	197.076910736389	197.126890500193	0.0499797638040036
211368	50	635	0	0	zebra	1851	17	2	stimuli\zebra\zebra_04s.jpg	3	-1	2	0	zebra_04s.jpg	0	0	0	197.176912930678	197.226893425919	0.0499804952414706
211468	50	636	0	0	racket	1270	18	2	stimuli\racket\racket_09s.jpg	8	-1	2	0	racket_09s.jpg	1	0.300981821550522	1	197.276914881135	197.326884404931	0.0499695237958804
211568	50	637	0	0	turtle	1736	19	2	stimuli\turtle\turtle_03s.jpg	2	-1	2	0	turtle_03s.jpg	0	0	0	197.376919757342	197.426874164958	0.0499544076155871
211668	50	638	0	0	cleaver	354	20	2	stimuli\cleaver\cleaver_01b.jpg	0	-1	2	0	cleaver_01b.jpg	0	0	0	197.476895132568	197.526890256384	0.0499951238161884
211768	50	639	0	0	pencil	1142	21	2	stimuli\pencil\pencil_07s.jpg	6	-1	2	0	pencil_07s.jpg	0	0	0	197.576920488791	197.626906591642	0.0499861028511077
211868	50	640	0	0	cookie_sheet	402	22	2	stimuli\cookie_sheet\cookie_sheet_04s.jpg	3	-1	2	0	cookie_sheet_04s.jpg	0	0	0	197.676924145897	197.726907810662	0.0499836647650227
211968	50	641	0	0	jeans	842	23	2	stimuli\jeans\jeans_03s.jpg	2	-1	2	0	jeans_03s.jpg	0	0	0	197.776926096412	197.826892206853	0.0499661104404368
212068	50	642	0	0	pickle	1167	24	2	stimuli\pickle\pickle_05s.jpg	4	-1	2	0	pickle_05s.jpg	0	0	0	197.876911467814	197.926880504005	0.0499690361903049
212168	50	643	0	0	coleslaw	386	25	2	stimuli\coleslaw\coleslaw_01b.jpg	0	-1	2	0	coleslaw_01b.jpg	0	0	0	197.976914881147	198.026894644951	0.0499797638040036
212268	50	644	0	0	banana_split	65	26	2	stimuli\banana_split\banana_split_02s.jpg	1	-1	2	0	banana_split_02s.jpg	0	0	0	198.076933898323	198.126919269736	0.0499853714136407
212368	50	645	0	0	hopscotch	796	27	2	stimuli\hopscotch\hopscotch_02s.jpg	1	-1	2	0	hopscotch_02s.jpg	0	0	0	198.176924389729	198.226918782108	0.0499943923787214
212468	50	646	0	0	cord	407	28	2	stimuli\cord\cord_02s.jpg	1	-1	2	0	cord_02s.jpg	0	0	0	198.276941456425	198.32692219544	0.0499807390151545
212568	50	647	0	0	berry	121	29	2	stimuli\berry\berry_01b.jpg	0	-1	2	0	berry_01b.jpg	0	0	0	198.376929022081	198.426898058271	0.0499690361903049
212668	50	648	0	0	tab	1607	30	2	stimuli\tab\tab_10s.jpg	9	-1	2	0	tab_10s.jpg	0	0	0	198.47692853451	198.526913905924	0.0499853714136407
212768	50	649	0	0	shower_cap	1434	31	2	stimuli\shower_cap\shower_cap_08s.jpg	7	-1	2	0	shower_cap_08s.jpg	0	0	0	198.576932435448	198.626913174463	0.0499807390151545
212868	50	650	0	0	needle	1055	32	2	stimuli\needle\needle_02s.jpg	1	-1	2	0	needle_02s.jpg	0	0	0	198.67691975733	198.726914637315	0.0499948799842969
212968	50	651	0	0	float	616	33	2	stimuli\float\float_08s.jpg	7	-1	2	0	float_08s.jpg	0	0	0	198.776935848757	198.826918538311	0.0499826895538718
213068	50	652	0	0	praying_mantis	1238	34	2	stimuli\praying_mantis\praying_mantis_09s.jpg	8	-1	2	0	praying_mantis_09s.jpg	0	0	0	198.876939262089	198.92692536494	0.0499861028511077
