onset	duration	eventnumber	blocksequencenumber	isteststim	object	objectnumber	presentationnumber	sequencenumber	stim	stimnumber	teststimnumber	withinsequencenumber	istarget	stimname	response	rt	correct	time_stimon	time_stimoff	stimdur
170813	50	0	0	0	moose	1018	0	0	stimuli\moose\moose_07s.jpg	6	-1	0	0	moose_07s.jpg	0	0	0	240.352699399926	240.40267729992	0.0499778999947011
170913	50	1	0	0	van	1752	1	0	stimuli\van\van_08s.jpg	7	-1	0	0	van_08s.jpg	0	0	0	240.452701000031	240.502676300006	0.0499752999749035
171013	50	2	0	0	eel	545	2	0	stimuli\eel\eel_01b.jpg	0	-1	0	0	eel_01b.jpg	0	0	0	240.552699999884	240.602679499891	0.0499795000068843
171113	50	3	0	0	handbrake	745	3	0	stimuli\handbrake\handbrake_11s.jpg	10	-1	0	0	handbrake_11s.jpg	0	0	0	240.652704699896	240.702680999879	0.049976299982518
171213	50	4	0	0	revolving_door	1305	4	0	stimuli\revolving_door\revolving_door_04s.jpg	3	-1	0	0	revolving_door_04s.jpg	0	0	0	240.752703699982	240.802704399917	0.050000699935481
171313	50	5	0	0	wine_bottle	1824	5	0	stimuli\wine_bottle\wine_bottle_09s.jpg	8	-1	0	0	wine_bottle_09s.jpg	0	0	0	240.852737799985	240.902691300027	0.0499535000417382
171413	50	6	0	0	dogfood	496	6	0	stimuli\dogfood\dogfood_01b.jpg	0	-1	0	0	dogfood_01b.jpg	0	0	0	240.95270779985	241.002687799977	0.0499800001271069
171513	50	7	0	0	shell2	1418	7	0	stimuli\shell2\shell2_06s.jpg	5	-1	0	0	shell2_06s.jpg	0	0	0	241.05270999996	241.103085400071	0.0503754001110792
171613	50	8	0	0	mantle	969	8	0	stimuli\mantle\mantle_09s.jpg	8	-1	0	0	mantle_09s.jpg	0	0	0	241.152718199883	241.202698400011	0.0499802001286298
171713	50	9	0	0	strawberry	1570	9	0	stimuli\strawberry\strawberry_07n.jpg	6	-1	0	0	strawberry_07n.jpg	0	0	0	241.252718499862	241.302695399849	0.0499768999870867
171813	50	10	0	0	giraffe	675	10	0	stimuli\giraffe\giraffe_05s.jpg	4	-1	0	0	giraffe_05s.jpg	0	0	0	241.352719299961	241.402698399965	0.0499791000038385
171913	50	11	0	0	bow1	174	11	0	stimuli\bow1\bow1_07s.jpg	6	-1	0	0	bow1_07s.jpg	0	0	0	241.45272010006	241.502699099947	0.0499789998866618
172013	50	12	0	0	palm_tree	1102	12	0	stimuli\palm_tree\palm_tree_08s.jpg	7	-1	0	0	palm_tree_08s.jpg	0	0	0	241.552721600048	241.60270469985	0.0499830998014659
172113	50	13	0	0	funnel	649	13	0	stimuli\funnel\funnel_11s.jpg	10	-1	0	0	funnel_11s.jpg	0	0	0	241.652724500047	241.702707099961	0.0499825999140739
172213	50	14	0	0	cummerbund	459	14	0	stimuli\cummerbund\cummerbund_11s.jpg	10	-1	0	0	cummerbund_11s.jpg	0	0	0	241.752732099965	241.802707999945	0.0499758999794722
172313	50	15	0	0	scrabble	1385	15	0	stimuli\scrabble\scrabble_02s.jpg	1	-1	0	0	scrabble_02s.jpg	0	0	0	241.852730199927	241.902710299939	0.049980100011453
172413	50	16	0	0	pelican	1140	16	0	stimuli\pelican\pelican_12s.jpg	11	-1	0	0	pelican_12s.jpg	0	0	0	241.952732200036	242.002714199945	0.0499819999095052
172513	50	17	0	0	wrist	1842	17	0	stimuli\wrist\wrist_08s.jpg	7	-1	0	0	wrist_08s.jpg	0	0	0	242.052735799924	242.102732199943	0.049996400019154
172613	50	18	0	0	cheeseburger	313	18	0	stimuli\cheeseburger\cheeseburger_08s.jpg	7	-1	0	0	cheeseburger_08s.jpg	0	0	0	242.152736899909	242.202718199929	0.0499813000205904
172713	50	19	0	0	gravy	711	19	0	stimuli\gravy\gravy_10s.jpg	9	-1	0	0	gravy_10s.jpg	0	0	0	242.252739500022	242.302721000044	0.0499815000221133
172813	50	20	0	0	toucan	1690	20	0	stimuli\toucan\toucan_10s.jpg	9	-1	0	1	toucan_10s.jpg	0	0	0	242.352742000017	242.402723500039	0.0499815000221133
172913	50	21	0	0	broccoli	201	21	0	stimuli\broccoli\broccoli_06s.jpg	5	-1	0	0	broccoli_06s.jpg	0	0	0	242.452743100002	242.502723200014	0.049980100011453
173013	50	22	0	0	wooden_leg	1834	22	0	stimuli\wooden_leg\wooden_leg_11s.jpg	10	-1	0	0	wooden_leg_11s.jpg	0	0	0	242.552749499911	242.602728399914	0.0499789000023156
173113	50	23	0	0	game	654	23	0	stimuli\game\game_11s.jpg	10	-1	0	0	game_11s.jpg	0	0	0	242.652748099994	242.7027296999	0.0499815999064595
173213	50	24	0	0	crystal_ball	455	24	0	stimuli\crystal_ball\crystal_ball_06s.jpg	5	-1	0	0	crystal_ball_06s.jpg	0	0	0	242.752752099885	242.802732500015	0.0499804001301527
173313	50	25	0	0	collar	387	25	0	stimuli\collar\collar_07s.jpg	6	-1	0	0	collar_07s.jpg	0	0	0	242.85275459988	242.902734699892	0.049980100011453
173413	50	26	0	0	blind	140	26	0	stimuli\blind\blind_07s.jpg	6	-1	0	0	blind_07s.jpg	1	0.641974600031972	1	242.952758699888	243.002741799923	0.0499831000342965
173513	50	27	0	0	waffle	1770	27	0	stimuli\waffle\waffle_11s.jpg	10	-1	0	0	waffle_11s.jpg	0	0	0	243.052758899983	243.102739599999	0.0499807000160217
173613	50	28	0	0	ginger	673	28	0	stimuli\ginger\ginger_07s.jpg	6	-1	0	0	ginger_07s.jpg	0	0	0	243.152761699865	243.2027449999	0.0499833000358194
173713	50	29	0	0	powder	1236	29	0	stimuli\powder\powder_01b.jpg	0	-1	0	0	powder_01b.jpg	0	0	0	243.25276329997	243.302747699898	0.04998439992778
173813	50	30	0	0	prune	1244	30	0	stimuli\prune\prune_10s.jpg	9	-1	0	0	prune_10s.jpg	0	0	0	243.352768099867	243.402747399872	0.0499793000053614
173913	50	31	0	0	kneepad	878	31	0	stimuli\kneepad\kneepad_07s.jpg	6	-1	0	0	kneepad_07s.jpg	0	0	0	243.452767899958	243.502747099847	0.0499791998881847
174013	50	32	0	0	refrigerator	1300	32	0	stimuli\refrigerator\refrigerator_08s.jpg	7	-1	0	0	refrigerator_08s.jpg	0	0	0	243.552769500064	243.602733500069	0.049964000005275
174113	50	33	0	0	boxer_shorts	182	33	0	stimuli\boxer_shorts\boxer_shorts_02s.jpg	1	-1	0	0	boxer_shorts_02s.jpg	0	0	0	243.652791299857	243.702788899885	0.0499976000282913
174213	50	34	0	0	birdhouse	131	34	0	stimuli\birdhouse\birdhouse_07s.jpg	6	-1	0	0	birdhouse_07s.jpg	0	0	0	243.752795399865	243.802775999997	0.0499806001316756
174313	50	35	0	0	shell3	1419	35	0	stimuli\shell3\shell3_04s.jpg	3	-1	0	0	shell3_04s.jpg	0	0	0	243.852802099893	243.902777799871	0.0499756999779493
174413	50	36	0	0	yogurt	1848	36	0	stimuli\yogurt\yogurt_03s.jpg	2	-1	0	0	yogurt_03s.jpg	0	0	0	243.952800699975	244.002783400007	0.0499827000312507
174513	50	37	0	0	totem_pole	1689	37	0	stimuli\totem_pole\totem_pole_06s.jpg	5	-1	0	0	totem_pole_06s.jpg	0	0	0	244.052804999985	244.102783299983	0.0499782999977469
174613	50	38	0	0	goat	684	38	0	stimuli\goat\goat_07n.jpg	6	-1	0	0	goat_07n.jpg	0	0	0	244.152806199854	244.202786499867	0.0499803000129759
174713	50	39	0	0	tapestry	1625	39	0	stimuli\tapestry\tapestry_08s.jpg	7	-1	0	0	tapestry_08s.jpg	0	0	0	244.252808099845	244.302790699992	0.0499826001469046
174813	50	40	0	0	sheep	1414	40	0	stimuli\sheep\sheep_01b.jpg	0	-1	0	0	sheep_01b.jpg	0	0	0	244.35280880006	244.402789299842	0.0499804997816682
174913	50	41	0	0	robe	1317	41	0	stimuli\robe\robe_05s.jpg	4	-1	0	0	robe_05s.jpg	0	0	0	244.45281139994	244.502792699961	0.0499813000205904
175013	50	42	0	0	tray	1705	42	0	stimuli\tray\tray_04s.jpg	3	-1	0	0	tray_04s.jpg	0	0	0	244.552814600058	244.60279649985	0.0499818997923285
175113	50	43	0	0	knitting_needle	881	43	0	stimuli\knitting_needle\knitting_needle_08s.jpg	7	-1	0	0	knitting_needle_08s.jpg	0	0	0	244.652815599926	244.702796499943	0.0499809000175446
175213	50	44	0	0	album	11	44	0	stimuli\album\album_04s.jpg	3	-1	0	0	album_04s.jpg	0	0	0	244.752820000052	244.802805199986	0.0499851999338716
175313	50	45	0	0	curtain	465	45	0	stimuli\curtain\curtain_11s.jpg	10	-1	0	0	curtain_11s.jpg	0	0	0	244.852820700034	244.902800600044	0.0499799000099301
175413	50	46	0	0	gondola	691	46	0	stimuli\gondola\gondola_07s.jpg	6	-1	0	0	gondola_07s.jpg	0	0	0	244.952828499954	245.002802999923	0.0499744999688119
175513	50	47	0	0	zebra	1851	47	0	stimuli\zebra\zebra_10s.jpg	9	-1	0	0	zebra_10s.jpg	0	0	0	245.052832099842	245.102806299925	0.0499742000829428
175613	50	48	0	0	teddy_bear	1635	48	0	stimuli\teddy_bear\teddy_bear_04s.jpg	3	-1	0	1	teddy_bear_04s.jpg	0	0	0	245.152828800026	245.202812799951	0.0499839999247342
175713	50	49	0	0	lamb	889	49	0	stimuli\lamb\lamb_07s.jpg	6	-1	0	0	lamb_07s.jpg	0	0	0	245.252833100036	245.302810200024	0.0499770999886096
175813	50	50	0	0	shower	1433	50	0	stimuli\shower\shower_01b.jpg	0	-1	0	0	shower_01b.jpg	0	0	0	245.352818799904	245.402816500049	0.0499977001454681
175913	50	51	0	0	bullet	216	51	0	stimuli\bullet\bullet_06s.jpg	5	-1	0	0	bullet_06s.jpg	1	0.300165399909019	1	245.452836100012	245.502802900039	0.0499668000265956
176013	50	52	0	0	corkscrew	411	52	0	stimuli\corkscrew\corkscrew_05s.jpg	4	-1	0	0	corkscrew_05s.jpg	0	0	0	245.552838699892	245.602822300047	0.0499836001545191
176113	50	53	0	0	leaf	906	53	0	stimuli\leaf\leaf_10s.jpg	9	-1	0	0	leaf_10s.jpg	0	0	0	245.652868999867	245.702821000014	0.0499520001467317
176213	50	54	0	0	emerald	555	54	0	stimuli\emerald\emerald_07s.jpg	6	-1	0	0	emerald_07s.jpg	0	0	0	245.752845600015	245.802827100037	0.0499815000221133
176313	50	55	0	0	yarn	1846	55	0	stimuli\yarn\yarn_04s.jpg	3	-1	0	0	yarn_04s.jpg	0	0	0	245.852847999893	245.902826499892	0.0499784999992698
176413	50	56	0	0	pitcher	1190	56	0	stimuli\pitcher\pitcher_09s.jpg	8	-1	0	0	pitcher_09s.jpg	0	0	0	245.952847599983	246.002827999881	0.0499803998973221
176513	50	57	0	0	locket	942	57	0	stimuli\locket\locket_02s.jpg	1	-1	0	0	locket_02s.jpg	0	0	0	246.052850999869	246.10283019999	0.0499792001210153
176613	50	58	0	0	canister	259	58	0	stimuli\canister\canister_04s.jpg	3	-1	0	0	canister_04s.jpg	0	0	0	246.152856600005	246.202837199904	0.049980599898845
176713	50	59	0	0	elbow	552	59	0	stimuli\elbow\elbow_07s.jpg	6	-1	0	0	elbow_07s.jpg	0	0	0	246.252860399894	246.302839800017	0.0499794001225382
176813	50	60	0	0	rag	1276	60	0	stimuli\rag\rag_11s.jpg	10	-1	0	0	rag_11s.jpg	0	0	0	246.352859899867	246.402838199865	0.0499782999977469
176913	50	61	0	0	crab	428	61	0	stimuli\crab\crab_08s.jpg	7	-1	0	0	crab_08s.jpg	0	0	0	246.452859499957	246.502841499867	0.0499819999095052
177013	50	62	0	0	pacifier	1093	62	0	stimuli\pacifier\pacifier_05s.jpg	4	-1	0	0	pacifier_05s.jpg	0	0	0	246.552850699984	246.602843699977	0.0499929999932647
177113	50	63	0	0	pinwheel	1185	63	0	stimuli\pinwheel\pinwheel_03s.jpg	2	-1	0	0	pinwheel_03s.jpg	0	0	0	246.652865699958	246.702846399974	0.0499807000160217
177213	50	64	0	0	can_opener	251	64	0	stimuli\can_opener\can_opener_09s.jpg	8	-1	0	0	can_opener_09s.jpg	0	0	0	246.752872599987	246.802847000072	0.0499744000844657
177313	50	65	0	0	jeep	843	65	0	stimuli\jeep\jeep_09s.jpg	8	-1	0	0	jeep_09s.jpg	0	0	0	246.852869200055	246.902848999947	0.0499797998927534
177413	50	66	0	0	seal	1397	66	0	stimuli\seal\seal_06s.jpg	5	-1	0	0	seal_06s.jpg	0	0	0	246.952873500064	247.002858899999	0.0499853999353945
177513	50	67	0	0	rain_gauge	1278	67	0	stimuli\rain_gauge\rain_gauge_01b.jpg	0	-1	0	0	rain_gauge_01b.jpg	0	0	0	247.052879599854	247.102855399949	0.049975800095126
177613	50	68	0	0	shoehorn	1425	68	0	stimuli\shoehorn\shoehorn_04s.jpg	3	-1	0	0	shoehorn_04s.jpg	0	0	0	247.152871900005	247.202854400035	0.0499825000297278
177713	50	69	0	0	tooth	1678	69	0	stimuli\tooth\tooth_01b.jpg	0	-1	0	0	tooth_01b.jpg	0	0	0	247.252878800035	247.302855700022	0.0499768999870867
177813	50	70	0	0	calculator	240	70	0	stimuli\calculator\calculator_11s.jpg	10	-1	0	0	calculator_11s.jpg	0	0	0	247.352880900027	247.40284330002	0.0499623999930918
177913	50	71	0	0	uniform	1747	71	0	stimuli\uniform\uniform_05s.jpg	4	-1	0	0	uniform_05s.jpg	0	0	0	247.452879699878	247.502867199946	0.0499875000678003
178013	50	72	0	0	raisin	1280	72	0	stimuli\raisin\raisin_07s.jpg	6	-1	0	0	raisin_07s.jpg	0	0	0	247.552884500008	247.60286029987	0.0499757998622954
178113	50	73	0	0	tackle	1612	73	0	stimuli\tackle\tackle_05s.jpg	4	-1	0	0	tackle_05s.jpg	0	0	0	247.652885799995	247.702865599887	0.0499797998927534
178213	50	74	0	0	paper_bag	1113	74	0	stimuli\paper_bag\paper_bag_01b.jpg	0	-1	0	0	paper_bag_01b.jpg	0	0	0	247.752890599892	247.802868499886	0.0499778999947011
178313	50	75	0	0	mongoose	1016	75	0	stimuli\mongoose\mongoose_06s.jpg	5	-1	0	0	mongoose_06s.jpg	0	0	0	247.852894499898	247.90287079988	0.049976299982518
178413	50	76	0	0	kite	874	76	0	stimuli\kite\kite_06s.jpg	5	-1	0	0	kite_06s.jpg	0	0	0	247.952890399843	248.002875800012	0.0499854001682252
178513	50	77	0	0	nightstand	1059	77	0	stimuli\nightstand\nightstand_07s.jpg	6	-1	0	1	nightstand_07s.jpg	0	0	0	248.052898199996	248.102872699965	0.0499744999688119
178613	50	78	0	0	toga	1669	78	0	stimuli\toga\toga_04s.jpg	3	-1	0	0	toga_04s.jpg	0	0	0	248.152897699969	248.202875699848	0.0499779998790473
178713	50	79	0	0	oven	1089	79	0	stimuli\oven\oven_12s.jpg	11	-1	0	0	oven_12s.jpg	0	0	0	248.25289870007	248.302882899996	0.0499841999262571
178813	50	80	0	0	tongs	1674	80	0	stimuli\tongs\tongs_11s.jpg	10	-1	0	0	tongs_11s.jpg	1	0.341958299977705	1	248.352901600068	248.402869299985	0.0499676999170333
178913	50	81	0	0	scone	1380	81	0	stimuli\scone\scone_08s.jpg	7	-1	0	0	scone_08s.jpg	0	0	0	248.452890499961	248.502884999849	0.0499944998882711
179013	50	82	0	0	candy_bar	256	82	0	stimuli\candy_bar\candy_bar_06s.jpg	5	-1	0	0	candy_bar_06s.jpg	0	0	0	248.55290660006	248.602867099922	0.049960499862209
179113	50	83	0	0	moss	1022	83	0	stimuli\moss\moss_02s.jpg	1	-1	0	0	moss_02s.jpg	0	0	0	248.652884999989	248.702862899983	0.0499778999947011
179213	50	84	0	0	pie	1168	84	0	stimuli\pie\pie_12s.jpg	11	-1	0	0	pie_12s.jpg	0	0	0	248.752887499984	248.802865799982	0.0499782999977469
179313	50	85	0	0	towel	1692	85	0	stimuli\towel\towel_03s.jpg	2	-1	0	0	towel_03s.jpg	0	0	0	248.852885300061	248.902868299978	0.0499829999171197
179413	50	86	0	0	net	1057	86	0	stimuli\net\net_04s.jpg	3	-1	0	0	net_04s.jpg	0	0	0	248.952902199933	249.00286899996	0.0499668000265956
179513	50	87	0	0	flipper	615	87	0	stimuli\flipper\flipper_01b.jpg	0	-1	0	0	flipper_01b.jpg	0	0	0	249.052890700055	249.102897800039	0.0500070999842137
179613	50	88	0	0	braid	190	88	0	stimuli\braid\braid_06s.jpg	5	-1	0	0	braid_06s.jpg	0	0	0	249.152894000057	249.202874999959	0.0499809999018908
179713	50	89	0	0	velcro	1756	89	0	stimuli\velcro\velcro_11s.jpg	10	-1	0	0	velcro_11s.jpg	0	0	0	249.252896300051	249.302890599938	0.0499942998867482
179813	50	90	0	0	harmonica	753	90	0	stimuli\harmonica\harmonica_12s.jpg	11	-1	0	0	harmonica_12s.jpg	0	0	0	249.35289869993	249.402880399954	0.0499817000236362
179913	50	91	0	0	stick	1552	91	0	stimuli\stick\stick_03s.jpg	2	-1	0	0	stick_03s.jpg	0	0	0	249.452902799938	249.502878499916	0.0499756999779493
180013	50	92	0	0	nightshirt	1058	92	0	stimuli\nightshirt\nightshirt_07s.jpg	6	-1	0	0	nightshirt_07s.jpg	0	0	0	249.552904600045	249.602885300061	0.0499807000160217
180113	50	93	0	0	charcoal	307	93	0	stimuli\charcoal\charcoal_12s.jpg	11	-1	0	0	charcoal_12s.jpg	0	0	0	249.652941399952	249.702885699924	0.0499442999716848
180213	50	94	0	0	almond	13	94	0	stimuli\almond\almond_05s.jpg	4	-1	0	0	almond_05s.jpg	0	0	0	249.752909200033	249.802888300037	0.0499791000038385
180313	50	95	0	0	hair	733	95	0	stimuli\hair\hair_10s.jpg	9	-1	0	0	hair_10s.jpg	0	0	0	249.852911700029	249.90290310001	0.0499913999810815
180413	50	96	0	0	amber	18	96	0	stimuli\amber\amber_02s.jpg	1	-1	0	0	amber_02s.jpg	0	0	0	249.952913899906	250.002895799931	0.0499819000251591
180513	50	97	0	0	plug	1202	97	0	stimuli\plug\plug_05s.jpg	4	-1	0	0	plug_05s.jpg	0	0	0	250.052923300071	250.102895499906	0.0499721998348832
180613	50	98	0	0	seafood	1394	98	0	stimuli\seafood\seafood_08s.jpg	7	-1	0	0	seafood_08s.jpg	0	0	0	250.152918600012	250.202898700023	0.049980100011453
180713	50	99	0	0	javelin	841	99	0	stimuli\javelin\javelin_11s.jpg	10	-1	0	0	javelin_11s.jpg	0	0	0	250.252953700023	250.302915700013	0.049961999990046
180813	50	100	0	0	mannequin	968	100	0	stimuli\mannequin\mannequin_11s.jpg	10	-1	0	0	mannequin_11s.jpg	0	0	0	250.35293449997	250.402941900073	0.0500074001029134
180913	50	101	0	0	tambourine	1619	101	0	stimuli\tambourine\tambourine_04s.jpg	3	-1	0	0	tambourine_04s.jpg	0	0	0	250.452938599978	250.502914699959	0.0499760999809951
181013	50	102	0	0	typewriter	1741	102	0	stimuli\typewriter\typewriter_03s.jpg	2	-1	0	0	typewriter_03s.jpg	0	0	0	250.552939499961	250.602919499855	0.0499799998942763
181113	50	103	0	0	rudder	1339	103	0	stimuli\rudder\rudder_01b.jpg	0	-1	0	0	rudder_01b.jpg	0	0	0	250.652941599954	250.702922499971	0.0499809000175446
181213	50	104	0	0	trailer	1697	104	0	stimuli\trailer\trailer_07s.jpg	6	-1	0	0	trailer_07s.jpg	0	0	0	250.752945699962	250.802929800004	0.049984100041911
181313	50	105	0	0	wrench	1841	105	0	stimuli\wrench\wrench_09s.jpg	8	-1	0	0	wrench_09s.jpg	0	0	0	250.852944700047	250.90292709996	0.049982399912551
181413	50	106	0	0	terrarium	1644	106	0	stimuli\terrarium\terrarium_05s.jpg	4	-1	0	0	terrarium_05s.jpg	0	0	0	250.952948800055	251.002947099973	0.0499982999172062
181513	50	107	0	0	wreath	1839	107	0	stimuli\wreath\wreath_11s.jpg	10	-1	0	0	wreath_11s.jpg	0	0	0	251.052950700046	251.102930699941	0.0499799998942763
181613	50	108	0	0	chinchilla	332	108	0	stimuli\chinchilla\chinchilla_07s.jpg	6	-1	0	0	chinchilla_07s.jpg	0	0	0	251.152966799913	251.202934900066	0.0499681001529098
181713	50	109	0	0	snowsuit	1486	109	0	stimuli\snowsuit\snowsuit_07s.jpg	6	-1	0	0	snowsuit_07s.jpg	0	0	0	251.252955599921	251.302936099935	0.0499805000144988
181813	50	110	0	0	piglet	1173	110	0	stimuli\piglet\piglet_04s.jpg	3	-1	0	0	piglet_04s.jpg	0	0	0	251.352956099901	251.402937300038	0.0499812001362443
181913	50	111	0	0	briefcase	200	111	0	stimuli\briefcase\briefcase_09s.jpg	8	-1	0	0	briefcase_09s.jpg	0	0	0	251.452960199909	251.502969299909	0.0500090999994427
182013	50	112	0	0	trombone	1716	112	0	stimuli\trombone\trombone_10s.jpg	9	-1	0	0	trombone_10s.jpg	0	0	0	251.552962699905	251.602947100066	0.0499844001606107
182113	50	113	0	0	cash_register	280	113	0	stimuli\cash_register\cash_register_03s.jpg	2	-1	0	0	cash_register_03s.jpg	0	0	0	251.652967100032	251.702944499906	0.0499773998744786
182213	50	114	0	0	dryer	524	114	0	stimuli\dryer\dryer_08s.jpg	7	-1	0	0	dryer_08s.jpg	0	0	0	251.752969800029	251.802951300051	0.0499815000221133
182313	50	115	0	0	hearing_aid	770	115	0	stimuli\hearing_aid\hearing_aid_11s.jpg	10	-1	0	0	hearing_aid_11s.jpg	0	0	0	251.852971500019	251.902953499928	0.0499819999095052
182413	50	116	0	0	tiger	1659	116	0	stimuli\tiger\tiger_01b.jpg	0	-1	0	0	tiger_01b.jpg	0	0	0	251.952972800005	252.002955500036	0.0499827000312507
182513	50	117	0	0	domino	503	117	0	stimuli\domino\domino_05s.jpg	4	-1	0	1	domino_05s.jpg	0	0	0	252.052974099992	252.102969399886	0.0499952998943627
182613	50	118	0	0	goldfish	688	118	0	stimuli\goldfish\goldfish_03s.jpg	2	-1	0	0	goldfish_03s.jpg	0	0	0	252.15297769988	252.202956799883	0.0499791000038385
182713	50	119	0	0	banjo	68	119	0	stimuli\banjo\banjo_11s.jpg	10	-1	0	0	banjo_11s.jpg	0	0	0	252.253010699991	252.302958499873	0.0499477998819202
182813	50	120	0	0	record	1295	120	0	stimuli\record\record_01b.jpg	0	-1	0	0	record_01b.jpg	1	0.292275100015104	1	252.352986200014	252.402964999899	0.0499787998851389
182913	50	121	0	0	noisemaker	1060	121	0	stimuli\noisemaker\noisemaker_08s.jpg	7	-1	0	0	noisemaker_08s.jpg	0	0	0	252.452984299976	252.502964999992	0.0499807000160217
183013	50	122	0	0	batter	96	122	0	stimuli\batter\batter_03s.jpg	2	-1	0	0	batter_03s.jpg	0	0	0	252.552986799972	252.602968299994	0.0499815000221133
183113	50	123	0	0	bone	161	123	0	stimuli\bone\bone_04s.jpg	3	-1	0	0	bone_04s.jpg	0	0	0	252.652991099982	252.702969399979	0.0499782999977469
183213	50	124	0	0	rollerskate	1327	124	0	stimuli\rollerskate\rollerskate_05s.jpg	4	-1	0	0	rollerskate_05s.jpg	0	0	0	252.752989799948	252.802973499987	0.0499837000388652
183313	50	125	0	0	diaper	485	125	0	stimuli\diaper\diaper_07s.jpg	6	-1	0	0	diaper_07s.jpg	0	0	0	252.853005399927	252.902975699864	0.049970299936831
183413	50	126	0	0	water_bottle	1787	126	0	stimuli\water_bottle\water_bottle_03s.jpg	2	-1	0	0	water_bottle_03s.jpg	0	0	0	252.952992100036	253.002977999859	0.0499858998227865
183513	50	127	0	0	dynamite	536	127	0	stimuli\dynamite\dynamite_05s.jpg	4	-1	0	0	dynamite_05s.jpg	0	0	0	253.052987399977	253.102969999891	0.0499825999140739
183613	50	128	0	0	organ	1082	128	0	stimuli\organ\organ_08s.jpg	7	-1	0	0	organ_08s.jpg	0	0	0	253.152987899957	253.202971599996	0.0499837000388652
183713	50	129	0	0	kangaroo	862	129	0	stimuli\kangaroo\kangaroo_02s.jpg	1	-1	0	0	kangaroo_02s.jpg	0	0	0	253.252993099857	253.302999200067	0.0500061002094299
183813	50	130	0	0	macaroni	952	130	0	stimuli\macaroni\macaroni_12s.jpg	11	-1	0	0	macaroni_12s.jpg	0	0	0	253.353017000016	253.402974399971	0.0499573999550194
183913	50	131	0	0	pineapple	1182	131	0	stimuli\pineapple\pineapple_01b.jpg	0	-1	0	0	pineapple_01b.jpg	0	0	0	253.452998699853	253.502975899959	0.0499772001057863
184013	50	132	0	0	juicer2	856	132	0	stimuli\juicer2\juicer2_01b.jpg	0	-1	0	0	juicer2_01b.jpg	0	0	0	253.553000000073	253.6029864999	0.0499864998273551
184113	50	133	0	0	string_cheese	1573	133	0	stimuli\string_cheese\string_cheese_11s.jpg	10	-1	0	0	string_cheese_11s.jpg	0	0	0	253.65300219995	253.702983699972	0.0499815000221133
184213	50	134	0	0	toothpick	1681	134	0	stimuli\toothpick\toothpick_07s.jpg	6	-1	0	0	toothpick_07s.jpg	0	0	0	253.753008699976	253.802991000004	0.0499823000282049
184313	50	135	0	0	hose	800	135	0	stimuli\hose\hose_12s.jpg	11	-1	0	0	hose_12s.jpg	0	0	0	253.853005700046	253.903006599983	0.0500008999370039
184413	50	136	0	0	mallet	962	136	0	stimuli\mallet\mallet_09s.jpg	8	-1	0	0	mallet_09s.jpg	0	0	0	253.953037699917	254.002990199951	0.0499525000341237
184513	50	137	0	0	windshield	1820	137	0	stimuli\windshield\windshield_02s.jpg	1	-1	0	0	windshield_02s.jpg	0	0	0	254.053012999939	254.103004799923	0.0499917999841273
184613	50	138	0	0	iguana	825	138	0	stimuli\iguana\iguana_10n.jpg	9	-1	0	0	iguana_10n.jpg	0	0	0	254.153012899915	254.202994399937	0.0499815000221133
184713	50	139	0	0	camera_lens	248	139	0	stimuli\camera_lens\camera_lens_08s.jpg	7	-1	0	0	camera_lens_08s.jpg	0	0	0	254.253016900038	254.302996200044	0.0499793000053614
184813	50	140	0	0	hammock	742	140	0	stimuli\hammock\hammock_06s.jpg	5	-1	0	0	hammock_06s.jpg	0	0	0	254.353018600028	254.403000199934	0.0499815999064595
184913	50	141	0	0	bear	105	141	0	stimuli\bear\bear_09s.jpg	8	-1	0	0	bear_09s.jpg	0	0	0	254.453028499847	254.502999899909	0.0499714000616223
185013	50	142	0	0	surfboard	1587	142	0	stimuli\surfboard\surfboard_12s.jpg	11	-1	0	0	surfboard_12s.jpg	0	0	0	254.55302360002	254.603004300036	0.0499807000160217
185113	50	143	0	0	sweet_potato	1595	143	0	stimuli\sweet_potato\sweet_potato_11s.jpg	10	-1	0	0	sweet_potato_11s.jpg	0	0	0	254.653031399939	254.703021300025	0.0499899000860751
185213	50	144	0	0	artichoke	39	144	0	stimuli\artichoke\artichoke_10s.jpg	9	-1	0	0	artichoke_10s.jpg	0	0	0	254.753030299908	254.803009399911	0.0499791000038385
185313	50	145	0	0	blender	138	145	0	stimuli\blender\blender_09s.jpg	8	-1	0	0	blender_09s.jpg	0	0	0	254.853061300004	254.903012499912	0.0499511999078095
185413	50	146	0	0	lectern	908	146	0	stimuli\lectern\lectern_06s.jpg	5	-1	0	0	lectern_06s.jpg	0	0	0	254.953034200007	255.003014700022	0.0499805000144988
185513	50	147	0	0	sawhorse	1367	147	0	stimuli\sawhorse\sawhorse_09s.jpg	8	-1	0	0	sawhorse_09s.jpg	0	0	0	255.053035399877	255.103016400011	0.0499810001347214
185613	50	148	0	0	rice	1309	148	0	stimuli\rice\rice_10s.jpg	9	-1	0	0	rice_10s.jpg	0	0	0	255.153036999982	255.20303720003	0.050000200048089
185713	50	149	0	0	pheasant	1160	149	0	stimuli\pheasant\pheasant_11s.jpg	10	-1	0	0	pheasant_11s.jpg	0	0	0	255.253040499985	255.303019999992	0.0499795000068843
185813	50	150	0	0	vending_machine	1757	150	0	stimuli\vending_machine\vending_machine_01b.jpg	0	-1	0	0	vending_machine_01b.jpg	0	0	0	255.353043299867	255.403021899983	0.0499786001164466
185913	50	151	0	0	football	629	151	0	stimuli\football\football_01b.jpg	0	-1	0	0	football_01b.jpg	0	0	0	255.453046899987	255.503023099853	0.0499761998653412
186013	50	152	0	0	fungus	648	152	0	stimuli\fungus\fungus_06s.jpg	5	-1	0	1	fungus_06s.jpg	0	0	0	255.553055499913	255.60304109985	0.0499855999369174
186113	50	153	0	0	gravestone	710	153	0	stimuli\gravestone\gravestone_05s.jpg	4	-1	0	0	gravestone_05s.jpg	0	0	0	255.653049499961	255.703029399971	0.0499799000099301
186213	50	154	0	0	pancake	1104	154	0	stimuli\pancake\pancake_11s.jpg	10	-1	0	0	pancake_11s.jpg	1	0.256714900024235	1	255.753053999972	255.80303459987	0.049980599898845
186313	50	155	0	0	rocket	1320	155	0	stimuli\rocket\rocket_11s.jpg	10	-1	0	0	rocket_11s.jpg	0	0	0	255.853054400068	255.903038099874	0.0499836998060346
186413	50	156	0	0	seaweed	1400	156	0	stimuli\seaweed\seaweed_09s.jpg	8	-1	0	0	seaweed_09s.jpg	0	0	0	255.953086500056	256.003041699994	0.0499551999382675
186513	50	157	0	0	nose	1063	157	0	stimuli\nose\nose_08s.jpg	7	-1	0	0	nose_08s.jpg	0	0	0	256.053059299942	256.10304109985	0.0499817999079823
186613	50	158	0	0	mop	1019	158	0	stimuli\mop\mop_06s.jpg	5	-1	0	0	mop_06s.jpg	0	0	0	256.153067099862	256.203054799931	0.0499877000693232
186713	50	159	0	0	box	181	159	0	stimuli\box\box_06s.jpg	5	-1	0	0	box_06s.jpg	0	0	0	256.253065299941	256.303045100067	0.049979800125584
186813	50	160	0	0	floss	617	160	0	stimuli\floss\floss_03s.jpg	2	-1	0	0	floss_03s.jpg	0	0	0	256.353068100056	256.403046600055	0.0499784999992698
186913	50	161	0	0	chili	327	161	0	stimuli\chili\chili_02s.jpg	1	-1	0	0	chili_02s.jpg	0	0	0	256.453070299933	256.503048399929	0.049978099996224
187013	50	162	0	0	knitting	880	162	0	stimuli\knitting\knitting_07s.jpg	6	-1	0	0	knitting_07s.jpg	0	0	0	256.55310219992	256.603050499922	0.0499483000021428
187113	50	163	0	0	cookie_sheet	402	163	0	stimuli\cookie_sheet\cookie_sheet_12s.jpg	11	-1	0	0	cookie_sheet_12s.jpg	0	0	0	256.653074299917	256.703050599899	0.049976299982518
187213	50	164	0	0	butterfly	229	164	0	stimuli\butterfly\butterfly_05s.jpg	4	-1	0	0	butterfly_05s.jpg	0	0	0	256.75307779992	256.80305769993	0.0499799000099301
187313	50	165	0	0	salami	1349	165	0	stimuli\salami\salami_09s.jpg	8	-1	0	0	salami_09s.jpg	0	0	0	256.853079200024	256.903059100034	0.0499799000099301
187413	50	166	0	0	bowtie	180	166	0	stimuli\bowtie\bowtie_09s.jpg	8	-1	0	0	bowtie_09s.jpg	0	0	0	256.953084999928	257.003062099917	0.0499770999886096
187513	50	167	0	0	ankle	22	167	0	stimuli\ankle\ankle_03s.jpg	2	-1	0	0	ankle_03s.jpg	0	0	0	257.053101700032	257.103063999908	0.0499622998759151
187613	50	168	0	0	chihuahua	326	168	0	stimuli\chihuahua\chihuahua_03s.jpg	2	-1	0	0	chihuahua_03s.jpg	0	0	0	257.153085999889	257.203066600021	0.0499806001316756
187713	50	169	0	0	caramel	270	169	0	stimuli\caramel\caramel_05s.jpg	4	-1	0	0	caramel_05s.jpg	0	0	0	257.253090000013	257.303095899988	0.0500058999750763
187813	50	170	0	0	bean	102	170	0	stimuli\bean\bean_12s.jpg	11	-1	0	0	bean_12s.jpg	0	0	0	257.353092300007	257.403071400011	0.0499791000038385
187913	50	171	0	0	cello	292	171	0	stimuli\cello\cello_12s.jpg	11	-1	0	0	cello_12s.jpg	0	0	0	257.453108199872	257.503071399871	0.0499631999991834
188013	50	172	0	0	balloon	60	172	0	stimuli\balloon\balloon_11s.jpg	10	-1	0	0	balloon_11s.jpg	0	0	0	257.553097099997	257.603077699896	0.049980599898845
188113	50	173	0	0	fossil	636	173	0	stimuli\fossil\fossil_12s.jpg	11	-1	0	0	fossil_12s.jpg	0	0	0	257.653100299882	257.703081100015	0.0499808001331985
188213	50	174	0	0	sewage	1405	174	0	stimuli\sewage\sewage_11s.jpg	10	-1	0	0	sewage_11s.jpg	0	0	0	257.753102599876	257.803117099917	0.050014500040561
188313	50	175	0	0	spear	1510	175	0	stimuli\spear\spear_06s.jpg	5	-1	0	0	spear_06s.jpg	0	0	0	257.853107600007	257.903083599871	0.0499759998638183
188413	50	176	0	0	gurney	728	176	0	stimuli\gurney\gurney_01b.jpg	0	-1	0	0	gurney_01b.jpg	0	0	0	257.953106699977	258.003090099897	0.0499833999201655
188513	50	177	0	0	applesauce	32	177	0	stimuli\applesauce\applesauce_08s.jpg	7	-1	0	0	applesauce_08s.jpg	0	0	0	258.053107499843	258.103089699987	0.0499822001438588
188613	50	178	0	0	clover	366	178	0	stimuli\clover\clover_07s.jpg	6	-1	0	0	clover_07s.jpg	0	0	0	258.153111099964	258.203091699863	0.049980599898845
188713	50	179	0	0	motherboard	1024	179	0	stimuli\motherboard\motherboard_06s.jpg	5	-1	0	0	motherboard_06s.jpg	0	0	0	258.253126200056	258.30309439986	0.0499681998044252
188813	50	180	0	0	bed	108	180	0	stimuli\bed\bed_07n.jpg	6	-1	0	0	bed_07n.jpg	0	0	0	258.353114400059	258.403095599962	0.0499811999034137
188913	50	181	0	0	diskette	493	181	0	stimuli\diskette\diskette_02s.jpg	1	-1	0	0	diskette_02s.jpg	0	0	0	258.453118100064	258.503097299952	0.0499791998881847
189013	50	182	0	0	pipe1	1186	182	0	stimuli\pipe1\pipe1_04s.jpg	3	-1	0	0	pipe1_04s.jpg	0	0	0	258.553150499938	258.603100399952	0.049949900014326
189113	50	183	0	0	skateboard	1449	183	0	stimuli\skateboard\skateboard_01b.jpg	0	-1	0	0	skateboard_01b.jpg	0	0	0	258.653122100048	258.703103400068	0.0499813000205904
189213	50	184	0	0	football_helmet	630	184	0	stimuli\football_helmet\football_helmet_12s.jpg	11	-1	0	0	football_helmet_12s.jpg	0	0	0	258.753125000047	258.803129999898	0.050004999851808
189313	50	185	0	0	shopping_cart	1428	185	0	stimuli\shopping_cart\shopping_cart_04s.jpg	3	-1	0	0	shopping_cart_04s.jpg	0	0	0	258.853127500042	258.903107200051	0.0499797000084072
189413	50	186	0	0	pocket_watch	1206	186	0	stimuli\pocket_watch\pocket_watch_10s.jpg	9	-1	0	0	pocket_watch_10s.jpg	0	0	0	258.953130899929	259.00311010005	0.0499792001210153
189513	50	187	0	0	bag	54	187	0	stimuli\bag\bag_11s.jpg	10	-1	0	0	bag_11s.jpg	0	0	0	259.053131100023	259.103112400044	0.0499813000205904
189613	50	188	0	0	champagne	304	188	0	stimuli\champagne\champagne_12s.jpg	11	-1	0	0	champagne_12s.jpg	0	0	0	259.153152900049	259.20311370003	0.0499607999809086
189713	50	189	0	0	modem	1011	189	0	stimuli\modem\modem_10s.jpg	9	-1	0	0	modem_10s.jpg	0	0	0	259.253136500018	259.3031301999	0.0499936998821795
189813	50	190	0	0	incubator	827	190	0	stimuli\incubator\incubator_07s.jpg	6	-1	0	0	incubator_07s.jpg	0	0	0	259.353139400017	259.403119900031	0.0499805000144988
189913	50	191	0	0	koala	884	191	0	stimuli\koala\koala_12s.jpg	11	-1	0	0	koala_12s.jpg	0	0	0	259.453141300008	259.503118099878	0.0499767998699099
190013	50	192	0	0	green_beans	712	192	0	stimuli\green_beans\green_beans_10s.jpg	9	-1	0	0	green_beans_10s.jpg	0	0	0	259.553143099882	259.603124599904	0.0499815000221133
190113	50	193	0	0	panda	1105	193	0	stimuli\panda\panda_01b.jpg	0	-1	0	0	panda_01b.jpg	0	0	0	259.653183199931	259.70312760002	0.0499444000888616
190213	50	194	0	0	workbench	1835	194	0	stimuli\workbench\workbench_07s.jpg	6	-1	0	0	workbench_07s.jpg	0	0	0	259.753148499876	259.803129999898	0.0499815000221133
190313	50	195	0	0	cucumber	457	195	0	stimuli\cucumber\cucumber_10s.jpg	9	-1	0	0	cucumber_10s.jpg	0	0	0	259.85314939986	259.903147599893	0.04999820003286
190413	50	196	0	0	toaster	1666	196	0	stimuli\toaster\toaster_09s.jpg	8	-1	0	0	toaster_09s.jpg	0	0	0	259.953152699862	260.003133099992	0.0499804001301527
190513	50	197	0	0	octopus	1070	197	0	stimuli\octopus\octopus_08n.jpg	7	-1	0	0	octopus_08n.jpg	0	0	0	260.053155999864	260.103138499893	0.0499825000297278
190613	50	198	0	0	pretzel	1239	198	0	stimuli\pretzel\pretzel_05s.jpg	4	-1	0	0	pretzel_05s.jpg	0	0	0	260.153159499867	260.203138299985	0.0499788001179695
190713	50	199	0	0	ferris_wheel	579	199	0	stimuli\ferris_wheel\ferris_wheel_06s.jpg	5	-1	0	0	ferris_wheel_06s.jpg	0	0	0	260.25318869995	260.303144000005	0.0499553000554442
190813	50	200	0	0	rooster	1330	200	0	stimuli\rooster\rooster_12s.jpg	11	-1	0	1	rooster_12s.jpg	0	0	0	260.353167199995	260.403169699945	0.050002499949187
190913	50	201	0	0	goggles	686	201	0	stimuli\goggles\goggles_06s.jpg	5	-1	0	0	goggles_06s.jpg	0	0	0	260.453165499959	260.50314509985	0.0499795998912305
191013	50	202	0	0	hedgehog	774	202	0	stimuli\hedgehog\hedgehog_01b.jpg	0	-1	0	0	hedgehog_01b.jpg	0	0	0	260.553167599952	260.603148299968	0.0499807000160217
191113	50	203	0	0	gear	667	203	0	stimuli\gear\gear_11s.jpg	10	-1	0	0	gear_11s.jpg	1	0.352587200002745	1	260.653181500034	260.703150999965	0.0499694999307394
191213	50	204	0	0	bathtub	91	204	0	stimuli\bathtub\bathtub_10s.jpg	9	-1	0	0	bathtub_10s.jpg	0	0	0	260.753172900062	260.803151899949	0.0499789998866618
191313	50	205	0	0	cereal	297	205	0	stimuli\cereal\cereal_01b.jpg	0	-1	0	0	cereal_01b.jpg	0	0	0	260.853173299925	260.903156299843	0.0499829999171197
191413	50	206	0	0	owl	1091	206	0	stimuli\owl\owl_06s.jpg	5	-1	0	0	owl_06s.jpg	0	0	0	260.953177500051	261.003186400048	0.0500088999979198
191513	50	207	0	0	match	983	207	0	stimuli\match\match_10s.jpg	9	-1	0	0	match_10s.jpg	0	0	0	261.053179000039	261.103161900071	0.0499829000327736
191613	50	208	0	0	figurine	582	208	0	stimuli\figurine\figurine_12s.jpg	11	-1	0	0	figurine_12s.jpg	0	0	0	261.153195400024	261.203163299942	0.0499678999185562
191713	50	209	0	0	cane	258	209	0	stimuli\cane\cane_01s.jpg	0	-1	0	0	cane_01s.jpg	0	0	0	261.253185299924	261.303164700046	0.0499794001225382
191813	50	210	0	0	cabinet	233	210	0	stimuli\cabinet\cabinet_06s.jpg	5	-1	0	0	cabinet_06s.jpg	0	0	0	261.35318659991	261.403168000048	0.0499814001377672
191913	50	211	0	0	frog	644	211	0	stimuli\frog\frog_07s.jpg	6	-1	0	0	frog_07s.jpg	0	0	0	261.453190600034	261.503189400071	0.0499988000374287
192013	50	212	0	0	highchair	777	212	0	stimuli\highchair\highchair_11s.jpg	10	-1	0	0	highchair_11s.jpg	0	0	0	261.553193199914	261.603171499912	0.0499782999977469
192113	50	213	0	0	skirt	1457	213	0	stimuli\skirt\skirt_09s.jpg	8	-1	0	0	skirt_09s.jpg	0	0	0	261.653195000021	261.703173599904	0.049978599883616
192213	50	214	0	0	drumstick	523	214	0	stimuli\drumstick\drumstick_05s.jpg	4	-1	0	0	drumstick_05s.jpg	0	0	0	261.753202599939	261.803177200025	0.0499746000859886
192313	50	215	0	0	neck	1053	215	0	stimuli\neck\neck_05s.jpg	4	-1	0	0	neck_05s.jpg	0	0	0	261.853196899872	261.903191299876	0.049994400003925
192413	50	216	0	0	paperweight	1117	216	0	stimuli\paperweight\paperweight_04s.jpg	3	-1	0	0	paperweight_04s.jpg	0	0	0	261.953201799886	262.003182299901	0.0499805000144988
192513	50	217	0	0	water_filter	1789	217	0	stimuli\water_filter\water_filter_09s.jpg	8	-1	0	0	water_filter_09s.jpg	0	0	0	262.053203299874	262.103184399894	0.0499811000190675
192613	50	218	0	0	broom	203	218	0	stimuli\broom\broom_05s.jpg	4	-1	0	0	broom_05s.jpg	0	0	0	262.153205399867	262.203192499932	0.0499871000647545
192713	50	219	0	0	penholder	1146	219	0	stimuli\penholder\penholder_01b.jpg	0	-1	0	0	penholder_01b.jpg	0	0	0	262.253236499848	262.303196300054	0.0499598002061248
192813	50	220	0	0	blimp	139	220	0	stimuli\blimp\blimp_10s.jpg	9	-1	0	0	blimp_10s.jpg	0	0	0	262.353211899986	262.403214399936	0.050002499949187
192913	50	221	0	0	baklava	57	221	0	stimuli\baklava\baklava_01s.jpg	0	-1	0	0	baklava_01s.jpg	0	0	0	262.453215899877	262.503197500017	0.0499816001392901
193013	50	222	0	0	bulletproof_vest	218	222	0	stimuli\bulletproof_vest\bulletproof_vest_01s.jpg	0	-1	0	0	bulletproof_vest_01s.jpg	0	0	0	262.553218799876	262.603195599979	0.0499768001027405
193113	50	223	0	0	visor	1766	223	0	stimuli\visor\visor_05s.jpg	4	-1	0	0	visor_05s.jpg	0	0	0	262.653219199972	262.703199099982	0.0499799000099301
193213	50	224	0	0	ramp	1283	224	0	stimuli\ramp\ramp_07s.jpg	6	-1	0	0	ramp_07s.jpg	0	0	0	262.753221499966	262.803200799972	0.0499793000053614
193313	50	225	0	0	meerkat	992	225	0	stimuli\meerkat\meerkat_08s.jpg	7	-1	0	0	meerkat_08s.jpg	0	0	0	262.853230200009	262.90323639987	0.0500061998609453
193413	50	226	0	0	machete	953	226	0	stimuli\machete\machete_06s.jpg	5	-1	0	0	machete_06s.jpg	0	0	0	262.953231199877	263.003222599858	0.0499913999810815
193513	50	227	0	0	doorstop	512	227	0	stimuli\doorstop\doorstop_03s.jpg	2	-1	0	0	doorstop_03s.jpg	0	0	0	263.053226900054	263.103210999863	0.0499840998090804
193613	50	228	0	0	fishing_pole	603	228	0	stimuli\fishing_pole\fishing_pole_05s.jpg	4	-1	0	0	fishing_pole_05s.jpg	0	0	0	263.153231099946	263.203209799947	0.0499787000007927
193713	50	229	0	0	tab	1607	229	0	stimuli\tab\tab_11s.jpg	10	-1	0	0	tab_11s.jpg	0	0	0	263.253234500065	263.303213800071	0.0499793000053614
193813	50	230	0	0	satellite	1360	230	0	stimuli\satellite\satellite_07s.jpg	6	-1	0	0	satellite_07s.jpg	0	0	0	263.353256399976	263.40321499994	0.0499585999641567
193913	50	231	0	0	pumpkin	1253	231	0	stimuli\pumpkin\pumpkin_01b.jpg	0	-1	0	0	pumpkin_01b.jpg	0	0	0	263.453238399932	263.503216899931	0.0499784999992698
194013	50	232	0	0	doorhandle	508	232	0	stimuli\doorhandle\doorhandle_12s.jpg	11	-1	0	0	doorhandle_12s.jpg	0	0	0	263.553241000045	263.603238099953	0.0499970999080688
194113	50	233	0	0	sword	1602	233	0	stimuli\sword\sword_05s.jpg	4	-1	0	0	sword_05s.jpg	0	0	0	263.653241300024	263.703222899931	0.0499815999064595
194213	50	234	0	0	earring	540	234	0	stimuli\earring\earring_09s.jpg	8	-1	0	0	earring_09s.jpg	0	0	0	263.753260199912	263.803225300042	0.0499651001300663
194313	50	235	0	0	unicycle	1746	235	0	stimuli\unicycle\unicycle_07s.jpg	6	-1	0	0	unicycle_07s.jpg	0	0	0	263.853248300031	263.90322680003	0.0499784999992698
194413	50	236	0	0	pill	1174	236	0	stimuli\pill\pill_10s.jpg	9	-1	0	0	pill_10s.jpg	0	0	0	263.953266700031	264.003250699956	0.0499839999247342
194513	50	237	0	0	salad	1348	237	0	stimuli\salad\salad_07s.jpg	6	-1	0	0	salad_07s.jpg	0	0	0	264.053265099879	264.10327299987	0.0500078999903053
194613	50	238	0	0	cord	407	238	0	stimuli\cord\cord_08s.jpg	7	-1	0	0	cord_08s.jpg	0	0	0	264.153264799854	264.203246299876	0.0499815000221133
194713	50	239	0	0	doorknocker	510	239	0	stimuli\doorknocker\doorknocker_12s.jpg	11	-1	0	0	doorknocker_12s.jpg	0	0	0	264.253256199881	264.303239299916	0.0499831000342965
194813	50	240	0	0	flashbulb	610	240	0	stimuli\flashbulb\flashbulb_10s.jpg	9	-1	0	0	flashbulb_10s.jpg	0	0	0	264.35325909988	264.403239399893	0.0499803000129759
194913	50	241	0	0	door	506	241	0	stimuli\door\door_07s.jpg	6	-1	0	0	door_07s.jpg	0	0	0	264.45326339989	264.503239599988	0.0499762000981718
195013	50	242	0	0	bead	100	242	0	stimuli\bead\bead_05s.jpg	4	-1	0	0	bead_05s.jpg	0	0	0	264.553263599984	264.60324379988	0.0499801998957992
195113	50	243	0	0	pepper2	1150	243	0	stimuli\pepper2\pepper2_03s.jpg	2	-1	0	0	pepper2_03s.jpg	0	0	0	264.653266199864	264.703263599891	0.0499974000267684
195213	50	244	0	0	mosquito	1020	244	0	stimuli\mosquito\mosquito_10s.jpg	9	-1	0	0	mosquito_10s.jpg	0	0	0	264.753269499866	264.803249799879	0.0499803000129759
195313	50	245	0	0	coffee_bean	378	245	0	stimuli\coffee_bean\coffee_bean_10s.jpg	9	-1	0	0	coffee_bean_10s.jpg	0	0	0	264.853291000007	264.903251299867	0.0499602998606861
195413	50	246	0	0	diving_board	494	246	0	stimuli\diving_board\diving_board_10s.jpg	9	-1	0	0	diving_board_10s.jpg	0	0	0	264.953273599967	265.003266299842	0.049992699874565
195513	50	247	0	0	cactus	235	247	0	stimuli\cactus\cactus_03s.jpg	2	-1	0	0	cactus_03s.jpg	0	0	0	265.053287999937	265.103267899947	0.0499799000099301
195613	50	248	0	0	shoe_polish	1424	248	0	stimuli\shoe_polish\shoe_polish_05s.jpg	4	-1	0	0	shoe_polish_05s.jpg	0	0	0	265.153292400064	265.203270999948	0.049978599883616
195713	50	249	0	0	eyedropper	566	249	0	stimuli\eyedropper\eyedropper_04s.jpg	3	-1	0	0	eyedropper_04s.jpg	0	0	0	265.253280400066	265.30326249986	0.0499820997938514
195813	50	250	0	0	snowmobile	1483	250	0	stimuli\snowmobile\snowmobile_04s.jpg	3	-1	0	0	snowmobile_04s.jpg	0	0	0	265.353282599943	265.403264599852	0.0499819999095052
195913	50	251	0	0	highlighter	778	251	0	stimuli\highlighter\highlighter_03s.jpg	2	-1	0	0	highlighter_03s.jpg	0	0	0	265.453296100022	265.503263700055	0.0499676000326872
196013	50	252	0	0	strainer	1566	252	0	stimuli\strainer\strainer_03s.jpg	2	-1	0	0	strainer_03s.jpg	0	0	0	265.553287599934	265.603299699957	0.0500121000222862
196113	50	253	0	0	acorn	3	253	0	stimuli\acorn\acorn_03s.jpg	2	-1	0	0	acorn_03s.jpg	0	0	0	265.653290200047	265.703269599937	0.0499793998897076
196213	50	254	0	0	souffle	1498	254	0	stimuli\souffle\souffle_11s.jpg	10	-1	0	0	souffle_11s.jpg	0	0	0	265.753291999921	265.803273400059	0.0499814001377672
196313	50	255	0	0	fern	577	255	0	stimuli\fern\fern_07s.jpg	6	-1	0	0	fern_07s.jpg	0	0	0	265.853296299931	265.903275799938	0.0499795000068843
196413	50	256	0	0	pennant	1148	256	0	stimuli\pennant\pennant_07s.jpg	6	-1	0	0	pennant_07s.jpg	0	0	0	265.953325900016	266.003280299949	0.0499543999321759
196513	50	257	0	0	brush	205	257	0	stimuli\brush\brush_05s.jpg	4	-1	0	0	brush_05s.jpg	0	0	0	266.053301200038	266.103281300049	0.049980100011453
196613	50	258	0	0	chicken1	322	258	0	stimuli\chicken1\chicken1_04s.jpg	3	-1	0	0	chicken1_04s.jpg	0	0	0	266.153302399907	266.203289999859	0.0499875999521464
196713	50	259	0	0	sausage	1365	259	0	stimuli\sausage\sausage_07s.jpg	6	-1	0	0	sausage_07s.jpg	0	0	0	266.253308400046	266.303284799913	0.0499763998668641
196813	50	260	0	0	lampshade	893	260	0	stimuli\lampshade\lampshade_02s.jpg	1	-1	0	0	lampshade_02s.jpg	0	0	0	266.35331070004	266.403286800021	0.0499760999809951
196913	50	261	0	0	cushion	466	261	0	stimuli\cushion\cushion_10s.jpg	9	-1	0	0	cushion_10s.jpg	0	0	0	266.453308499884	266.503288799897	0.0499803000129759
197013	50	262	0	0	melon	994	262	0	stimuli\melon\melon_08s.jpg	7	-1	0	0	melon_08s.jpg	0	0	0	266.553337099962	266.60329140001	0.0499543000478297
197113	50	263	0	0	trough	1718	263	0	stimuli\trough\trough_10s.jpg	9	-1	0	0	trough_10s.jpg	0	0	0	266.653315400006	266.703322099987	0.0500066999811679
197213	50	264	0	0	stew	1551	264	0	stimuli\stew\stew_10s.jpg	9	-1	0	0	stew_10s.jpg	0	0	0	266.753317499999	266.803297200007	0.0499797000084072
197313	50	265	0	0	paper	1112	265	0	stimuli\paper\paper_05s.jpg	4	-1	0	0	paper_05s.jpg	0	0	0	266.85331889987	266.903300500009	0.0499816001392901
197413	50	266	0	0	beachball	99	266	0	stimuli\beachball\beachball_11s.jpg	10	-1	0	0	beachball_11s.jpg	0	0	0	266.953322699992	267.00330099999	0.0499782999977469
197513	50	267	0	0	okra	1074	267	0	stimuli\okra\okra_01b.jpg	0	-1	0	0	okra_01b.jpg	0	0	0	267.053339299979	267.103303999873	0.0499646998941898
197613	50	268	0	0	food_processor	627	268	0	stimuli\food_processor\food_processor_05s.jpg	4	-1	0	0	food_processor_05s.jpg	0	0	0	267.153325699968	267.203306299867	0.049980599898845
197713	50	269	0	0	mold1	1012	269	0	stimuli\mold1\mold1_01b.jpg	0	-1	0	0	mold1_01b.jpg	0	0	0	267.253330199979	267.303329099901	0.0499988999217749
197813	50	270	0	0	washcloth	1783	270	0	stimuli\washcloth\washcloth_07s.jpg	6	-1	0	0	washcloth_07s.jpg	0	0	0	267.353330799844	267.403311399976	0.0499806001316756
197913	50	271	0	0	triangle	1710	271	0	stimuli\triangle\triangle_05s.jpg	4	-1	0	0	triangle_05s.jpg	0	0	0	267.453343899921	267.503312799847	0.0499688999261707
198013	50	272	0	0	cigar	343	272	0	stimuli\cigar\cigar_12n.jpg	11	-1	0	0	cigar_12n.jpg	0	0	0	267.553333699936	267.60331539996	0.0499817000236362
198113	50	273	0	0	submarine	1577	273	0	stimuli\submarine\submarine_07s.jpg	6	-1	0	0	submarine_07s.jpg	0	0	0	267.653337900061	267.703318000073	0.049980100011453
198213	50	274	0	0	goblet	685	274	0	stimuli\goblet\goblet_04s.jpg	3	-1	0	0	goblet_04s.jpg	0	0	0	267.753340499941	267.803349700058	0.0500092001166195
198313	50	275	0	0	mulch	1038	275	0	stimuli\mulch\mulch_06s.jpg	5	-1	0	0	mulch_06s.jpg	0	0	0	267.853345100069	267.903324499959	0.0499793998897076
198413	50	276	0	0	cooler	403	276	0	stimuli\cooler\cooler_07s.jpg	6	-1	0	0	cooler_07s.jpg	0	0	0	267.953347499948	268.003326700069	0.0499792001210153
198513	50	277	0	0	bamboo	62	277	0	stimuli\bamboo\bamboo_11s.jpg	10	-1	0	0	bamboo_11s.jpg	0	0	0	268.053353899857	268.10333209997	0.0499782001134008
198613	50	278	0	0	dart	473	278	0	stimuli\dart\dart_05s.jpg	4	-1	0	0	dart_05s.jpg	0	0	0	268.153350099921	268.203328700038	0.0499786001164466
198713	50	279	0	0	compost	393	279	0	stimuli\compost\compost_03s.jpg	2	-1	0	0	compost_03s.jpg	0	0	0	268.253353199922	268.30333340005	0.0499802001286298
198813	50	280	0	0	mitten	1008	280	0	stimuli\mitten\mitten_03s.jpg	2	-1	0	0	mitten_03s.jpg	0	0	0	268.353356000036	268.403351099929	0.0499950998928398
198913	50	281	0	0	fire_alarm	591	281	0	stimuli\fire_alarm\fire_alarm_08s.jpg	7	-1	0	0	fire_alarm_08s.jpg	0	0	0	268.45335690002	268.503335899906	0.0499789998866618
199013	50	282	0	0	ski_boots	1453	282	0	stimuli\ski_boots\ski_boots_08s.jpg	7	-1	0	0	ski_boots_08s.jpg	0	0	0	268.553388200002	268.603341700044	0.0499535000417382
199113	50	283	0	0	scoop	1381	283	0	stimuli\scoop\scoop_05s.jpg	4	-1	0	0	scoop_05s.jpg	0	0	0	268.65336310002	268.703342200024	0.0499791000038385
199213	50	284	0	0	mail	959	284	0	stimuli\mail\mail_12s.jpg	11	-1	0	0	mail_12s.jpg	0	0	0	268.75336829992	268.803345399909	0.0499770999886096
199313	50	285	0	0	reel	1299	285	0	stimuli\reel\reel_01b.jpg	0	-1	0	0	reel_01b.jpg	0	0	0	268.853366599884	268.903368399944	0.0500018000602722
199413	50	286	0	0	rifle	1311	286	0	stimuli\rifle\rifle_02n.jpg	1	-1	0	0	rifle_02n.jpg	0	0	0	268.953368899878	269.00334950001	0.0499806001316756
199513	50	287	0	0	paintbrush	1097	287	0	stimuli\paintbrush\paintbrush_10s.jpg	9	-1	0	0	paintbrush_10s.jpg	0	0	0	269.053372099996	269.103356400039	0.0499843000434339
199613	50	288	0	0	penguin	1145	288	0	stimuli\penguin\penguin_12s.jpg	11	-1	0	0	penguin_12s.jpg	0	0	0	269.15338919987	269.203356300015	0.0499671001452953
199713	50	289	0	0	cage	236	289	0	stimuli\cage\cage_09s.jpg	8	-1	0	0	cage_09s.jpg	0	0	0	269.253377299989	269.303377100034	0.0499998000450432
199813	50	290	0	0	croissant	442	290	0	stimuli\croissant\croissant_05s.jpg	4	-1	0	0	croissant_05s.jpg	0	0	0	269.353379399981	269.403361399891	0.0499819999095052
199913	50	291	0	0	baseball	78	291	0	stimuli\baseball\baseball_11s.jpg	10	-1	0	0	baseball_11s.jpg	0	0	0	269.453382799868	269.503360699862	0.0499778999947011
200013	50	292	0	0	gutter	729	292	0	stimuli\gutter\gutter_03s.jpg	2	-1	0	0	gutter_03s.jpg	0	0	0	269.553388299886	269.603363799863	0.0499754999764264
200113	50	293	0	0	ballot_box	61	293	0	stimuli\ballot_box\ballot_box_05s.jpg	4	-1	0	0	ballot_box_05s.jpg	0	0	0	269.653416999849	269.703367699869	0.0499507000204176
200213	50	294	0	0	cooker	399	294	0	stimuli\cooker\cooker_12s.jpg	11	-1	0	0	cooker_12s.jpg	0	0	0	269.753389199963	269.803369099973	0.0499799000099301
200313	50	295	0	0	bowler_hat	178	295	0	stimuli\bowler_hat\bowler_hat_04s.jpg	3	-1	0	0	bowler_hat_04s.jpg	0	0	0	269.853391799843	269.903383000055	0.0499912002123892
200413	50	296	0	0	tamale	1618	296	0	stimuli\tamale\tamale_05s.jpg	4	-1	0	0	tamale_05s.jpg	0	0	0	269.953396399971	270.003374499967	0.049978099996224
200513	50	297	0	0	chain	298	297	0	stimuli\chain\chain_01b.jpg	0	-1	0	0	chain_01b.jpg	0	0	0	270.05341980001	270.103376499843	0.0499566998332739
200613	50	298	0	0	bumper	219	298	0	stimuli\bumper\bumper_06s.jpg	5	-1	0	0	bumper_06s.jpg	0	0	0	270.153399300063	270.203380499966	0.0499811999034137
200713	50	299	0	0	sickle	1441	299	0	stimuli\sickle\sickle_03s.jpg	2	-1	0	0	sickle_03s.jpg	0	0	0	270.253430600045	270.303382699843	0.0499520997982472
200813	50	300	0	0	latte	901	300	0	stimuli\latte\latte_02s.jpg	1	-1	0	0	latte_02s.jpg	0	0	0	270.353402500041	270.403431399958	0.050028899917379
200913	50	301	0	0	camera1	246	301	0	stimuli\camera1\camera1_02s.jpg	1	-1	0	0	camera1_02s.jpg	0	0	0	270.45340540004	270.50338619994	0.0499807999003679
201013	50	302	0	0	duct	527	302	0	stimuli\duct\duct_09s.jpg	8	-1	0	0	duct_09s.jpg	0	0	0	270.553407500032	270.603389499942	0.0499819999095052
201113	50	303	0	0	soda_fountain	1491	303	0	stimuli\soda_fountain\soda_fountain_06s.jpg	5	-1	0	0	soda_fountain_06s.jpg	0	0	0	270.653410600033	270.70339099993	0.0499803998973221
201213	50	304	0	0	tablecloth	1609	304	0	stimuli\tablecloth\tablecloth_09s.jpg	8	-1	0	0	tablecloth_09s.jpg	0	0	0	270.753432499943	270.803402099991	0.0499696000479162
201313	50	305	0	0	crate	433	305	0	stimuli\crate\crate_02s.jpg	1	-1	0	0	crate_02s.jpg	0	0	0	270.853416600032	270.903395599918	0.0499789998866618
201413	50	306	0	0	clarinet	350	306	0	stimuli\clarinet\clarinet_05n.jpg	4	-1	0	0	clarinet_05n.jpg	0	0	0	270.953417700017	271.003413799917	0.0499960999004543
201513	50	307	0	0	ham	739	307	0	stimuli\ham\ham_04s.jpg	3	-1	0	0	ham_04s.jpg	0	0	0	271.053421099903	271.103400700027	0.0499796001240611
201613	50	308	0	0	hook2	794	308	0	stimuli\hook2\hook2_11s.jpg	10	-1	0	0	hook2_11s.jpg	0	0	0	271.153447299963	271.203402499901	0.0499551999382675
208597	50	309	0	0	quilt	1264	0	1	stimuli\quilt\quilt_08s.jpg	7	-1	1	0	quilt_08s.jpg	0	0	0	278.136952699861	278.186928899959	0.0499762000981718
208697	50	310	0	0	bell_pepper	117	1	1	stimuli\bell_pepper\bell_pepper_12s.jpg	11	-1	1	0	bell_pepper_12s.jpg	0	0	0	278.236952299951	278.286935499869	0.0499831999186426
208797	50	311	0	0	buffet	211	2	1	stimuli\buffet\buffet_10s.jpg	9	-1	1	0	buffet_10s.jpg	0	0	0	278.336954799946	278.386940900004	0.04998610005714
208897	50	312	0	0	boulder	172	3	1	stimuli\boulder\boulder_09s.jpg	8	-1	1	0	boulder_09s.jpg	0	0	0	278.43695880007	278.486937999958	0.0499791998881847
208997	50	313	0	0	hairpin	737	4	1	stimuli\hairpin\hairpin_10s.jpg	9	-1	1	0	hairpin_10s.jpg	0	0	0	278.536945499945	278.586939800065	0.0499943001195788
209097	50	314	0	0	insole	831	5	1	stimuli\insole\insole_04s.jpg	3	-1	1	0	insole_04s.jpg	0	0	0	278.636959800031	278.68694299995	0.0499831999186426
209197	50	315	0	0	watch	1786	6	1	stimuli\watch\watch_09s.jpg	8	-1	1	0	watch_09s.jpg	0	0	0	278.736960399896	278.786942800041	0.0499824001453817
209297	50	316	0	0	backgammon	48	7	1	stimuli\backgammon\backgammon_03s.jpg	2	-1	1	0	backgammon_03s.jpg	0	0	0	278.836968000047	278.886948399944	0.0499803998973221
209397	50	317	0	0	bat2	88	8	1	stimuli\bat2\bat2_02s.jpg	1	-1	1	0	bat2_02s.jpg	0	0	0	278.93697099993	278.986950099934	0.0499791000038385
209497	50	318	0	0	hedge	773	9	1	stimuli\hedge\hedge_10s.jpg	9	-1	1	0	hedge_10s.jpg	0	0	0	279.036969899898	279.086949599907	0.0499797000084072
209597	50	319	0	0	marker	975	10	1	stimuli\marker\marker_06s.jpg	5	-1	1	0	marker_06s.jpg	0	0	0	279.136972900014	279.186953499913	0.049980599898845
209697	50	320	0	0	pomegranate	1219	11	1	stimuli\pomegranate\pomegranate_09s.jpg	8	-1	1	0	pomegranate_09s.jpg	0	0	0	279.23697540001	279.286957999924	0.0499825999140739
209797	50	321	0	0	freezer	640	12	1	stimuli\freezer\freezer_07s.jpg	6	-1	1	0	freezer_07s.jpg	0	0	0	279.336977900006	279.386946300045	0.0499684000387788
209897	50	322	0	0	ketchup	867	13	1	stimuli\ketchup\ketchup_06s.jpg	5	-1	1	0	ketchup_06s.jpg	0	0	0	279.437310399953	279.48696530005	0.0496549000963569
209997	50	323	0	0	sundial	1583	14	1	stimuli\sundial\sundial_03s.jpg	2	-1	1	0	sundial_03s.jpg	0	0	0	279.536982499994	279.586967800045	0.0499853000510484
210097	50	324	0	0	omelet	1076	15	1	stimuli\omelet\omelet_05s.jpg	4	-1	1	0	omelet_05s.jpg	0	0	0	279.636975700036	279.686966500012	0.0499907999765128
210197	50	325	0	0	matchbox	984	16	1	stimuli\matchbox\matchbox_06s.jpg	5	-1	1	0	matchbox_06s.jpg	0	0	0	279.736986899981	279.786936199991	0.0499493000097573
210297	50	326	0	0	loincloth	944	17	1	stimuli\loincloth\loincloth_11s.jpg	10	-1	1	0	loincloth_11s.jpg	0	0	0	279.836991999997	279.88697059988	0.049978599883616
210397	50	327	0	0	donkey	504	18	1	stimuli\donkey\donkey_02n.jpg	1	-1	1	0	donkey_02n.jpg	0	0	0	279.936992099974	279.986970999977	0.0499789000023156
210497	50	328	0	0	lingerie	932	19	1	stimuli\lingerie\lingerie_11s.jpg	10	-1	1	0	lingerie_11s.jpg	0	0	0	280.036994999973	280.086974799866	0.0499797998927534
210597	50	329	0	0	ram	1282	20	1	stimuli\ram\ram_11s.jpg	10	-1	1	0	ram_11s.jpg	0	0	0	280.136997899972	280.186977999983	0.049980100011453
210697	50	330	0	0	shell1	1417	21	1	stimuli\shell1\shell1_12s.jpg	11	-1	1	0	shell1_12s.jpg	0	0	0	280.236998700071	280.286982899997	0.0499841999262571
210797	50	331	0	0	pastry	1124	22	1	stimuli\pastry\pastry_08s.jpg	7	-1	1	0	pastry_08s.jpg	0	0	0	280.337001299951	280.386984099867	0.0499827999155968
210897	50	332	0	0	ostrich	1084	23	1	stimuli\ostrich\ostrich_11s.jpg	10	-1	1	0	ostrich_11s.jpg	0	0	0	280.437012099894	280.48698759987	0.0499754999764264
210997	50	333	0	0	camera2	247	24	1	stimuli\camera2\camera2_08s.jpg	7	-1	1	0	camera2_08s.jpg	0	0	0	280.536980799865	280.586994200014	0.0500134001486003
211097	50	334	0	0	tripod	1714	25	1	stimuli\tripod\tripod_01b.jpg	0	-1	1	0	tripod_01b.jpg	0	0	0	280.637016899884	280.686993699986	0.0499768001027405
211197	50	335	0	0	doghouse	497	26	1	stimuli\doghouse\doghouse_04s.jpg	3	-1	1	0	doghouse_04s.jpg	0	0	0	280.737001699861	280.786981799873	0.049980100011453
211297	50	336	0	0	tape_measure	1623	27	1	stimuli\tape_measure\tape_measure_10s.jpg	9	-1	1	0	tape_measure_10s.jpg	0	0	0	280.837002099957	280.886982799973	0.0499807000160217
211397	50	337	0	0	chest1	319	28	1	stimuli\chest1\chest1_07s.jpg	6	-1	1	0	chest1_07s.jpg	0	0	0	280.936999700032	280.986986599863	0.0499868998304009
211497	50	338	0	0	oyster	1092	29	1	stimuli\oyster\oyster_02n.jpg	1	-1	1	0	oyster_02n.jpg	0	0	0	281.037002800032	281.086985399947	0.0499825999140739
211597	50	339	0	0	aluminum_foil	17	30	1	stimuli\aluminum_foil\aluminum_foil_05s.jpg	4	-1	1	0	aluminum_foil_05s.jpg	0	0	0	281.137008599937	281.18698629993	0.0499776999931782
211697	50	340	0	0	map	970	31	1	stimuli\map\map_08s.jpg	7	-1	1	0	map_08s.jpg	0	0	0	281.237010600045	281.286988599924	0.0499779998790473
211797	50	341	0	0	fire_pit	593	32	1	stimuli\fire_pit\fire_pit_12s.jpg	11	-1	1	0	fire_pit_12s.jpg	0	0	0	281.337010500021	281.386991499923	0.0499809999018908
211897	50	342	0	0	flask	612	33	1	stimuli\flask\flask_05s.jpg	4	-1	1	0	flask_05s.jpg	0	0	0	281.437011800008	281.48699590005	0.049984100041911
211997	50	343	0	0	spring_roll	1521	34	1	stimuli\spring_roll\spring_roll_05s.jpg	4	-1	1	0	spring_roll_05s.jpg	0	0	0	281.537014799891	281.587000400061	0.0499856001697481
212097	50	344	0	0	saxophone	1368	35	1	stimuli\saxophone\saxophone_05s.jpg	4	-1	1	0	saxophone_05s.jpg	0	0	0	281.637017400004	281.687000599923	0.0499831999186426
212197	50	345	0	0	pepperoni	1153	36	1	stimuli\pepperoni\pepperoni_11s.jpg	10	-1	1	0	pepperoni_11s.jpg	0	0	0	281.737017799867	281.787005499937	0.0499877000693232
212297	50	346	0	0	hoodie	792	37	1	stimuli\hoodie\hoodie_10s.jpg	9	-1	1	0	hoodie_10s.jpg	0	0	0	281.837023800006	281.887009799946	0.0499859999399632
212397	50	347	0	0	sombrero	1495	38	1	stimuli\sombrero\sombrero_08s.jpg	7	-1	1	0	sombrero_08s.jpg	0	0	0	281.937025899999	281.987007600022	0.0499817000236362
212497	50	348	0	0	straightjacket	1565	39	1	stimuli\straightjacket\straightjacket_09s.jpg	8	-1	1	0	straightjacket_09s.jpg	0	0	0	282.037028399995	282.087009199895	0.0499807999003679
212597	50	349	0	0	tiara	1655	40	1	stimuli\tiara\tiara_08s.jpg	7	-1	1	0	tiara_08s.jpg	0	0	0	282.137027199846	282.187009699875	0.0499825000297278
212697	50	350	0	0	stamp1	1535	41	1	stimuli\stamp1\stamp1_12s.jpg	11	-1	1	0	stamp1_12s.jpg	0	0	0	282.237031799974	282.287005600054	0.049973800079897
212797	50	351	0	0	orchid	1081	42	1	stimuli\orchid\orchid_01b.jpg	0	-1	1	0	orchid_01b.jpg	0	0	0	282.337021699874	282.387009399943	0.0499877000693232
212897	50	352	0	0	turtleneck	1737	43	1	stimuli\turtleneck\turtleneck_10s.jpg	9	-1	1	0	turtleneck_10s.jpg	0	0	0	282.437025799882	282.487021700013	0.049995900131762
212997	50	353	0	0	polaroid	1212	44	1	stimuli\polaroid\polaroid_02s.jpg	1	-1	1	0	polaroid_02s.jpg	0	0	0	282.537026499864	282.58701170003	0.0499852001667023
213097	50	354	0	0	twig	1740	45	1	stimuli\twig\twig_09s.jpg	8	-1	1	0	twig_09s.jpg	0	0	0	282.637030799873	282.687012400012	0.0499816001392901
213197	50	355	0	0	barrette	77	46	1	stimuli\barrette\barrette_02s.jpg	1	-1	1	0	barrette_02s.jpg	0	0	0	282.737031899858	282.787013599882	0.0499817000236362
213297	50	356	0	0	washing_machine	1784	47	1	stimuli\washing_machine\washing_machine_08s.jpg	7	-1	1	0	washing_machine_08s.jpg	0	0	0	282.837036399869	282.887018600013	0.0499822001438588
213397	50	357	0	0	crouton	445	48	1	stimuli\crouton\crouton_06s.jpg	5	-1	1	0	crouton_06s.jpg	0	0	0	282.937036599964	282.987021100009	0.0499845000449568
213497	50	358	0	0	hotplate	806	49	1	stimuli\hotplate\hotplate_06s.jpg	5	-1	1	0	hotplate_06s.jpg	0	0	0	283.037039699964	283.087020799983	0.0499811000190675
213597	50	359	0	0	holster	786	50	1	stimuli\holster\holster_09s.jpg	8	-1	1	0	holster_09s.jpg	0	0	0	283.137041599955	283.187030100031	0.0499885000754148
213697	50	360	0	0	espresso	560	51	1	stimuli\espresso\espresso_02s.jpg	1	-1	1	0	espresso_02s.jpg	0	0	0	283.237045699963	283.287026899867	0.0499811999034137
213797	50	361	0	0	wheelbarrow	1807	52	1	stimuli\wheelbarrow\wheelbarrow_02s.jpg	1	-1	1	0	wheelbarrow_02s.jpg	0	0	0	283.337047700072	283.387028199853	0.0499804997816682
213897	50	362	0	0	scorpion	1384	53	1	stimuli\scorpion\scorpion_10s.jpg	9	-1	1	0	scorpion_10s.jpg	0	0	0	283.437052999856	283.487030299846	0.0499772999901325
213997	50	363	0	0	headdress	763	54	1	stimuli\headdress\headdress_08s.jpg	7	-1	1	0	headdress_08s.jpg	0	0	0	283.537050300045	283.587032899959	0.0499825999140739
214097	50	364	0	0	goose	693	55	1	stimuli\goose\goose_08s.jpg	7	-1	1	0	goose_08s.jpg	0	0	0	283.637058099965	283.68703739997	0.0499793000053614
214197	50	365	0	0	toothpaste	1680	56	1	stimuli\toothpaste\toothpaste_09s.jpg	8	-1	1	0	toothpaste_09s.jpg	0	0	0	283.737056700047	283.787038299954	0.0499815999064595
214297	50	366	0	0	grasshopper	706	57	1	stimuli\grasshopper\grasshopper_01b.jpg	0	-1	1	0	grasshopper_01b.jpg	0	0	0	283.837061299942	283.887041199952	0.0499799000099301
214397	50	367	0	0	trap	1702	58	1	stimuli\trap\trap_12s.jpg	11	-1	1	0	trap_12s.jpg	0	0	0	283.937059599906	283.987042099936	0.0499825000297278
214497	50	368	0	0	maple_syrup	971	59	1	stimuli\maple_syrup\maple_syrup_03s.jpg	2	-1	1	0	maple_syrup_03s.jpg	0	0	0	284.037065299926	284.087045700056	0.0499804001301527
214597	50	369	0	0	cherry	316	60	1	stimuli\cherry\cherry_08s.jpg	7	-1	1	0	cherry_08s.jpg	0	0	0	284.137065999908	284.18704869994	0.0499827000312507
214697	50	370	0	0	stilt	1555	61	1	stimuli\stilt\stilt_05s.jpg	4	-1	1	1	stilt_05s.jpg	0	0	0	284.237069699913	284.28705179994	0.049982100026682
214797	50	371	0	0	blouse	144	62	1	stimuli\blouse\blouse_07s.jpg	6	-1	1	0	blouse_07s.jpg	0	0	0	284.337072100025	284.387054200051	0.049982100026682
214897	50	372	0	0	tostada	1688	63	1	stimuli\tostada\tostada_04s.jpg	3	-1	1	0	tostada_04s.jpg	0	0	0	284.437073800014	284.487055500038	0.0499817000236362
214997	50	373	0	0	thermos	1647	64	1	stimuli\thermos\thermos_01b.jpg	0	-1	1	0	thermos_01b.jpg	0	0	0	284.537099000067	284.587058400037	0.0499593999702483
215097	50	374	0	0	snowball	1480	65	1	stimuli\snowball\snowball_07s.jpg	6	-1	1	0	snowball_07s.jpg	0	0	0	284.637080299901	284.687067299848	0.0499869999475777
215197	50	375	0	0	throne	1652	66	1	stimuli\throne\throne_08s.jpg	7	-1	1	0	throne_08s.jpg	1	0.541962899966165	1	284.737078899983	284.787066000048	0.0499871000647545
215297	50	376	0	0	parachute	1118	67	1	stimuli\parachute\parachute_05s.jpg	4	-1	1	0	parachute_05s.jpg	0	0	0	284.837084299885	284.887063199887	0.0499789000023156
215397	50	377	0	0	remote_control	1302	68	1	stimuli\remote_control\remote_control_11s.jpg	10	-1	1	0	remote_control_11s.jpg	0	0	0	284.937086199876	284.987067699898	0.0499815000221133
215497	50	378	0	0	whipped_cream	1810	69	1	stimuli\whipped_cream\whipped_cream_05s.jpg	4	-1	1	0	whipped_cream_05s.jpg	0	0	0	285.037089299876	285.087069599889	0.0499803000129759
215597	50	379	0	0	jack	835	70	1	stimuli\jack\jack_06s.jpg	5	-1	1	0	jack_06s.jpg	0	0	0	285.137089499971	285.18707149988	0.0499819999095052
215697	50	380	0	0	spider	1513	71	1	stimuli\spider\spider_04s.jpg	3	-1	1	0	spider_04s.jpg	0	0	0	285.237094799988	285.287079399917	0.0499845999293029
215797	50	381	0	0	papaya	1111	72	1	stimuli\papaya\papaya_07s.jpg	6	-1	1	0	papaya_07s.jpg	0	0	0	285.337093099952	285.387076699873	0.0499835999216884
215897	50	382	0	0	axe	45	73	1	stimuli\axe\axe_04n.jpg	3	-1	1	0	axe_04n.jpg	0	0	0	285.437098499853	285.487079199869	0.0499807000160217
215997	50	383	0	0	kiwi	876	74	1	stimuli\kiwi\kiwi_04s.jpg	3	-1	1	0	kiwi_04s.jpg	0	0	0	285.537099699955	285.587080899859	0.0499811999034137
216097	50	384	0	0	crane	431	75	1	stimuli\crane\crane_09s.jpg	8	-1	1	0	crane_09s.jpg	0	0	0	285.637102999957	285.687083899975	0.0499809000175446
216197	50	385	0	0	celery	291	76	1	stimuli\celery\celery_11s.jpg	10	-1	1	0	celery_11s.jpg	0	0	0	285.73710420006	285.787088199984	0.0499839999247342
216297	50	386	0	0	razor	1290	77	1	stimuli\razor\razor_12s.jpg	11	-1	1	0	razor_12s.jpg	0	0	0	285.837109999964	285.887088899966	0.0499789000023156
216397	50	387	0	0	pillow	1176	78	1	stimuli\pillow\pillow_11s.jpg	10	-1	1	0	pillow_11s.jpg	0	0	0	285.937108000042	285.987091399962	0.0499833999201655
216497	50	388	0	0	folder	625	79	1	stimuli\folder\folder_02s.jpg	1	-1	1	0	folder_02s.jpg	0	0	0	286.037114300067	286.087096999865	0.0499826997984201
216597	50	389	0	0	lime	930	80	1	stimuli\lime\lime_12s.jpg	11	-1	1	0	lime_12s.jpg	0	0	0	286.137113200035	286.187097899849	0.0499846998136491
216697	50	390	0	0	rug	1340	81	1	stimuli\rug\rug_03s.jpg	2	-1	1	0	rug_03s.jpg	0	0	0	286.237117500044	286.287099499954	0.0499819999095052
216797	50	391	0	0	globe	679	82	1	stimuli\globe\globe_08s.jpg	7	-1	1	0	globe_08s.jpg	0	0	0	286.337118800031	286.387100399937	0.0499815999064595
216897	50	392	0	0	banana_peel	64	83	1	stimuli\banana_peel\banana_peel_08s.jpg	7	-1	1	0	banana_peel_08s.jpg	0	0	0	286.437123300042	286.487103499938	0.0499801998957992
216997	50	393	0	0	goalpost	683	84	1	stimuli\goalpost\goalpost_12s.jpg	11	-1	1	0	goalpost_12s.jpg	0	0	0	286.537145599956	286.58710819995	0.0499625999946147
217097	50	394	0	0	dolphin	502	85	1	stimuli\dolphin\dolphin_04s.jpg	3	-1	1	0	dolphin_04s.jpg	0	0	0	286.637126799906	286.68710729992	0.0499805000144988
217197	50	395	0	0	chickpea	325	86	1	stimuli\chickpea\chickpea_02s.jpg	1	-1	1	0	chickpea_02s.jpg	0	0	0	286.737127800006	286.787111900048	0.049984100041911
217297	50	396	0	0	skunk	1459	87	1	stimuli\skunk\skunk_11s.jpg	10	-1	1	0	skunk_11s.jpg	0	0	0	286.83713130001	286.887112899916	0.0499815999064595
217397	50	397	0	0	notepad	1065	88	1	stimuli\notepad\notepad_04s.jpg	3	-1	1	0	notepad_04s.jpg	0	0	0	286.937133499887	286.987115399912	0.0499819000251591
217497	50	398	0	0	guitar	723	89	1	stimuli\guitar\guitar_02s.jpg	1	-1	1	0	guitar_02s.jpg	0	0	0	287.037141599925	287.087118499912	0.0499768999870867
217597	50	399	0	0	air_conditioner	4	90	1	stimuli\air_conditioner\air_conditioner_11s.jpg	10	-1	1	0	air_conditioner_11s.jpg	0	0	0	287.13713869988	287.187119399896	0.0499807000160217
217697	50	400	0	0	scalpel	1374	91	1	stimuli\scalpel\scalpel_02s.jpg	1	-1	1	0	scalpel_02s.jpg	0	0	0	287.237142500002	287.28712429991	0.0499817999079823
217797	50	401	0	0	hat	757	92	1	stimuli\hat\hat_07s.jpg	6	-1	1	0	hat_07s.jpg	0	0	0	287.337141599972	287.387125799898	0.0499841999262571
217897	50	402	0	0	doorbell	507	93	1	stimuli\doorbell\doorbell_10s.jpg	9	-1	1	0	doorbell_10s.jpg	0	0	0	287.437146499986	287.487130800029	0.0499843000434339
217997	50	403	0	0	brick	199	94	1	stimuli\brick\brick_09s.jpg	8	-1	1	0	brick_09s.jpg	0	0	0	287.537158899941	287.587141599972	0.0499827000312507
218097	50	404	0	0	walker1	1773	95	1	stimuli\walker1\walker1_02s.jpg	1	-1	1	0	walker1_02s.jpg	0	0	0	287.637162999948	287.687131399987	0.0499684000387788
218197	50	405	0	0	icemaker	821	96	1	stimuli\icemaker\icemaker_08s.jpg	7	-1	1	0	icemaker_08s.jpg	0	0	0	287.737163000042	287.787145100068	0.049982100026682
218297	50	406	0	0	yacht	1844	97	1	stimuli\yacht\yacht_09s.jpg	8	-1	1	0	yacht_09s.jpg	0	0	0	287.83716850006	287.887147600064	0.0499791000038385
218397	50	407	0	0	slot_machine	1470	98	1	stimuli\slot_machine\slot_machine_04s.jpg	3	-1	1	0	slot_machine_04s.jpg	0	0	0	287.937168299919	287.987150300061	0.0499820001423359
218497	50	408	0	0	gold	687	99	1	stimuli\gold\gold_02s.jpg	1	-1	1	0	gold_02s.jpg	0	0	0	288.037171300035	288.087153499946	0.0499821999110281
218597	50	409	0	0	orange_rind	1079	100	1	stimuli\orange_rind\orange_rind_06s.jpg	5	-1	1	0	orange_rind_06s.jpg	0	0	0	288.137172899907	288.187155700056	0.0499828001484275
218697	50	410	0	0	scraper	1387	101	1	stimuli\scraper\scraper_07s.jpg	6	-1	1	0	scraper_07s.jpg	0	0	0	288.237196499947	288.287158200052	0.049961700104177
218797	50	411	0	0	pot	1230	102	1	stimuli\pot\pot_03s.jpg	2	-1	1	0	pot_03s.jpg	0	0	0	288.3371780999	288.387160300044	0.0499822001438588
218897	50	412	0	0	granola	701	103	1	stimuli\granola\granola_11s.jpg	10	-1	1	0	granola_11s.jpg	0	0	0	288.437180199893	288.487163800048	0.0499836001545191
218997	50	413	0	0	lightbulb	927	104	1	stimuli\lightbulb\lightbulb_08s.jpg	7	-1	1	0	lightbulb_08s.jpg	0	0	0	288.537181399995	288.587167799938	0.049986399943009
219097	50	414	0	0	ferret	578	105	1	stimuli\ferret\ferret_08s.jpg	7	-1	1	0	ferret_08s.jpg	0	0	0	288.637186199892	288.68716709991	0.0499809000175446
219197	50	415	0	0	lego	913	106	1	stimuli\lego\lego_09s.jpg	8	-1	1	0	lego_09s.jpg	0	0	0	288.737193299923	288.787171500036	0.0499782001134008
219297	50	416	0	0	road_sign	1315	107	1	stimuli\road_sign\road_sign_08s.jpg	7	-1	1	0	road_sign_08s.jpg	0	0	0	288.837194700027	288.887172600022	0.0499778999947011
219397	50	417	0	0	whistle	1812	108	1	stimuli\whistle\whistle_05s.jpg	4	-1	1	0	whistle_05s.jpg	0	0	0	288.93719249987	288.987175100017	0.0499826001469046
219497	50	418	0	0	container	398	109	1	stimuli\container\container_08s.jpg	7	-1	1	0	container_08s.jpg	0	0	0	289.037198300008	289.087180800037	0.0499825000297278
219597	50	419	0	0	coal	367	110	1	stimuli\coal\coal_01s.jpg	0	-1	1	0	coal_01s.jpg	0	0	0	289.137208699947	289.187183599919	0.0499748999718577
219697	50	420	0	0	periscope	1155	111	1	stimuli\periscope\periscope_11s.jpg	10	-1	1	0	periscope_11s.jpg	0	0	0	289.237205500016	289.287182400003	0.0499768999870867
219797	50	421	0	0	knee	877	112	1	stimuli\knee\knee_12s.jpg	11	-1	1	0	knee_12s.jpg	0	0	0	289.337204199983	289.387185599888	0.0499813999049366
219897	50	422	0	0	whiteboard	1813	113	1	stimuli\whiteboard\whiteboard_06s.jpg	5	-1	1	0	whiteboard_06s.jpg	0	0	0	289.437194800004	289.487190099899	0.0499952998943627
219997	50	423	0	0	hot-water_bottle	802	114	1	stimuli\hot-water_bottle\hot-water_bottle_07s.jpg	6	-1	1	0	hot-water_bottle_07s.jpg	0	0	0	289.537208899856	289.587189999875	0.0499811000190675
220097	50	424	0	0	wax_paper	1796	115	1	stimuli\wax_paper\wax_paper_03s.jpg	2	-1	1	0	wax_paper_03s.jpg	0	0	0	289.637211399851	289.687191899866	0.0499805000144988
220197	50	425	0	0	wasp	1785	116	1	stimuli\wasp\wasp_06s.jpg	5	-1	1	0	wasp_06s.jpg	0	0	0	289.737210399937	289.787197799888	0.0499873999506235
220297	50	426	0	0	wine_cooler	1825	117	1	stimuli\wine_cooler\wine_cooler_11s.jpg	10	-1	1	0	wine_cooler_11s.jpg	0	0	0	289.837214600062	289.887196999975	0.049982399912551
220397	50	427	0	0	face_mask	570	118	1	stimuli\face_mask\face_mask_06s.jpg	5	-1	1	0	face_mask_06s.jpg	0	0	0	289.937240700005	289.987200399861	0.0499596998561174
220497	50	428	0	0	headphones	766	119	1	stimuli\headphones\headphones_08s.jpg	7	-1	1	0	headphones_08s.jpg	0	0	0	290.037219299935	290.087203899864	0.0499845999293029
220597	50	429	0	0	toilet_paper	1671	120	1	stimuli\toilet_paper\toilet_paper_07s.jpg	6	-1	1	0	toilet_paper_07s.jpg	0	0	0	290.13722090004	290.187203800073	0.0499829000327736
220697	50	430	0	0	kimono	873	121	1	stimuli\kimono\kimono_10s.jpg	9	-1	1	0	kimono_10s.jpg	0	0	0	290.237234199885	290.287205300061	0.0499711001757532
220797	50	431	0	0	root	1331	122	1	stimuli\root\root_05s.jpg	4	-1	1	0	root_05s.jpg	0	0	0	290.337224300019	290.387207200052	0.0499829000327736
220897	50	432	0	0	beehive	112	123	1	stimuli\beehive\beehive_06s.jpg	5	-1	1	0	beehive_06s.jpg	0	0	0	290.437230499927	290.487209999934	0.0499795000068843
220997	50	433	0	0	jam	839	124	1	stimuli\jam\jam_01b.jpg	0	-1	1	0	jam_01b.jpg	0	0	0	290.537231599912	290.587215699954	0.049984100041911
221097	50	434	0	0	grape	702	125	1	stimuli\grape\grape_04s.jpg	3	-1	1	0	grape_04s.jpg	0	0	0	290.63723569992	290.687217100058	0.0499814001377672
221197	50	435	0	0	wagon	1772	126	1	stimuli\wagon\wagon_01b.jpg	0	-1	1	0	wagon_01b.jpg	0	0	0	290.737233799882	290.787217600038	0.049983800156042
221297	50	436	0	0	dollhouse	500	127	1	stimuli\dollhouse\dollhouse_06s.jpg	5	-1	1	0	dollhouse_06s.jpg	0	0	0	290.837240099907	290.887219599914	0.0499795000068843
221397	50	437	0	0	brooch	202	128	1	stimuli\brooch\brooch_06s.jpg	5	-1	1	0	brooch_06s.jpg	0	0	0	290.937241500011	290.987224499928	0.0499829999171197
221497	50	438	0	0	bat1	87	129	1	stimuli\bat1\bat1_10s.jpg	9	-1	1	0	bat1_10s.jpg	0	0	0	291.037244299892	291.087226399919	0.049982100026682
221597	50	439	0	0	pan	1103	130	1	stimuli\pan\pan_11s.jpg	10	-1	1	0	pan_11s.jpg	0	0	0	291.137243699981	291.187234099954	0.049990399973467
221697	50	440	0	0	grill	714	131	1	stimuli\grill\grill_10s.jpg	9	-1	1	0	grill_10s.jpg	0	0	0	291.237249299884	291.287231599912	0.0499823000282049
221797	50	441	0	0	quill	1263	132	1	stimuli\quill\quill_06s.jpg	5	-1	1	0	quill_06s.jpg	0	0	0	291.337249799864	291.387234299909	0.0499845000449568
221897	50	442	0	0	red_carpet	1298	133	1	stimuli\red_carpet\red_carpet_08s.jpg	7	-1	1	0	red_carpet_08s.jpg	0	0	0	291.437254699878	291.48723739991	0.0499827000312507
221997	50	443	0	0	sauce	1362	134	1	stimuli\sauce\sauce_04s.jpg	3	-1	1	0	sauce_04s.jpg	0	0	0	291.537252600072	291.587237400003	0.0499847999308258
222097	50	444	0	0	lip_balm	934	135	1	stimuli\lip_balm\lip_balm_11s.jpg	10	-1	1	0	lip_balm_11s.jpg	0	0	0	291.637259299867	291.687238299986	0.0499790001194924
222197	50	445	0	0	berry	121	136	1	stimuli\berry\berry_10s.jpg	9	-1	1	0	berry_10s.jpg	0	0	0	291.737258600071	291.787244899897	0.0499862998258322
222297	50	446	0	0	grinder	716	137	1	stimuli\grinder\grinder_08s.jpg	7	-1	1	0	grinder_08s.jpg	0	0	0	291.837265399983	291.88725010003	0.0499847000464797
222397	50	447	0	0	riser	1314	138	1	stimuli\riser\riser_05s.jpg	4	-1	1	0	riser_05s.jpg	0	0	0	291.93726499984	291.987247599987	0.0499826001469046
222497	50	448	0	0	panties	1107	139	1	stimuli\panties\panties_02s.jpg	1	-1	1	0	panties_02s.jpg	0	0	0	292.037267900072	292.087252199883	0.0499842998106033
222597	50	449	0	0	thermometer	1646	140	1	stimuli\thermometer\thermometer_08s.jpg	7	-1	1	0	thermometer_08s.jpg	0	0	0	292.137267299928	292.187252699863	0.0499853999353945
222697	50	450	0	0	closet	360	141	1	stimuli\closet\closet_06s.jpg	5	-1	1	0	closet_06s.jpg	0	0	0	292.237275199965	292.287255499978	0.0499803000129759
222797	50	451	0	0	eraser	559	142	1	stimuli\eraser\eraser_11s.jpg	10	-1	1	0	eraser_11s.jpg	0	0	0	292.337272800039	292.387256699847	0.0499838998075575
222897	50	452	0	0	iron	832	143	1	stimuli\iron\iron_12s.jpg	11	-1	1	0	iron_12s.jpg	0	0	0	292.43728029984	292.48725840007	0.0499781002290547
222997	50	453	0	0	mole	1014	144	1	stimuli\mole\mole_02s.jpg	1	-1	1	0	mole_02s.jpg	0	0	0	292.537278899923	292.587287300033	0.0500084001105279
223097	50	454	0	0	earplug	539	145	1	stimuli\earplug\earplug_11s.jpg	10	-1	1	0	earplug_11s.jpg	0	0	0	292.63728470006	292.687265699962	0.0499809999018908
223197	50	455	0	0	cordon_bleu	408	146	1	stimuli\cordon_bleu\cordon_bleu_08s.jpg	7	-1	1	0	cordon_bleu_08s.jpg	0	0	0	292.737282699905	292.787266500061	0.049983800156042
223297	50	456	0	0	stump	1576	147	1	stimuli\stump\stump_02s.jpg	1	-1	1	0	stump_02s.jpg	0	0	0	292.837288500043	292.887269200059	0.0499807000160217
223397	50	457	0	0	footrest	633	148	1	stimuli\footrest\footrest_01b.jpg	0	-1	1	0	footrest_01b.jpg	0	0	0	292.937289499911	292.98727370007	0.0499842001590878
223497	50	458	0	0	tape	1622	149	1	stimuli\tape\tape_02s.jpg	1	-1	1	0	tape_02s.jpg	0	0	0	293.037293300033	293.087275499944	0.0499821999110281
223597	50	459	0	0	racehorse	1267	150	1	stimuli\racehorse\racehorse_07s.jpg	6	-1	1	1	racehorse_07s.jpg	0	0	0	293.137291499879	293.187274799915	0.0499833000358194
223697	50	460	0	0	stirrup	1558	151	1	stimuli\stirrup\stirrup_04s.jpg	3	-1	1	0	stirrup_04s.jpg	0	0	0	293.237296599895	293.287279299926	0.0499827000312507
223797	50	461	0	0	safety_pin	1344	152	1	stimuli\safety_pin\safety_pin_02s.jpg	1	-1	1	0	safety_pin_02s.jpg	0	0	0	293.337297399994	293.387279999908	0.0499825999140739
223897	50	462	0	0	grain	698	153	1	stimuli\grain\grain_12s.jpg	11	-1	1	0	grain_12s.jpg	1	0.341968600172549	1	293.437302100006	293.487283600029	0.0499815000221133
223997	50	463	0	0	snowman	1482	154	1	stimuli\snowman\snowman_01b.jpg	0	-1	1	0	snowman_01b.jpg	0	0	0	293.537303599995	293.587289999938	0.049986399943009
224097	50	464	0	0	harness	754	155	1	stimuli\harness\harness_05s.jpg	4	-1	1	0	harness_05s.jpg	0	0	0	293.637309799902	293.687286699889	0.0499768999870867
224197	50	465	0	0	hanger	751	156	1	stimuli\hanger\hanger_11s.jpg	10	-1	1	0	hanger_11s.jpg	0	0	0	293.737305999966	293.787291500019	0.0499855000525713
224297	50	466	0	0	beetle	115	157	1	stimuli\beetle\beetle_02n.jpg	1	-1	1	0	beetle_02n.jpg	0	0	0	293.837315399898	293.88729289989	0.0499774999916553
224397	50	467	0	0	screen1	1388	158	1	stimuli\screen1\screen1_06s.jpg	5	-1	1	0	screen1_06s.jpg	0	0	0	293.937314799987	293.987294899998	0.049980100011453
224497	50	468	0	0	blowgun	147	159	1	stimuli\blowgun\blowgun_12s.jpg	11	-1	1	0	blowgun_12s.jpg	0	0	0	294.037315899972	294.087298699887	0.0499827999155968
224597	50	469	0	0	antenna	27	160	1	stimuli\antenna\antenna_06s.jpg	5	-1	1	0	antenna_06s.jpg	0	0	0	294.137317599962	294.187299599871	0.0499819999095052
224697	50	470	0	0	laptop	897	161	1	stimuli\laptop\laptop_02s.jpg	1	-1	1	0	laptop_02s.jpg	0	0	0	294.237321299966	294.287310099928	0.0499887999612838
224797	50	471	0	0	windowsill	1819	162	1	stimuli\windowsill\windowsill_11s.jpg	10	-1	1	0	windowsill_11s.jpg	0	0	0	294.337321199942	294.387303699972	0.0499825000297278
224897	50	472	0	0	platypus	1198	163	1	stimuli\platypus\platypus_09s.jpg	8	-1	1	0	platypus_09s.jpg	0	0	0	294.437326599844	294.487306499854	0.0499799000099301
224997	50	473	0	0	fireworks	598	164	1	stimuli\fireworks\fireworks_03s.jpg	2	-1	1	0	fireworks_03s.jpg	0	0	0	294.537333899876	294.587310599862	0.0499766999855638
225097	50	474	0	0	hubcap	809	165	1	stimuli\hubcap\hubcap_06s.jpg	5	-1	1	0	hubcap_06s.jpg	0	0	0	294.637331600068	294.687313699862	0.0499820997938514
225197	50	475	0	0	cake	237	166	1	stimuli\cake\cake_10s.jpg	9	-1	1	0	cake_10s.jpg	0	0	0	294.737330399919	294.787314399844	0.0499839999247342
225297	50	476	0	0	sand	1351	167	1	stimuli\sand\sand_05s.jpg	4	-1	1	0	sand_05s.jpg	0	0	0	294.837334699929	294.887319199974	0.0499845000449568
225397	50	477	0	0	cannonball	261	168	1	stimuli\cannonball\cannonball_11s.jpg	10	-1	1	0	cannonball_11s.jpg	0	0	0	294.937339399941	294.987318000058	0.0499786001164466
225497	50	478	0	0	tractor	1695	169	1	stimuli\tractor\tractor_09n.jpg	8	-1	1	0	tractor_09n.jpg	0	0	0	295.037342400057	295.087321199942	0.0499787998851389
225597	50	479	0	0	jukebox	857	170	1	stimuli\jukebox\jukebox_12n.jpg	11	-1	1	0	jukebox_12n.jpg	0	0	0	295.137342599919	295.187324499944	0.0499819000251591
225697	50	480	0	0	chive	337	171	1	stimuli\chive\chive_04s.jpg	3	-1	1	0	chive_04s.jpg	0	0	0	295.237347899936	295.28734749998	0.0499996000435203
225797	50	481	0	0	teepee	1637	172	1	stimuli\teepee\teepee_06s.jpg	5	-1	1	0	teepee_06s.jpg	0	0	0	295.337346799904	295.38732920005	0.0499824001453817
225897	50	482	0	0	skin	1456	173	1	stimuli\skin\skin_12s.jpg	11	-1	1	0	skin_12s.jpg	0	0	0	295.437364300014	295.487332999939	0.0499686999246478
225997	50	483	0	0	cardboard	272	174	1	stimuli\cardboard\cardboard_05s.jpg	4	-1	1	0	cardboard_05s.jpg	0	0	0	295.537350900006	295.587333200034	0.0499823000282049
226097	50	484	0	0	dalmatian	471	175	1	stimuli\dalmatian\dalmatian_10s.jpg	9	-1	1	0	dalmatian_10s.jpg	0	0	0	295.637356400024	295.687336799921	0.0499803998973221
226197	50	485	0	0	ferry	580	176	1	stimuli\ferry\ferry_11s.jpg	10	-1	1	0	ferry_11s.jpg	0	0	0	295.737358199898	295.787352399901	0.0499942000024021
226297	50	486	0	0	aquarium	34	177	1	stimuli\aquarium\aquarium_10s.jpg	9	-1	1	0	aquarium_10s.jpg	0	0	0	295.837365899934	295.887342100032	0.0499762000981718
226397	50	487	0	0	battery	97	178	1	stimuli\battery\battery_12s.jpg	11	-1	1	0	battery_12s.jpg	0	0	0	295.937360899989	295.987343499903	0.0499825999140739
226497	50	488	0	0	tarantula	1626	179	1	stimuli\tarantula\tarantula_10s.jpg	9	-1	1	1	tarantula_10s.jpg	0	0	0	296.037365199998	296.087344700005	0.0499795000068843
226597	50	489	0	0	wallpaper	1777	180	1	stimuli\wallpaper\wallpaper_04s.jpg	3	-1	1	0	wallpaper_04s.jpg	0	0	0	296.137365599861	296.187349099899	0.0499835000373423
226697	50	490	0	0	key	869	181	1	stimuli\key\key_08s.jpg	7	-1	1	0	key_08s.jpg	0	0	0	296.237368799979	296.287350599887	0.0499817999079823
226797	50	491	0	0	nutcracker	1067	182	1	stimuli\nutcracker\nutcracker_01b.jpg	0	-1	1	0	nutcracker_01b.jpg	0	0	0	296.337371199857	296.387357299915	0.04998610005714
226897	50	492	0	0	lid	923	183	1	stimuli\lid\lid_08s.jpg	7	-1	1	0	lid_08s.jpg	0	0	0	296.437364799902	296.487357300008	0.0499925001058728
226997	50	493	0	0	pajamas	1099	184	1	stimuli\pajamas\pajamas_02s.jpg	1	-1	1	0	pajamas_02s.jpg	0	0	0	296.537395299878	296.587358199991	0.0499629001133144
227097	50	494	0	0	scaffold	1369	185	1	stimuli\scaffold\scaffold_04s.jpg	3	-1	1	0	scaffold_04s.jpg	0	0	0	296.637380599976	296.687360299984	0.0499797000084072
227197	50	495	0	0	bagpipe	56	186	1	stimuli\bagpipe\bagpipe_02s.jpg	1	-1	1	0	bagpipe_02s.jpg	0	0	0	296.737377899932	296.787363299867	0.0499853999353945
227297	50	496	0	0	cockatoo	372	187	1	stimuli\cockatoo\cockatoo_04s.jpg	3	-1	1	0	cockatoo_04s.jpg	0	0	0	296.837384999963	296.887368299998	0.0499833000358194
227397	50	497	0	0	stir_fry	1557	188	1	stimuli\stir_fry\stir_fry_11s.jpg	10	-1	1	0	stir_fry_11s.jpg	0	0	0	296.937383400043	296.987366899848	0.0499834998045117
227497	50	498	0	0	fishhook	602	189	1	stimuli\fishhook\fishhook_05s.jpg	4	-1	1	0	fishhook_05s.jpg	0	0	0	297.037389399949	297.087369299959	0.0499799000099301
227597	50	499	0	0	dumpster	533	190	1	stimuli\dumpster\dumpster_08s.jpg	7	-1	1	0	dumpster_08s.jpg	0	0	0	297.137388699921	297.18737239996	0.0499837000388652
227697	50	500	0	0	toolbox	1677	191	1	stimuli\toolbox\toolbox_03s.jpg	2	-1	1	0	toolbox_03s.jpg	0	0	0	297.237394900061	297.287377099972	0.0499821999110281
227797	50	501	0	0	hamster	743	192	1	stimuli\hamster\hamster_07s.jpg	6	-1	1	0	hamster_07s.jpg	0	0	0	297.33739729994	297.387379699852	0.049982399912551
227897	50	502	0	0	ruby	1338	193	1	stimuli\ruby\ruby_09s.jpg	8	-1	1	0	ruby_09s.jpg	0	0	0	297.437399100047	297.487377400044	0.0499782999977469
227997	50	503	0	0	dagger	469	194	1	stimuli\dagger\dagger_12s.jpg	11	-1	1	0	dagger_12s.jpg	0	0	0	297.537399600027	297.587380799931	0.0499811999034137
228097	50	504	0	0	toaster_oven	1667	195	1	stimuli\toaster_oven\toaster_oven_01b.jpg	0	-1	1	0	toaster_oven_01b.jpg	0	0	0	297.637404599926	297.687383800047	0.0499792001210153
228197	50	505	0	0	luggage	948	196	1	stimuli\luggage\luggage_08s.jpg	7	-1	1	0	luggage_08s.jpg	0	0	0	297.7374042999	297.78738990007	0.0499856001697481
228297	50	506	0	0	radiator	1272	197	1	stimuli\radiator\radiator_11s.jpg	10	-1	1	0	radiator_11s.jpg	0	0	0	297.837409399915	297.887392200064	0.0499828001484275
228397	50	507	0	0	moth	1023	198	1	stimuli\moth\moth_04n.jpg	3	-1	1	0	moth_04n.jpg	0	0	0	297.937413000036	297.987390599912	0.0499775998760015
228497	50	508	0	0	hookah	795	199	1	stimuli\hookah\hookah_12s.jpg	11	-1	1	0	hookah_12s.jpg	0	0	0	298.037414700026	298.087392299902	0.0499775998760015
228597	50	509	0	0	wheelchair	1808	200	1	stimuli\wheelchair\wheelchair_04n.jpg	3	-1	1	0	wheelchair_04n.jpg	0	0	0	298.137412999989	298.18739639991	0.0499833999201655
228697	50	510	0	0	raft	1275	201	1	stimuli\raft\raft_02s.jpg	1	-1	1	0	raft_02s.jpg	0	0	0	298.23743540002	298.287399099907	0.0499636998865753
228797	50	511	0	0	loveseat	947	202	1	stimuli\loveseat\loveseat_11s.jpg	10	-1	1	0	loveseat_11s.jpg	0	0	0	298.337418099865	298.387404500041	0.0499864001758397
228897	50	512	0	0	fast_food	572	203	1	stimuli\fast_food\fast_food_11s.jpg	10	-1	1	0	fast_food_11s.jpg	0	0	0	298.437421899987	298.487407600041	0.0499857000540942
228997	50	513	0	0	shorts	1430	204	1	stimuli\shorts\shorts_05s.jpg	4	-1	1	0	shorts_05s.jpg	0	0	0	298.537429400021	298.587409799919	0.0499803998973221
229097	50	514	0	0	umbrella	1743	205	1	stimuli\umbrella\umbrella_07s.jpg	6	-1	1	0	umbrella_07s.jpg	0	0	0	298.6374297	298.687409200007	0.0499795000068843
229197	50	515	0	0	plaster_cast	1195	206	1	stimuli\plaster_cast\plaster_cast_06s.jpg	5	-1	1	0	plaster_cast_06s.jpg	0	0	0	298.737427499844	298.787410099991	0.0499826001469046
229297	50	516	0	0	guacamole	719	207	1	stimuli\guacamole\guacamole_07s.jpg	6	-1	1	0	guacamole_07s.jpg	0	0	0	298.837430899963	298.887414699886	0.0499837999232113
229397	50	517	0	0	dip	487	208	1	stimuli\dip\dip_02s.jpg	1	-1	1	0	dip_02s.jpg	0	0	0	298.937433299841	298.98741439986	0.0499811000190675
229497	50	518	0	0	coat_rack	370	209	1	stimuli\coat_rack\coat_rack_03s.jpg	2	-1	1	0	coat_rack_03s.jpg	0	0	0	299.037436099956	299.087417899864	0.0499817999079823
229597	50	519	0	0	nail_polish	1049	210	1	stimuli\nail_polish\nail_polish_12s.jpg	11	-1	1	0	nail_polish_12s.jpg	0	0	0	299.137435900047	299.187419899972	0.0499839999247342
229697	50	520	0	0	margarita	973	211	1	stimuli\margarita\margarita_12s.jpg	11	-1	1	0	margarita_12s.jpg	0	0	0	299.237439899938	299.287424699869	0.0499847999308258
229797	50	521	0	0	oil	1072	212	1	stimuli\oil\oil_03s.jpg	2	-1	1	0	oil_03s.jpg	0	0	0	299.337442599935	299.387432900025	0.0499903000891209
229897	50	522	0	0	scale	1371	213	1	stimuli\scale\scale_02s.jpg	1	-1	1	0	scale_02s.jpg	0	0	0	299.437448299956	299.487430499867	0.0499821999110281
229997	50	523	0	0	faucet	573	214	1	stimuli\faucet\faucet_08s.jpg	7	-1	1	0	faucet_08s.jpg	0	0	0	299.537454199977	299.587429499952	0.0499752999749035
230097	50	524	0	0	pony	1220	215	1	stimuli\pony\pony_08s.jpg	7	-1	1	0	pony_08s.jpg	0	0	0	299.63745579985	299.687433199957	0.0499774001073092
230197	50	525	0	0	peg	1139	216	1	stimuli\peg\peg_08s.jpg	7	-1	1	0	peg_08s.jpg	0	0	0	299.737462199992	299.787434000056	0.0499718000646681
230297	50	526	0	0	crystal2	454	217	1	stimuli\crystal2\crystal2_09s.jpg	8	-1	1	0	crystal2_09s.jpg	0	0	0	299.837457099929	299.887436999939	0.0499799000099301
230397	50	527	0	0	branch	192	218	1	stimuli\branch\branch_05s.jpg	4	-1	1	0	branch_05s.jpg	0	0	0	299.937456500018	299.987441800069	0.0499853000510484
230497	50	528	0	0	cauliflower	288	219	1	stimuli\cauliflower\cauliflower_08s.jpg	7	-1	1	0	cauliflower_08s.jpg	0	0	0	300.037464000052	300.087443999946	0.0499799998942763
230597	50	529	0	0	peanut	1131	220	1	stimuli\peanut\peanut_12s.jpg	11	-1	1	0	peanut_12s.jpg	0	0	0	300.137458999874	300.18744540005	0.0499864001758397
230697	50	530	0	0	hatbox	758	221	1	stimuli\hatbox\hatbox_07s.jpg	6	-1	1	0	hatbox_07s.jpg	0	0	0	300.237468200037	300.28744799993	0.0499797998927534
230797	50	531	0	0	snake	1477	222	1	stimuli\snake\snake_07s.jpg	6	-1	1	0	snake_07s.jpg	0	0	0	300.33746509999	300.387448299909	0.0499831999186426
230897	50	532	0	0	breadstick	196	223	1	stimuli\breadstick\breadstick_10s.jpg	9	-1	1	0	breadstick_10s.jpg	0	0	0	300.437469499884	300.487451999914	0.0499825000297278
230997	50	533	0	0	thumb	1653	224	1	stimuli\thumb\thumb_07s.jpg	6	-1	1	0	thumb_07s.jpg	0	0	0	300.537470799871	300.587463199859	0.049992399988696
231097	50	534	0	0	bulletin_board	217	225	1	stimuli\bulletin_board\bulletin_board_06s.jpg	5	-1	1	0	bulletin_board_06s.jpg	0	0	0	300.637476699892	300.68745670002	0.0499800001271069
231197	50	535	0	0	hummus	812	226	1	stimuli\hummus\hummus_06s.jpg	5	-1	1	0	hummus_06s.jpg	0	0	0	300.737476699986	300.787458200008	0.0499815000221133
231297	50	536	0	0	odometer	1071	227	1	stimuli\odometer\odometer_01b.jpg	0	-1	1	0	odometer_01b.jpg	0	0	0	300.837479999987	300.887462199898	0.0499821999110281
231397	50	537	0	0	hovercraft	808	228	1	stimuli\hovercraft\hovercraft_02s.jpg	1	-1	1	0	hovercraft_02s.jpg	0	0	0	300.937481699977	300.987464000005	0.0499823000282049
231497	50	538	0	0	skewer	1451	229	1	stimuli\skewer\skewer_01b.jpg	0	-1	1	0	skewer_01b.jpg	0	0	0	301.03748519998	301.087469900027	0.0499847000464797
231597	50	539	0	0	fire	590	230	1	stimuli\fire\fire_12s.jpg	11	-1	1	0	fire_12s.jpg	0	0	0	301.137484699953	301.187469199998	0.0499845000449568
231697	50	540	0	0	candy	255	231	1	stimuli\candy\candy_02s.jpg	1	-1	1	0	candy_02s.jpg	0	0	0	301.237491399981	301.28747199988	0.049980599898845
231797	50	541	0	0	french_horn	642	232	1	stimuli\french_horn\french_horn_11s.jpg	10	-1	1	0	french_horn_11s.jpg	0	0	0	301.337490699952	301.387478400022	0.0499877000693232
231897	50	542	0	0	videogame	1762	233	1	stimuli\videogame\videogame_11s.jpg	10	-1	1	0	videogame_11s.jpg	0	0	0	301.437493100064	301.487476499984	0.0499833999201655
231997	50	543	0	0	grass	705	234	1	stimuli\grass\grass_11s.jpg	10	-1	1	0	grass_11s.jpg	0	0	0	301.537497099955	301.587482200004	0.0499851000495255
232097	50	544	0	0	walnut	1778	235	1	stimuli\walnut\walnut_07s.jpg	6	-1	1	0	walnut_07s.jpg	0	0	0	301.637501199963	301.687480299966	0.0499791000038385
232197	50	545	0	0	chip	333	236	1	stimuli\chip\chip_04s.jpg	3	-1	1	0	chip_04s.jpg	0	0	0	301.737499299925	301.787491000025	0.0499917000997812
232297	50	546	0	0	ribbon	1308	237	1	stimuli\ribbon\ribbon_01b.jpg	0	-1	1	0	ribbon_01b.jpg	0	0	0	301.837504199939	301.887484899955	0.0499807000160217
232397	50	547	0	0	trapdoor	1703	238	1	stimuli\trapdoor\trapdoor_10s.jpg	9	-1	1	0	trapdoor_10s.jpg	0	0	0	301.937509699957	301.987486999948	0.0499772999901325
232497	50	548	0	0	banner	70	239	1	stimuli\banner\banner_11s.jpg	10	-1	1	0	banner_11s.jpg	0	0	0	302.037509700051	302.087498700013	0.0499889999628067
232597	50	549	0	0	doormat	511	240	1	stimuli\doormat\doormat_07s.jpg	6	-1	1	0	doormat_07s.jpg	0	0	0	302.137513000052	302.187494699843	0.0499816997908056
232697	50	550	0	0	backpack	49	241	1	stimuli\backpack\backpack_07s.jpg	6	-1	1	0	backpack_07s.jpg	0	0	0	302.237514100038	302.287496400066	0.0499823000282049
232797	50	551	0	0	bow2	175	242	1	stimuli\bow2\bow2_04s.jpg	3	-1	1	0	bow2_04s.jpg	0	0	0	302.337513000006	302.387496999931	0.0499839999247342
232897	50	552	0	0	shoulder	1431	243	1	stimuli\shoulder\shoulder_12s.jpg	11	-1	1	0	shoulder_12s.jpg	0	0	0	302.437521199929	302.487499499926	0.0499782999977469
232997	50	553	0	0	treasure	1707	244	1	stimuli\treasure\treasure_02s.jpg	1	-1	1	0	treasure_02s.jpg	0	0	0	302.537519800011	302.587502399925	0.0499825999140739
233097	50	554	0	0	generator	671	245	1	stimuli\generator\generator_09s.jpg	8	-1	1	0	generator_09s.jpg	0	0	0	302.637523199897	302.687508400064	0.0499852001667023
233198	50	555	0	0	pea	1128	246	1	stimuli\pea\pea_07s.jpg	6	-1	1	0	pea_07s.jpg	0	0	0	302.737542599905	302.787506900029	0.0499643001239747
233298	50	556	0	0	drain	515	247	1	stimuli\drain\drain_08s.jpg	7	-1	1	0	drain_08s.jpg	0	0	0	302.837529500015	302.887514400063	0.0499849000480026
233398	50	557	0	0	cigarette_butt	345	248	1	stimuli\cigarette_butt\cigarette_butt_02s.jpg	1	-1	1	0	cigarette_butt_02s.jpg	0	0	0	302.937563200016	302.987511799904	0.0499485998880118
233498	50	558	0	0	alligator	12	249	1	stimuli\alligator\alligator_08s.jpg	7	-1	1	0	alligator_08s.jpg	0	0	0	303.037534599891	303.087513400009	0.0499788001179695
233598	50	559	0	0	sushi	1588	250	1	stimuli\sushi\sushi_06s.jpg	5	-1	1	0	sushi_06s.jpg	0	0	0	303.137550399872	303.187523799948	0.0499734000768512
233698	50	560	0	0	gauze	664	251	1	stimuli\gauze\gauze_02s.jpg	1	-1	1	0	gauze_02s.jpg	0	0	0	303.237537499983	303.287528899964	0.0499913999810815
233798	50	561	0	0	puffin	1248	252	1	stimuli\puffin\puffin_07s.jpg	6	-1	1	0	puffin_07s.jpg	0	0	0	303.337535700062	303.387521700002	0.0499859999399632
233898	50	562	0	0	handlebar	749	253	1	stimuli\handlebar\handlebar_04s.jpg	3	-1	1	0	handlebar_04s.jpg	0	0	0	303.437533099903	303.487525600009	0.0499925001058728
233998	50	563	0	0	paper_plate	1114	254	1	stimuli\paper_plate\paper_plate_08s.jpg	7	-1	1	0	paper_plate_08s.jpg	0	0	0	303.5375510999	303.587516299915	0.0499652000144124
234098	50	564	0	0	ship	1421	255	1	stimuli\ship\ship_10s.jpg	9	-1	1	0	ship_10s.jpg	0	0	0	303.637537099887	303.687518300023	0.0499812001362443
234198	50	565	0	0	saddle	1343	256	1	stimuli\saddle\saddle_10s.jpg	9	-1	1	0	saddle_10s.jpg	0	0	0	303.73753799987	303.787518800003	0.0499808001331985
234298	50	566	0	0	memory_stick	995	257	1	stimuli\memory_stick\memory_stick_10s.jpg	9	-1	1	0	memory_stick_10s.jpg	0	0	0	303.837540299864	303.887524100021	0.049983800156042
234398	50	567	0	0	ladle	887	258	1	stimuli\ladle\ladle_12s.jpg	11	-1	1	0	ladle_12s.jpg	0	0	0	303.937544699991	303.987526299898	0.0499815999064595
234498	50	568	0	0	patch	1125	259	1	stimuli\patch\patch_04s.jpg	3	-1	1	0	patch_04s.jpg	0	0	0	304.037550400011	304.087526399875	0.0499759998638183
234598	50	569	0	0	ball	59	260	1	stimuli\ball\ball_01b.jpg	0	-1	1	0	ball_01b.jpg	0	0	0	304.137547699967	304.187529399991	0.0499817000236362
234698	50	570	0	0	videocassette	1761	261	1	stimuli\videocassette\videocassette_03s.jpg	2	-1	1	0	videocassette_03s.jpg	0	0	0	304.237551299855	304.287536700023	0.0499854001682252
234798	50	571	0	0	airplane	10	262	1	stimuli\airplane\airplane_05n.jpg	4	-1	1	0	airplane_05n.jpg	0	0	0	304.337553099962	304.387534399983	0.0499813000205904
234898	50	572	0	0	flamingo	608	263	1	stimuli\flamingo\flamingo_08s.jpg	7	-1	1	0	flamingo_08s.jpg	0	0	0	304.437554799952	304.487536399858	0.0499815999064595
234998	50	573	0	0	pocketknife	1207	264	1	stimuli\pocketknife\pocketknife_04s.jpg	3	-1	1	0	pocketknife_04s.jpg	0	0	0	304.537567900028	304.587538999971	0.0499710999429226
235098	50	574	0	0	stained_glass	1531	265	1	stimuli\stained_glass\stained_glass_03s.jpg	2	-1	1	0	stained_glass_03s.jpg	0	0	0	304.637561599957	304.687539600069	0.0499780001118779
235198	50	575	0	0	magnifier	957	266	1	stimuli\magnifier\magnifier_07s.jpg	6	-1	1	0	magnifier_07s.jpg	0	0	0	304.737561000045	304.787547799991	0.0499867999460548
235298	50	576	0	0	saffron	1345	267	1	stimuli\saffron\saffron_01b.jpg	0	-1	1	0	saffron_01b.jpg	0	0	0	304.837566500064	304.887546799844	0.0499802997801453
235398	50	577	0	0	cloud	364	268	1	stimuli\cloud\cloud_09s.jpg	8	-1	1	0	cloud_09s.jpg	0	0	0	304.93756729993	304.987547999946	0.0499807000160217
235498	50	578	0	0	hot_tub	804	269	1	stimuli\hot_tub\hot_tub_02s.jpg	1	-1	1	0	hot_tub_02s.jpg	0	0	0	305.037571799941	305.087555899983	0.049984100041911
235598	50	579	0	0	calf1	241	270	1	stimuli\calf1\calf1_03s.jpg	2	-1	1	0	calf1_03s.jpg	0	0	0	305.137575899949	305.187554199947	0.0499782999977469
235698	50	580	0	0	license_plate	921	271	1	stimuli\license_plate\license_plate_09s.jpg	8	-1	1	0	license_plate_09s.jpg	0	0	0	305.237573700026	305.287555299932	0.0499815999064595
235798	50	581	0	0	golf_club	690	272	1	stimuli\golf_club\golf_club_03s.jpg	2	-1	1	0	golf_club_03s.jpg	0	0	0	305.337577699916	305.387558100047	0.0499804001301527
235898	50	582	0	0	blanket	136	273	1	stimuli\blanket\blanket_03s.jpg	2	-1	1	1	blanket_03s.jpg	0	0	0	305.437578399898	305.487559699919	0.0499813000205904
235998	50	583	0	0	fig	581	274	1	stimuli\fig\fig_05s.jpg	4	-1	1	0	fig_05s.jpg	0	0	0	305.537588600069	305.587565999944	0.0499773998744786
236098	50	584	0	0	ladder	886	275	1	stimuli\ladder\ladder_04s.jpg	3	-1	1	0	ladder_04s.jpg	0	0	0	305.637587199919	305.687566000037	0.0499788001179695
236198	50	585	0	0	sock	1489	276	1	stimuli\sock\sock_10s.jpg	9	-1	1	0	sock_10s.jpg	0	0	0	305.737587099895	305.787567599909	0.0499805000144988
236298	50	586	0	0	scallion	1372	277	1	stimuli\scallion\scallion_07s.jpg	6	-1	1	0	scallion_07s.jpg	1	0.450163600035012	1	305.837590199895	305.887569499901	0.0499793000053614
236398	50	587	0	0	tugboat	1725	278	1	stimuli\tugboat\tugboat_12s.jpg	11	-1	1	0	tugboat_12s.jpg	0	0	0	305.937592200004	305.987572700018	0.0499805000144988
236498	50	588	0	0	bull	214	279	1	stimuli\bull\bull_03s.jpg	2	-1	1	0	bull_03s.jpg	0	0	0	306.037593399873	306.087575299898	0.0499819000251591
236598	50	589	0	0	urn	1749	280	1	stimuli\urn\urn_06s.jpg	5	-1	1	0	urn_06s.jpg	0	0	0	306.137594799977	306.187560099876	0.0499652998987585
236698	50	590	0	0	button2	231	281	1	stimuli\button2\button2_05s.jpg	4	-1	1	0	button2_05s.jpg	0	0	0	306.237608599942	306.287608899875	0.0500002999324352
236798	50	591	0	0	combination_lock	390	282	1	stimuli\combination_lock\combination_lock_11s.jpg	10	-1	1	0	combination_lock_11s.jpg	0	0	0	306.337627799949	306.387603600044	0.049975800095126
236898	50	592	0	0	clasp	351	283	1	stimuli\clasp\clasp_05s.jpg	4	-1	1	0	clasp_05s.jpg	0	0	0	306.437629299937	306.487614699872	0.0499853999353945
236998	50	593	0	0	spur	1525	284	1	stimuli\spur\spur_04s.jpg	3	-1	1	0	spur_04s.jpg	0	0	0	306.537616299931	306.587617099984	0.0500008000526577
237098	50	594	0	0	cork	409	285	1	stimuli\cork\cork_11s.jpg	10	-1	1	0	cork_11s.jpg	0	0	0	306.637636899948	306.687619799981	0.0499829000327736
237198	50	595	0	0	pudding	1246	286	1	stimuli\pudding\pudding_03s.jpg	2	-1	1	0	pudding_03s.jpg	0	0	0	306.737625299953	306.78761660005	0.0499913000967354
237298	50	596	0	0	radio	1273	287	1	stimuli\radio\radio_06s.jpg	5	-1	1	0	radio_06s.jpg	0	0	0	306.837638299912	306.887621300062	0.0499830001499504
237398	50	597	0	0	beaker	101	288	1	stimuli\beaker\beaker_07s.jpg	6	-1	1	0	beaker_07s.jpg	0	0	0	306.937626800034	306.987620499916	0.0499936998821795
237498	50	598	0	0	potato	1231	289	1	stimuli\potato\potato_02n.jpg	1	-1	1	0	potato_02n.jpg	0	0	0	307.037646299927	307.087625799933	0.0499795000068843
237598	50	599	0	0	viewfinder	1763	290	1	stimuli\viewfinder\viewfinder_10s.jpg	9	-1	1	0	viewfinder_10s.jpg	0	0	0	307.137631499907	307.187626899919	0.0499954000115395
237698	50	600	0	0	cash_machine	279	291	1	stimuli\cash_machine\cash_machine_06s.jpg	5	-1	1	0	cash_machine_06s.jpg	0	0	0	307.237650800031	307.287651999854	0.0500011998228729
237798	50	601	0	0	sponge	1517	292	1	stimuli\sponge\sponge_07s.jpg	6	-1	1	0	sponge_07s.jpg	0	0	0	307.337649499997	307.387632200029	0.0499827000312507
237898	50	602	0	0	slipper	1468	293	1	stimuli\slipper\slipper_01b.jpg	0	-1	1	0	slipper_01b.jpg	0	0	0	307.437651899876	307.487657299964	0.0500054000876844
237998	50	603	0	0	bassoon	86	294	1	stimuli\bassoon\bassoon_09s.jpg	8	-1	1	0	bassoon_09s.jpg	0	0	0	307.537625199882	307.58763580001	0.0500106001272798
238098	50	604	0	0	parrot	1121	295	1	stimuli\parrot\parrot_05s.jpg	4	-1	1	0	parrot_05s.jpg	0	0	0	307.637682599947	307.687624299899	0.0499416999518871
238198	50	605	0	0	jump_rope	858	296	1	stimuli\jump_rope\jump_rope_07s.jpg	6	-1	1	0	jump_rope_07s.jpg	0	0	0	307.737665100023	307.787663900061	0.0499988000374287
238298	50	606	0	0	roll	1323	297	1	stimuli\roll\roll_04s.jpg	3	-1	1	0	roll_04s.jpg	0	0	0	307.837663699873	307.887641799869	0.049978099996224
238398	50	607	0	0	microscope	999	298	1	stimuli\microscope\microscope_10s.jpg	9	-1	1	0	microscope_10s.jpg	0	0	0	307.93769000005	307.987645999994	0.0499559999443591
238498	50	608	0	0	gate	662	299	1	stimuli\gate\gate_12s.jpg	11	-1	1	0	gate_12s.jpg	0	0	0	308.037667099852	308.087671800051	0.0500047001987696
238598	50	609	0	0	leech	909	300	1	stimuli\leech\leech_07s.jpg	6	-1	1	0	leech_07s.jpg	0	0	0	308.13766909996	308.18765369989	0.0499845999293029
238698	50	610	0	0	lobster	939	301	1	stimuli\lobster\lobster_11s.jpg	10	-1	1	0	lobster_11s.jpg	0	0	0	308.237682499923	308.287655999884	0.0499734999611974
238798	50	611	0	0	nail_file	1048	302	1	stimuli\nail_file\nail_file_07s.jpg	6	-1	1	0	nail_file_07s.jpg	0	0	0	308.337673600065	308.387678999919	0.0500053998548537
238898	50	612	0	0	spark_plug	1506	303	1	stimuli\spark_plug\spark_plug_08s.jpg	7	-1	1	0	spark_plug_08s.jpg	0	0	0	308.437677999958	308.487632700009	0.0499547000508755
238998	50	613	0	0	lanyard	896	304	1	stimuli\lanyard\lanyard_05s.jpg	4	-1	1	0	lanyard_05s.jpg	0	0	0	308.53768339986	308.587635299889	0.049951900029555
239098	50	614	0	0	sugar_cube	1579	305	1	stimuli\sugar_cube\sugar_cube_01b.jpg	0	-1	1	0	sugar_cube_01b.jpg	0	0	0	308.637657599989	308.687659699935	0.0500020999461412
239198	50	615	0	0	chute	342	306	1	stimuli\chute\chute_01b.jpg	0	-1	1	0	chute_01b.jpg	0	0	0	308.737657899968	308.787647400051	0.0499895000830293
239298	50	616	0	0	makeup	961	307	1	stimuli\makeup\makeup_01b.jpg	0	-1	1	0	makeup_01b.jpg	0	0	0	308.837682900019	308.887642699992	0.0499597999732941
239398	50	617	0	0	silicone	1444	308	1	stimuli\silicone\silicone_08s.jpg	7	-1	1	0	silicone_08s.jpg	0	0	0	308.937663999852	308.98766730004	0.0500033001881093
245181	50	618	0	0	space_shuttle	1501	0	2	stimuli\space_shuttle\space_shuttle_07s.jpg	6	-1	2	0	space_shuttle_07s.jpg	0	0	0	314.721148699988	314.771114999894	0.049966299906373
245281	50	619	0	0	waterwheel	1794	1	2	stimuli\waterwheel\waterwheel_08s.jpg	7	-1	2	0	waterwheel_08s.jpg	0	0	0	314.82114159991	314.871121000033	0.0499794001225382
245381	50	620	0	0	shaker	1408	2	2	stimuli\shaker\shaker_03s.jpg	2	-1	2	0	shaker_03s.jpg	0	0	0	314.921144000022	314.971120900009	0.0499768999870867
245481	50	621	0	0	belt_buckle	119	3	2	stimuli\belt_buckle\belt_buckle_08s.jpg	7	-1	2	0	belt_buckle_08s.jpg	0	0	0	315.021143199876	315.071145500056	0.0500023001804948
245581	50	622	0	0	dessert	481	4	2	stimuli\dessert\dessert_10s.jpg	9	-1	2	0	dessert_10s.jpg	0	0	0	315.121155699948	315.171125099994	0.0499694000463933
245681	50	623	0	0	rollerblade	1326	5	2	stimuli\rollerblade\rollerblade_02s.jpg	1	-1	2	0	rollerblade_02s.jpg	0	0	0	315.221149899997	315.271134600043	0.0499847000464797
245781	50	624	0	0	fencepost	576	6	2	stimuli\fencepost\fencepost_10s.jpg	9	-1	2	0	fencepost_10s.jpg	0	0	0	315.321151299868	315.371131699998	0.0499804001301527
245881	50	625	0	0	bookmark	166	7	2	stimuli\bookmark\bookmark_01s.jpg	0	-1	2	0	bookmark_01s.jpg	0	0	0	315.42115339986	315.471136600012	0.0499832001514733
245981	50	626	0	0	swan	1591	8	2	stimuli\swan\swan_06s.jpg	5	-1	2	0	swan_06s.jpg	0	0	0	315.521156699862	315.571132799843	0.0499760999809951
246081	50	627	0	0	cornhusk	414	9	2	stimuli\cornhusk\cornhusk_04s.jpg	3	-1	2	0	cornhusk_04s.jpg	0	0	0	315.621185800061	315.671135499841	0.0499496997799724
246181	50	628	0	0	mirror	1005	10	2	stimuli\mirror\mirror_10s.jpg	9	-1	2	0	mirror_10s.jpg	0	0	0	315.721160899848	315.771138799842	0.0499778999947011
246281	50	629	0	0	train_car	1699	11	2	stimuli\train_car\train_car_11s.jpg	10	-1	2	0	train_car_11s.jpg	0	0	0	315.821162899956	315.871146299876	0.0499833999201655
246381	50	630	0	0	wineglass	1826	12	2	stimuli\wineglass\wineglass_11s.jpg	10	-1	2	0	wineglass_11s.jpg	0	0	0	315.921167499851	315.971144000068	0.0499765002168715
246481	50	631	0	0	wallet	1776	13	2	stimuli\wallet\wallet_12s.jpg	11	-1	2	0	wallet_12s.jpg	0	0	0	316.021463399986	316.071147899842	0.0496844998560846
246581	50	632	0	0	chalk	302	14	2	stimuli\chalk\chalk_04s.jpg	3	-1	2	0	chalk_04s.jpg	0	0	0	316.121170900064	316.171150999842	0.0499800997786224
246681	50	633	0	0	pantsuit	1109	15	2	stimuli\pantsuit\pantsuit_06s.jpg	5	-1	2	0	pantsuit_06s.jpg	0	0	0	316.221179499989	316.271149599925	0.0499700999353081
246781	50	634	0	0	plum	1203	16	2	stimuli\plum\plum_10s.jpg	9	-1	2	0	plum_10s.jpg	0	0	0	316.321174399927	316.371171900071	0.0499975001439452
246881	50	635	0	0	honeycomb	789	17	2	stimuli\honeycomb\honeycomb_01b.jpg	0	-1	2	0	honeycomb_01b.jpg	0	0	0	316.421177499928	316.471154900035	0.0499774001073092
246981	50	636	0	0	ink	829	18	2	stimuli\ink\ink_07s.jpg	6	-1	2	0	ink_07s.jpg	0	0	0	316.521181399934	316.571157800034	0.0499764000996947
247081	50	637	0	0	radish	1274	19	2	stimuli\radish\radish_07s.jpg	6	-1	2	0	radish_07s.jpg	0	0	0	316.621188399848	316.67116119992	0.0499728000722826
247181	50	638	0	0	bucket	209	20	2	stimuli\bucket\bucket_03s.jpg	2	-1	2	0	bucket_03s.jpg	0	0	0	316.721183100017	316.7711616999	0.049978599883616
247281	50	639	0	0	hotdog	805	21	2	stimuli\hotdog\hotdog_11n.jpg	10	-1	2	0	hotdog_11n.jpg	0	0	0	316.821186400019	316.871165799908	0.0499793998897076
247381	50	640	0	0	pinecone	1183	22	2	stimuli\pinecone\pinecone_09s.jpg	8	-1	2	0	pinecone_09s.jpg	0	0	0	316.921188500011	316.971189500066	0.0500010000541806
247481	50	641	0	0	stake	1533	23	2	stimuli\stake\stake_11s.jpg	10	-1	2	0	stake_11s.jpg	0	0	0	317.021190600004	317.071169399889	0.0499787998851389
247581	50	642	0	0	seismograph	1403	24	2	stimuli\seismograph\seismograph_09s.jpg	8	-1	2	0	seismograph_09s.jpg	0	0	0	317.121205699863	317.171174000017	0.0499683001544327
247681	50	643	0	0	bandanna	67	25	2	stimuli\bandanna\bandanna_01b.jpg	0	-1	2	0	bandanna_01b.jpg	0	0	0	317.221196299884	317.271174699999	0.0499784001149237
247781	50	644	0	0	cleat	353	26	2	stimuli\cleat\cleat_09s.jpg	8	-1	2	0	cleat_09s.jpg	0	0	0	317.321214299882	317.371178200003	0.0499639001209289
247881	50	645	0	0	horse	798	27	2	stimuli\horse\horse_01b.jpg	0	-1	2	0	horse_01b.jpg	0	0	0	317.42120360001	317.471209599869	0.0500059998594224
247981	50	646	0	0	ice_cream	818	28	2	stimuli\ice_cream\ice_cream_12s.jpg	11	-1	2	0	ice_cream_12s.jpg	0	0	0	317.521206900012	317.571182399988	0.0499754999764264
248081	50	647	0	0	snow	1479	29	2	stimuli\snow\snow_07s.jpg	6	-1	2	0	snow_07s.jpg	0	0	0	317.621205899864	317.671188500011	0.0499826001469046
248181	50	648	0	0	stiletto	1554	30	2	stimuli\stiletto\stiletto_01b.jpg	0	-1	2	0	stiletto_01b.jpg	0	0	0	317.721207899973	317.771185199963	0.0499772999901325
248281	50	649	0	0	flyswatter	623	31	2	stimuli\flyswatter\flyswatter_01b.jpg	0	-1	2	0	flyswatter_01b.jpg	0	0	0	317.821216000011	317.871190799866	0.0499747998546809
248381	50	650	0	0	plunger	1204	32	2	stimuli\plunger\plunger_01s.jpg	0	-1	2	0	plunger_01s.jpg	0	0	0	317.921211999841	317.97119309986	0.0499811000190675
248481	50	651	0	0	cannon	260	33	2	stimuli\cannon\cannon_12n.jpg	11	-1	2	0	cannon_12n.jpg	0	0	0	318.021215799963	318.07121009985	0.0499942998867482
248581	50	652	0	0	potpie	1234	34	2	stimuli\potpie\potpie_05s.jpg	4	-1	2	0	potpie_05s.jpg	0	0	0	318.121218999848	318.171198199969	0.0499792001210153
248681	50	653	0	0	walker2	1774	35	2	stimuli\walker2\walker2_12s.jpg	11	-1	2	0	walker2_12s.jpg	0	0	0	318.221241999883	318.271203199867	0.0499611999839544
