onset	duration	eventnumber	blocksequencenumber	isteststim	object	objectnumber	presentationnumber	sequencenumber	stim	stimnumber	teststimnumber	withinsequencenumber	istarget	stimname	response	rt	correct	time_stimon	time_stimoff	stimdur
137206	50	0	0	0	cobra	371	0	0	stimuli\cobra\cobra_01b.jpg	0	-1	0	0	cobra_01b.jpg	1	0	0	94.2751822534192	94.325142646645	0.0499603932257742
137306	50	1	0	0	can_opener	251	1	0	stimuli\can_opener\can_opener_05s.jpg	4	-1	0	0	can_opener_05s.jpg	0	0	0	94.3751613102213	94.4251295053109	0.0499681950896047
137406	50	2	0	0	sandbox	1354	2	0	stimuli\sandbox\sandbox_02s.jpg	1	-1	0	0	sandbox_02s.jpg	0	0	0	94.4751493879594	94.5251670763246	0.0500176883651875
137506	50	3	0	0	letter_opener	919	3	0	stimuli\letter_opener\letter_opener_08s.jpg	7	-1	0	0	letter_opener_08s.jpg	0	0	0	94.5751694046776	94.6251390626421	0.0499696579645388
137606	50	4	0	0	goblet	685	4	0	stimuli\goblet\goblet_10s.jpg	9	-1	0	0	goblet_10s.jpg	0	0	0	94.6751582138531	94.725136405119	0.0499781912658364
137706	50	5	0	0	dishrag	490	5	0	stimuli\dishrag\dishrag_02s.jpg	1	-1	0	0	dishrag_02s.jpg	0	0	0	94.7751577506133	94.8257991027494	0.0506413521361537
137806	50	6	0	0	copier	405	6	0	stimuli\copier\copier_03s.jpg	2	-1	0	0	copier_03s.jpg	0	0	0	94.8751650892664	94.9251449872099	0.0499798979435582
137906	50	7	0	0	milkshake	1002	7	0	stimuli\milkshake\milkshake_08s.jpg	7	-1	0	0	milkshake_08s.jpg	0	0	0	94.9751680393529	95.0251347715966	0.0499667322437745
138006	50	8	0	0	ratchet	1286	8	0	stimuli\ratchet\ratchet_08s.jpg	7	-1	0	0	ratchet_08s.jpg	0	0	0	95.0751795227698	95.1251962358947	0.0500167131249327
138106	50	9	0	0	modem	1011	9	0	stimuli\modem\modem_03s.jpg	2	-1	0	0	modem_03s.jpg	0	0	0	95.1751958823588	95.2251765117107	0.0499806293519214
138206	50	10	0	0	cocktail	374	10	0	stimuli\cocktail\cocktail_12s.jpg	11	-1	0	0	cocktail_12s.jpg	0	0	0	95.2751978572051	95.3251814122777	0.0499835550726857
138306	50	11	0	0	mat	982	11	0	stimuli\mat\mat_03s.jpg	2	-1	0	0	mat_03s.jpg	0	0	0	95.3752022701665	95.4251655890839	0.0499633189174347
138406	50	12	0	0	flag	605	12	0	stimuli\flag\flag_06n.jpg	5	-1	0	0	flag_06n.jpg	0	0	0	95.4752037574071	95.5251748782175	0.049971120810369
138506	50	13	0	0	llama	938	13	0	stimuli\llama\llama_09s.jpg	8	-1	0	0	llama_09s.jpg	0	0	0	95.5751901284675	95.6251597864321	0.0499696579645388
138606	50	14	0	0	wig	1816	14	0	stimuli\wig\wig_03s.jpg	2	-1	0	0	wig_03s.jpg	0	0	0	95.6751843014208	95.7251624926866	0.0499781912658364
138706	50	15	0	0	earwig	541	15	0	stimuli\earwig\earwig_10n.jpg	9	-1	0	0	earwig_10n.jpg	0	0	0	95.7751743296394	95.8251727570605	0.0499984274210874
138806	50	16	0	0	cookie_cutter	401	16	0	stimuli\cookie_cutter\cookie_cutter_06s.jpg	5	-1	0	0	cookie_cutter_06s.jpg	0	0	0	95.8751889825508	95.9251676614513	0.0499786789005157
138906	50	17	0	0	dresser	519	17	0	stimuli\dresser\dresser_06n.jpg	5	-1	0	0	dresser_06n.jpg	0	0	0	95.9751919326663	96.0251696362975	0.0499777036311571
139006	50	18	0	0	shelf	1416	18	0	stimuli\shelf\shelf_08s.jpg	7	-1	0	0	shelf_08s.jpg	0	0	0	96.0751943951182	96.1251742930617	0.0499798979435582
139106	50	19	0	0	calf1	241	19	0	stimuli\calf1\calf1_07s.jpg	6	-1	0	0	calf1_07s.jpg	0	0	0	96.1751963699644	96.2251730983844	0.0499767284200061
139206	50	20	0	0	gauze	664	20	0	stimuli\gauze\gauze_06s.jpg	5	-1	0	0	gauze_06s.jpg	0	0	0	96.2751988324453	96.3251809246722	0.0499820922268555
139306	50	21	0	0	oatmeal	1069	21	0	stimuli\oatmeal\oatmeal_12s.jpg	11	-1	0	0	oatmeal_12s.jpg	0	0	0	96.3751993444457	96.4251733909769	0.0499740465311334
139406	50	22	0	0	scooter	1382	22	0	stimuli\scooter\scooter_08s.jpg	7	-1	0	0	scooter_08s.jpg	0	0	0	96.4752005878836	96.5251834115188	0.0499828236352187
139506	50	23	0	0	stool	1561	23	0	stimuli\stool\stool_06s.jpg	5	-1	0	0	stool_06s.jpg	0	0	0	96.5752054884506	96.6251795349526	0.0499740465020295
139606	50	24	0	0	tackle	1612	24	0	stimuli\tackle\tackle_08s.jpg	7	-1	0	0	tackle_08s.jpg	0	0	0	96.675207219494	96.7251907745667	0.0499835550726857
139706	50	25	0	0	clipper2	357	25	0	stimuli\clipper2\clipper2_04s.jpg	3	-1	0	0	clipper2_04s.jpg	0	0	0	96.7752396704745	96.8252173741348	0.0499777036602609
139806	50	26	0	0	walker1	1773	26	0	stimuli\walker1\walker1_11s.jpg	10	-1	0	0	walker1_11s.jpg	0	0	0	96.8752365253458	96.9252088651992	0.0499723398534115
139906	50	27	0	0	timer	1661	27	0	stimuli\timer\timer_01b.jpg	0	-1	0	0	timer_01b.jpg	0	0	0	96.9752414259128	97.0252054762386	0.0499640503257979
140006	50	28	0	0	desk	480	28	0	stimuli\desk\desk_11s.jpg	10	-1	0	0	desk_11s.jpg	0	0	0	97.075220238883	97.125227931072	0.0500076921889558
140106	50	29	0	0	cigarette_holder	346	29	0	stimuli\cigarette_holder\cigarette_holder_05s.jpg	4	-1	0	0	cigarette_holder_05s.jpg	0	0	0	97.1752461070428	97.2252184468962	0.0499723398534115
140206	50	30	0	0	dice	486	30	0	stimuli\dice\dice_03s.jpg	2	-1	0	0	dice_03s.jpg	0	0	0	97.2752190686006	97.3252021360677	0.0499830674671102
140306	50	31	0	0	corkboard	410	31	0	stimuli\corkboard\corkboard_11s.jpg	10	-1	0	0	corkboard_11s.jpg	0	0	0	97.3752229939273	97.425200209982	0.0499772160546854
140406	50	32	0	0	spam	1504	32	0	stimuli\spam\spam_12s.jpg	11	-1	0	0	spam_12s.jpg	0	0	0	97.4752308202151	97.5252082800434	0.0499774598283693
140506	50	33	0	0	handle	748	33	0	stimuli\handle\handle_07s.jpg	6	-1	0	0	handle_07s.jpg	0	0	0	97.5752335264988	97.6252090358757	0.0499755093769636
140606	50	34	0	0	pinball	1178	34	0	stimuli\pinball\pinball_12s.jpg	11	-1	0	0	pinball_12s.jpg	0	0	0	97.6752316004131	97.7252195440233	0.0499879436101764
140706	50	35	0	0	mullet	1039	35	0	stimuli\mullet\mullet_07s.jpg	6	-1	0	0	mullet_07s.jpg	0	0	0	97.7752435714356	97.8252173741348	0.0499738026992418
140806	50	36	0	0	cornbread	413	36	0	stimuli\cornbread\cornbread_10s.jpg	9	-1	0	0	cornbread_10s.jpg	0	0	0	97.8752616376732	97.9252198366157	0.0499581989424769
140906	50	37	0	0	tiger	1659	37	0	stimuli\tiger\tiger_05s.jpg	4	-1	0	0	tiger_05s.jpg	0	0	0	97.975248984003	98.0252057200705	0.0499567360675428
141006	50	38	0	0	scraper	1387	38	0	stimuli\scraper\scraper_08s.jpg	7	-1	0	0	scraper_08s.jpg	0	0	0	98.0752487645659	98.1252252491831	0.0499764846172184
141106	50	39	0	0	water_cooler	1788	39	0	stimuli\water_cooler\water_cooler_11s.jpg	10	-1	0	0	water_cooler_11s.jpg	0	0	0	98.17524586324	98.2252252735489	0.0499794103088789
141206	50	40	0	0	step_stool	1548	40	0	stimuli\step_stool\step_stool_01b.jpg	0	-1	0	0	step_stool_01b.jpg	0	0	0	98.2752505199751	98.3252296865103	0.049979166535195
141306	50	41	0	0	tricycle	1711	41	0	stimuli\tricycle\tricycle_03s.jpg	2	-1	0	0	tricycle_03s.jpg	0	0	0	98.3752503005671	98.4252265413525	0.0499762407853268
141406	50	42	0	0	yacht	1844	42	0	stimuli\yacht\yacht_06s.jpg	5	-1	0	0	yacht_06s.jpg	0	0	0	98.4752522754134	98.5252343676402	0.0499820922268555
141506	50	43	0	0	croissant	442	43	0	stimuli\croissant\croissant_09s.jpg	8	-1	0	0	croissant_09s.jpg	0	0	0	98.5752564445429	98.6252339044004	0.0499774598574731
141606	50	44	0	0	sling	1466	44	0	stimuli\sling\sling_12s.jpg	11	-1	0	0	sling_12s.jpg	0	0	0	98.6752572003461	98.7252436811395	0.04998648079345
141706	50	45	0	0	flask	612	45	0	stimuli\flask\flask_09s.jpg	8	-1	0	0	flask_09s.jpg	0	0	0	98.7752640513936	98.8252546769218	0.049990625528153
141806	50	46	0	0	easel	542	46	0	stimuli\easel\easel_09s.jpg	8	-1	0	0	easel_09s.jpg	0	0	0	98.8752879690728	98.9252683546219	0.0499803855491336
141906	50	47	0	0	almond	13	47	0	stimuli\almond\almond_06s.jpg	5	-1	0	0	almond_06s.jpg	0	0	0	98.9752901877218	99.0252737427945	0.0499835550726857
142006	50	48	0	0	granola	701	48	0	stimuli\granola\granola_10s.jpg	9	-1	0	0	granola_10s.jpg	0	0	0	99.0752926502028	99.1252744986268	0.0499818484240677
142106	50	49	0	0	inkwell	830	49	0	stimuli\inkwell\inkwell_04s.jpg	3	-1	0	0	inkwell_04s.jpg	0	0	0	99.1752948688809	99.2252601382497	0.0499652693688404
142206	50	50	0	0	crumb	451	50	0	stimuli\crumb\crumb_08s.jpg	7	-1	0	0	crumb_08s.jpg	0	0	0	99.275281483744	99.3252572369238	0.0499757531797513
142306	50	51	0	0	suit	1580	51	0	stimuli\suit\suit_05s.jpg	4	-1	0	0	suit_05s.jpg	0	0	0	99.3752751690918	99.4252548232325	0.0499796541407704
142406	50	52	0	0	sock	1489	52	0	stimuli\sock\sock_11s.jpg	10	-1	0	0	sock_11s.jpg	0	0	0	99.475277143938	99.5252585047274	0.0499813607893884
142506	50	53	0	0	insole	831	53	0	stimuli\insole\insole_07s.jpg	6	-1	0	0	insole_07s.jpg	0	0	0	99.5752786311787	99.6252612110111	0.0499825798324309
142606	50	54	0	0	pallet	1101	54	0	stimuli\pallet\pallet_06s.jpg	5	-1	0	0	pallet_06s.jpg	0	0	0	99.6752774365305	99.725263673492	0.0499862369615585
142706	50	55	0	0	grater	708	55	0	stimuli\grater\grater_12s.jpg	11	-1	0	0	grater_12s.jpg	0	0	0	99.7753162265581	99.8252970997128	0.0499808731547091
142806	50	56	0	0	polisher	1215	56	0	stimuli\polisher\polisher_04s.jpg	3	-1	0	0	polisher_04s.jpg	1	0	0	99.8753162509238	99.9252698174678	0.0499535665439907
142906	50	57	0	0	piglet	1173	57	0	stimuli\piglet\piglet_04s.jpg	3	-1	0	0	piglet_04s.jpg	0	0	0	99.975291406794	100.025271060906	0.0499796541116666
143006	50	58	0	0	orange	1078	58	0	stimuli\orange\orange_07s.jpg	6	-1	0	0	orange_07s.jpg	0	0	0	100.075293137837	100.125273035752	0.0499798979144543
143106	50	59	0	0	engine	557	59	0	stimuli\engine\engine_09s.jpg	8	-1	0	0	engine_09s.jpg	0	0	0	100.175297306967	100.225275498233	0.0499781912658364
143206	50	60	0	0	toucan	1690	60	0	stimuli\toucan\toucan_12s.jpg	11	-1	0	0	toucan_12s.jpg	0	0	0	100.275300257053	100.325279667362	0.0499794103088789
143306	50	61	0	0	elbow	552	61	0	stimuli\elbow\elbow_01b.jpg	0	-1	0	0	elbow_01b.jpg	0	0	0	100.375299793814	100.42527896032	0.0499791665060911
143406	50	62	0	0	possum	1228	62	0	stimuli\possum\possum_01b.jpg	0	-1	0	0	possum_01b.jpg	0	0	0	100.475306401029	100.52528605517	0.0499796541407704
143506	50	63	0	0	skewer	1451	63	0	stimuli\skewer\skewer_10s.jpg	9	-1	0	0	skewer_10s.jpg	1	0	0	100.575302036857	100.625280715758	0.0499786789005157
143606	50	64	0	0	flute	620	64	0	stimuli\flute\flute_03s.jpg	2	-1	0	0	flute_03s.jpg	0	0	0	100.675305718381	100.725285616325	0.0499798979435582
143706	50	65	0	0	peacock	1130	65	0	stimuli\peacock\peacock_02s.jpg	1	-1	0	0	peacock_02s.jpg	0	0	0	100.775309643708	100.82528929782	0.0499796541116666
143806	50	66	0	0	cactus	235	66	0	stimuli\cactus\cactus_08n.jpg	7	-1	0	0	cactus_08n.jpg	0	0	0	100.875314788078	100.925293954584	0.0499791665060911
143906	50	67	0	0	fencepost	576	67	0	stimuli\fencepost\fencepost_02s.jpg	1	-1	0	0	fencepost_02s.jpg	0	0	0	100.975317494362	101.025295441825	0.0499779474630486
144006	50	68	0	0	marshmallow	977	68	0	stimuli\marshmallow\marshmallow_06s.jpg	5	-1	0	0	marshmallow_06s.jpg	0	0	0	101.075348726299	101.12530960713	0.0499608808313496
144106	50	69	0	0	photo_booth	1163	69	0	stimuli\photo_booth\photo_booth_01b.jpg	0	-1	0	0	photo_booth_01b.jpg	0	0	0	101.175345093565	101.2253279172	0.0499828236352187
144206	50	70	0	0	motorcycle	1025	70	0	stimuli\motorcycle\motorcycle_10s.jpg	9	-1	0	0	motorcycle_10s.jpg	0	0	0	101.275331708428	101.325304048281	0.0499723398534115
144306	50	71	0	0	cereal	297	71	0	stimuli\cereal\cereal_12s.jpg	11	-1	0	0	cereal_12s.jpg	0	0	0	101.375322711887	101.425301878393	0.0499791665060911
144406	50	72	0	0	money	1015	72	0	stimuli\money\money_12s.jpg	11	-1	0	0	money_12s.jpg	0	0	0	101.475357113348	101.525337986503	0.0499808731547091
144506	50	73	0	0	seaweed	1400	73	0	stimuli\seaweed\seaweed_07s.jpg	6	-1	0	0	seaweed_07s.jpg	0	0	0	101.575331537751	101.625309972849	0.0499784350977279
144606	50	74	0	0	tarantula	1626	74	0	stimuli\tarantula\tarantula_06s.jpg	5	-1	0	0	tarantula_06s.jpg	1	0	0	101.675332049752	101.725329014327	0.0499969645752572
144706	50	75	0	0	ready_meal	1292	75	0	stimuli\ready_meal\ready_meal_02s.jpg	1	-1	0	0	ready_meal_02s.jpg	0	0	0	101.775350359821	101.825325381593	0.0499750217713881
144806	50	76	0	0	tape_recorder	1624	76	0	stimuli\tape_recorder\tape_recorder_06s.jpg	5	-1	0	0	tape_recorder_06s.jpg	0	0	0	101.875351115625	101.92533028216	0.049979166535195
144906	50	77	0	0	chime	328	77	0	stimuli\chime\chime_07s.jpg	6	-1	0	0	chime_07s.jpg	0	0	0	101.975347970496	102.025327868439	0.0499798979435582
145006	50	78	0	0	column	388	78	0	stimuli\column\column_08s.jpg	7	-1	0	0	column_08s.jpg	0	0	0	102.075351408217	102.125331306132	0.0499798979144543
145106	50	79	0	0	cougar	423	79	0	stimuli\cougar\cougar_08s.jpg	7	-1	0	0	cougar_08s.jpg	0	0	0	102.175355821149	102.225344008591	0.049988187442068
145206	50	80	0	0	roller_coaster	1325	80	0	stimuli\roller_coaster\roller_coaster_11s.jpg	10	-1	0	0	roller_coaster_11s.jpg	0	0	0	102.275376325502	102.325347690115	0.0499713646131568
145306	50	81	0	0	sewage	1405	81	0	stimuli\sewage\sewage_09s.jpg	8	-1	0	0	sewage_09s.jpg	0	0	0	102.375367328932	102.42533820594	0.0499708770075813
145406	50	82	0	0	thread	1651	82	0	stimuli\thread\thread_12s.jpg	11	-1	0	0	thread_12s.jpg	0	0	0	102.475365402846	102.52534627603	0.0499808731838129
145506	50	83	0	0	landmine	894	83	0	stimuli\landmine\landmine_03s.jpg	2	-1	0	0	landmine_03s.jpg	0	0	0	102.575368596765	102.625347031833	0.0499784350686241
145606	50	84	0	0	car_seat	269	84	0	stimuli\car_seat\car_seat_06s.jpg	5	-1	0	0	car_seat_06s.jpg	0	0	0	102.675369352568	102.725350713357	0.0499813607893884
145706	50	85	0	0	ironing_board	833	85	0	stimuli\ironing_board\ironing_board_02s.jpg	1	-1	0	0	ironing_board_02s.jpg	0	0	0	102.775391075964	102.825369511032	0.0499784350686241
145806	50	86	0	0	napkin_ring	1051	86	0	stimuli\napkin_ring\napkin_ring_03s.jpg	2	-1	0	0	napkin_ring_03s.jpg	0	0	0	102.875392807007	102.925374899234	0.0499820922268555
145906	50	87	0	0	match	983	87	0	stimuli\match\match_09s.jpg	8	-1	0	0	match_09s.jpg	1	0	0	102.975379909505	103.025356637925	0.0499767284200061
146006	50	88	0	0	pillbox	1175	88	0	stimuli\pillbox\pillbox_11s.jpg	10	-1	0	0	pillbox_11s.jpg	0	0	0	103.075380177674	103.125358368969	0.0499781912949402
146106	50	89	0	0	bubble	207	89	0	stimuli\bubble\bubble_03s.jpg	2	-1	0	0	bubble_03s.jpg	0	0	0	103.175381177309	103.225369120948	0.0499879436392803
146206	50	90	0	0	sifter	1443	90	0	stimuli\sifter\sifter_09s.jpg	8	-1	0	0	sifter_09s.jpg	0	0	0	103.275383395958	103.325361587253	0.0499781912949402
146306	50	91	0	0	corn	412	91	0	stimuli\corn\corn_09s.jpg	8	-1	0	0	corn_09s.jpg	0	0	0	103.375388784159	103.425369413511	0.0499806293519214
146406	50	92	0	0	pocket	1205	92	0	stimuli\pocket\pocket_11s.jpg	10	-1	0	0	pocket_11s.jpg	0	0	0	103.475388808525	103.525369925512	0.0499811169866007
146506	50	93	0	0	dumbwaiter	531	93	0	stimuli\dumbwaiter\dumbwaiter_11s.jpg	10	-1	0	0	dumbwaiter_11s.jpg	0	0	0	103.575392490049	103.625362635619	0.0499701455701143
146606	50	94	0	0	paddle	1094	94	0	stimuli\paddle\paddle_12s.jpg	11	-1	0	0	paddle_12s.jpg	0	0	0	103.675391783006	103.7253782638	0.04998648079345
146706	50	95	0	0	tuning_fork	1728	95	0	stimuli\tuning_fork\tuning_fork_07s.jpg	6	-1	0	0	tuning_fork_07s.jpg	0	0	0	103.775395708333	103.825369511032	0.0499738026992418
146806	50	96	0	0	gorilla	695	96	0	stimuli\gorilla\gorilla_12s.jpg	11	-1	0	0	gorilla_12s.jpg	0	0	0	103.875397683179	103.925381725887	0.049984042707365
146906	50	97	0	0	tambourine	1619	97	0	stimuli\tambourine\tambourine_11s.jpg	10	-1	0	0	tambourine_11s.jpg	0	0	0	103.975402096141	104.025381994055	0.0499798979144543
147006	50	98	0	0	tinsel	1662	98	0	stimuli\tinsel\tinsel_08s.jpg	7	-1	0	0	tinsel_08s.jpg	0	0	0	104.075402608141	104.125381530816	0.0499789226741996
147106	50	99	0	0	tray	1705	99	0	stimuli\tray\tray_01s.jpg	0	-1	0	0	tray_01s.jpg	0	0	0	104.17540287631	104.225381799013	0.0499789227033034
147206	50	100	0	0	tortilla	1687	100	0	stimuli\tortilla\tortilla_05s.jpg	4	-1	0	0	tortilla_05s.jpg	1	0	0	104.275407533074	104.325386943383	0.0499794103088789
147306	50	101	0	0	sail	1346	101	0	stimuli\sail\sail_09s.jpg	8	-1	0	0	sail_09s.jpg	0	0	0	104.37541414029	104.42539086871	0.0499767284200061
147406	50	102	0	0	paper_towel	1115	102	0	stimuli\paper_towel\paper_towel_09s.jpg	8	-1	0	0	paper_towel_09s.jpg	0	0	0	104.475416602771	104.525396013079	0.0499794103088789
147506	50	103	0	0	makeup	961	103	0	stimuli\makeup\makeup_04s.jpg	3	-1	0	0	makeup_04s.jpg	0	0	0	104.575413701445	104.625388723187	0.0499750217422843
147606	50	104	0	0	box	181	104	0	stimuli\box\box_06s.jpg	5	-1	0	0	box_06s.jpg	0	0	0	104.67541372581	104.725403376127	0.0499896503170021
147706	50	105	0	0	missile	1006	105	0	stimuli\missile\missile_02s.jpg	1	-1	0	0	missile_02s.jpg	0	0	0	104.775440081605	104.825405838608	0.0499657570035197
147806	50	106	0	0	chalk	302	106	0	stimuli\chalk\chalk_07s.jpg	6	-1	0	0	chalk_07s.jpg	0	0	0	104.875425477425	104.925403912493	0.0499784350686241
147906	50	107	0	0	mascara	978	107	0	stimuli\mascara\mascara_04s.jpg	3	-1	0	0	mascara_04s.jpg	0	0	0	104.975425014185	105.025406374974	0.0499813607893884
148006	50	108	0	0	checkers	311	108	0	stimuli\checkers\checkers_11s.jpg	10	-1	0	0	checkers_11s.jpg	0	0	0	105.075427476666	105.125404205086	0.0499767284200061
148106	50	109	0	0	yarn	1846	109	0	stimuli\yarn\yarn_12s.jpg	11	-1	0	0	yarn_12s.jpg	0	0	0	105.17542555058	105.225414957065	0.0499894064851105
148206	50	110	0	0	bone	161	110	0	stimuli\bone\bone_06s.jpg	5	-1	0	0	bone_06s.jpg	0	0	0	105.275430451118	105.325410592865	0.0499801417463459
148306	50	111	0	0	doormat	511	111	0	stimuli\doormat\doormat_11s.jpg	10	-1	0	1	doormat_11s.jpg	0	0	0	105.375431694556	105.425411104865	0.0499794103088789
148406	50	112	0	0	rollerskate	1327	112	0	stimuli\rollerskate\rollerskate_12s.jpg	11	-1	0	0	rollerskate_12s.jpg	0	0	0	105.475435132277	105.525421856873	0.0499867245962378
148506	50	113	0	0	bracket	189	113	0	stimuli\bracket\bracket_11s.jpg	10	-1	0	0	bracket_11s.jpg	0	0	0	105.575440764253	105.62541919935	0.0499784350977279
148606	50	114	0	0	paper_bag	1113	114	0	stimuli\paper_bag\paper_bag_12s.jpg	11	-1	0	0	paper_bag_12s.jpg	0	0	0	105.675439569604	105.725421905634	0.0499823360296432
148706	50	115	0	0	guillotine	721	115	0	stimuli\guillotine\guillotine_04s.jpg	3	-1	0	0	guillotine_04s.jpg	1	0.450165778020164	1	105.775444713974	105.825422661437	0.0499779474630486
148806	50	116	0	0	corsage	417	116	0	stimuli\corsage\corsage_02s.jpg	1	-1	0	0	corsage_02s.jpg	0	0	0	105.875444982143	105.925426830567	0.0499818484240677
148906	50	117	0	0	syringe	1604	117	0	stimuli\syringe\syringe_05s.jpg	4	-1	0	0	syringe_05s.jpg	0	0	0	105.975447932258	106.025431974937	0.0499840426782612
149006	50	118	0	0	ravioli	1289	118	0	stimuli\ravioli\ravioli_11s.jpg	10	-1	0	0	ravioli_11s.jpg	0	0	0	106.075453076628	106.125434193615	0.0499811169866007
149106	50	119	0	0	hotdog	805	119	0	stimuli\hotdog\hotdog_11n.jpg	10	-1	0	0	hotdog_11n.jpg	0	0	0	106.175457245758	106.225437387504	0.0499801417463459
149206	50	120	0	0	tape	1622	120	0	stimuli\tape\tape_08s.jpg	7	-1	0	0	tape_08s.jpg	0	0	0	106.275442641578	106.325429609977	0.0499869683990255
149306	50	121	0	0	pinwheel	1185	121	0	stimuli\pinwheel\pinwheel_07s.jpg	6	-1	0	0	pinwheel_07s.jpg	0	0	0	106.375449492625	106.425428659131	0.0499791665060911
149406	50	122	0	0	tongue	1675	122	0	stimuli\tongue\tongue_10s.jpg	9	-1	0	0	tongue_10s.jpg	0	0	0	106.475452442712	106.52543746063	0.049985017918516
149506	50	123	0	0	overalls	1090	123	0	stimuli\overalls\overalls_10s.jpg	9	-1	0	0	overalls_10s.jpg	0	0	0	106.575455148995	106.625433827896	0.0499786789005157
149606	50	124	0	0	seagull	1395	124	0	stimuli\seagull\seagull_10s.jpg	9	-1	0	0	seagull_10s.jpg	0	0	0	106.675452491472	106.725457989378	0.0500054979056586
149706	50	125	0	0	stick	1552	125	0	stimuli\stick\stick_11s.jpg	10	-1	0	0	stick_11s.jpg	0	0	0	106.775461536803	106.825437289983	0.0499757531797513
149806	50	126	0	0	wax	1795	126	0	stimuli\wax\wax_10s.jpg	9	-1	0	0	wax_10s.jpg	0	0	0	106.875463511649	106.925442678155	0.0499791665060911
149906	50	127	0	0	alligator	12	127	0	stimuli\alligator\alligator_10s.jpg	9	-1	0	0	alligator_10s.jpg	0	0	0	106.975466461736	107.025445384439	0.0499789227033034
150006	50	128	0	0	cardboard	272	128	0	stimuli\cardboard\cardboard_06s.jpg	5	-1	0	0	cardboard_06s.jpg	0	0	0	107.075467705174	107.125452723092	0.049985017918516
150106	50	129	0	0	sundial	1583	129	0	stimuli\sundial\sundial_08s.jpg	7	-1	0	0	sundial_08s.jpg	0	0	0	107.175458464801	107.225482492184	0.0500240273831878
150206	50	130	0	0	shawl	1411	130	0	stimuli\shawl\shawl_03s.jpg	2	-1	0	0	shawl_03s.jpg	1	0	0	107.275490184373	107.325460329943	0.0499701455701143
150306	50	131	0	0	bowler_hat	178	131	0	stimuli\bowler_hat\bowler_hat_09s.jpg	8	-1	0	0	bowler_hat_09s.jpg	0	0	0	107.375480212562	107.425489611429	0.0500093988666777
150406	50	132	0	0	mashed_potato	979	132	0	stimuli\mashed_potato\mashed_potato_12s.jpg	11	-1	0	0	mashed_potato_12s.jpg	0	0	0	107.475493890262	107.525469887274	0.0499759970116429
150506	50	133	0	0	ice_cube	819	133	0	stimuli\ice_cube\ice_cube_06s.jpg	5	-1	0	0	ice_cube_06s.jpg	0	0	0	107.575492451782	107.62546991164	0.0499774598574731
150606	50	134	0	0	tomato_sauce	1673	134	0	stimuli\tomato_sauce\tomato_sauce_07s.jpg	6	-1	0	0	tomato_sauce_07s.jpg	0	0	0	107.675502716156	107.725477250293	0.0499745341367088
150706	50	135	0	0	inhaler	828	135	0	stimuli\inhaler\inhaler_04s.jpg	3	-1	0	0	inhaler_04s.jpg	0	0	0	107.7755044472	107.825474105164	0.0499696579645388
150806	50	136	0	0	zucchini	1853	136	0	stimuli\zucchini\zucchini_02s.jpg	1	-1	0	0	zucchini_02s.jpg	0	0	0	107.875494719221	107.925501192367	0.0500064731459133
150906	50	137	0	0	honeycomb	789	137	0	stimuli\honeycomb\honeycomb_03s.jpg	2	-1	0	0	honeycomb_03s.jpg	0	0	0	107.975501082634	108.025484150101	0.0499830674671102
151006	50	138	0	0	joystick	852	138	0	stimuli\joystick\joystick_05s.jpg	4	-1	0	0	joystick_05s.jpg	0	0	0	108.075499400351	108.125479298295	0.0499798979435582
151106	50	139	0	0	canvas	264	139	0	stimuli\canvas\canvas_05s.jpg	4	-1	0	0	canvas_05s.jpg	0	0	0	108.175521855184	108.225510286429	0.0499884312448557
151206	50	140	0	0	elephant	554	140	0	stimuli\elephant\elephant_07n.jpg	6	-1	0	0	elephant_07n.jpg	0	0	0	108.275514809095	108.325493731798	0.0499789227033034
151306	50	141	0	0	siren	1448	141	0	stimuli\siren\siren_04s.jpg	3	-1	0	0	siren_04s.jpg	0	0	0	108.375512151571	108.425495950447	0.0499837988754734
151406	50	142	0	0	hummus	812	142	0	stimuli\hummus\hummus_05s.jpg	4	-1	0	0	hummus_05s.jpg	1	0	0	108.475515833095	108.525495243404	0.0499794103088789
151506	50	143	0	0	scuba	1392	143	0	stimuli\scuba\scuba_10s.jpg	9	-1	0	0	scuba_10s.jpg	0	0	0	108.575518295576	108.625492585881	0.0499742903048173
151606	50	144	0	0	shredder	1437	144	0	stimuli\shredder\shredder_05s.jpg	4	-1	0	0	shredder_05s.jpg	0	0	0	108.675522708509	108.725506751187	0.0499840426782612
151706	50	145	0	0	hairspray	738	145	0	stimuli\hairspray\hairspray_10s.jpg	9	-1	0	0	hairspray_10s.jpg	0	0	0	108.775523708115	108.825496535603	0.0499728274880908
151806	50	146	0	0	cellphone	293	146	0	stimuli\cellphone\cellphone_05s.jpg	4	-1	0	0	cellphone_05s.jpg	0	0	0	108.875524220115	108.925503142818	0.0499789227033034
151906	50	147	0	0	gold	687	147	0	stimuli\gold\gold_03s.jpg	2	-1	0	0	gold_03s.jpg	0	0	0	108.975531071163	109.025499022449	0.049967951286817
152006	50	148	0	0	goose	693	148	0	stimuli\goose\goose_10s.jpg	9	-1	0	0	goose_10s.jpg	0	0	0	109.075529632682	109.125509286823	0.0499796541407704
152106	50	149	0	0	sombrero	1495	149	0	stimuli\sombrero\sombrero_01b.jpg	0	-1	0	0	sombrero_01b.jpg	0	0	0	109.175543797988	109.225494682643	0.049950884655118
152206	50	150	0	0	pulpit	1251	150	0	stimuli\pulpit\pulpit_08s.jpg	7	-1	0	0	pulpit_08s.jpg	0	0	0	109.275524073833	109.325502752734	0.0499786789005157
152306	50	151	0	0	floss	617	151	0	stimuli\floss\floss_09s.jpg	8	-1	0	0	floss_09s.jpg	0	0	0	109.375529705838	109.425508384709	0.0499786788714118
152406	50	152	0	0	cane	258	152	0	stimuli\cane\cane_06n.jpg	5	-1	0	1	cane_06n.jpg	0	0	0	109.475527779752	109.525508652907	0.0499808731547091
152506	50	153	0	0	ladybug	888	153	0	stimuli\ladybug\ladybug_07s.jpg	6	-1	0	0	ladybug_07s.jpg	0	0	0	109.575529998401	109.625508189667	0.0499781912658364
152606	50	154	0	0	shoulder	1431	154	0	stimuli\shoulder\shoulder_12s.jpg	11	-1	0	0	shoulder_12s.jpg	0	0	0	109.675573176995	109.725509676908	0.0499364999122918
152706	50	155	0	0	pants	1108	155	0	stimuli\pants\pants_02s.jpg	1	-1	0	0	pants_02s.jpg	1	0.341921347659081	1	109.775536630012	109.825519941282	0.049983311269898
152806	50	156	0	0	armor	37	156	0	stimuli\armor\armor_01b.jpg	0	-1	0	0	armor_01b.jpg	0	0	0	109.875537385815	109.925528498978	0.0499911131628323
152906	50	157	0	0	pig	1170	157	0	stimuli\pig\pig_07s.jpg	6	-1	0	0	pig_07s.jpg	0	0	0	109.975539604493	110.025511944346	0.0499723398534115
153006	50	158	0	0	ketchup	867	158	0	stimuli\ketchup\ketchup_09s.jpg	8	-1	0	0	ketchup_09s.jpg	0	0	0	110.075536215532	110.125519039168	0.0499828236352187
153106	50	159	0	0	chainsaw	299	159	0	stimuli\chainsaw\chainsaw_06s.jpg	5	-1	0	0	chainsaw_06s.jpg	0	0	0	110.175541847537	110.225521014043	0.0499791665060911
153206	50	160	0	0	string_cheese	1573	160	0	stimuli\string_cheese\string_cheese_07s.jpg	6	-1	0	0	string_cheese_07s.jpg	0	0	0	110.275548698555	110.325527621259	0.0499789227033034
153306	50	161	0	0	chip	333	161	0	stimuli\chip\chip_04s.jpg	3	-1	0	0	chip_04s.jpg	0	0	0	110.375546284864	110.425528864696	0.0499825798324309
153406	50	162	0	0	quad	1260	162	0	stimuli\quad\quad_08s.jpg	7	-1	0	0	quad_08s.jpg	0	0	0	110.475555086363	110.525533765263	0.0499786789005157
153506	50	163	0	0	speedometer	1512	163	0	stimuli\speedometer\speedometer_12s.jpg	11	-1	0	0	speedometer_12s.jpg	0	0	0	110.575553891686	110.625525012496	0.049971120810369
153606	50	164	0	0	thumb	1653	164	0	stimuli\thumb\thumb_02s.jpg	1	-1	0	0	thumb_02s.jpg	0	0	0	110.67555391608	110.725536008307	0.0499820922268555
153706	50	165	0	0	roulette_wheel	1335	165	0	stimuli\roulette_wheel\roulette_wheel_10s.jpg	9	-1	0	0	roulette_wheel_10s.jpg	0	0	0	110.775589780416	110.825565777399	0.0499759969825391
153806	50	166	0	0	kimono	873	166	0	stimuli\kimono\kimono_12s.jpg	11	-1	0	0	kimono_12s.jpg	0	0	0	110.875586879061	110.925542639918	0.0499557608563919
153906	50	167	0	0	album	11	167	0	stimuli\album\album_11s.jpg	10	-1	0	0	album_11s.jpg	1	0	0	110.975564473018	111.025542664283	0.0499781912658364
154006	50	168	0	0	neck	1053	168	0	stimuli\neck\neck_11s.jpg	10	-1	0	0	neck_11s.jpg	0	0	0	111.07557083643	111.125565850525	0.0499950140947476
154106	50	169	0	0	peg	1139	169	0	stimuli\peg\peg_04s.jpg	3	-1	0	0	peg_04s.jpg	0	0	0	111.175567935104	111.225549052091	0.0499811169866007
154206	50	170	0	0	pendulum	1144	170	0	stimuli\pendulum\pendulum_09s.jpg	8	-1	0	0	pendulum_09s.jpg	0	0	0	111.275572104234	111.32555127074	0.0499791665060911
154306	50	171	0	0	lobster	939	171	0	stimuli\lobster\lobster_11s.jpg	10	-1	0	0	lobster_11s.jpg	0	0	0	111.375575054321	111.425554220827	0.0499791665060911
154406	50	172	0	0	pasta	1123	172	0	stimuli\pasta\pasta_09s.jpg	8	-1	0	0	pasta_09s.jpg	0	0	0	111.475572884432	111.525554976659	0.0499820922268555
154506	50	173	0	0	violin	1764	173	0	stimuli\violin\violin_10n.jpg	9	-1	0	0	violin_10n.jpg	0	0	0	111.575578272605	111.625553538179	0.0499752655741759
154606	50	174	0	0	aluminum_foil	17	174	0	stimuli\aluminum_foil\aluminum_foil_08s.jpg	7	-1	0	0	aluminum_foil_08s.jpg	0	0	0	111.675580003648	111.725559170154	0.0499791665060911
154706	50	175	0	0	stroller	1574	175	0	stimuli\stroller\stroller_12s.jpg	11	-1	0	0	stroller_12s.jpg	0	0	0	111.775580271846	111.825580162142	0.0499998902960215
154806	50	176	0	0	propeller	1243	176	0	stimuli\propeller\propeller_03s.jpg	2	-1	0	0	propeller_03s.jpg	0	0	0	111.875603214285	111.925583843637	0.0499806293519214
154906	50	177	0	0	submarine	1577	177	0	stimuli\submarine\submarine_03s.jpg	2	-1	0	0	submarine_03s.jpg	0	0	0	111.975610065332	112.025573628052	0.0499635627202224
155006	50	178	0	0	duct	527	178	0	stimuli\duct\duct_05s.jpg	4	-1	0	0	duct_05s.jpg	0	0	0	112.075595217349	112.125571458135	0.0499762407853268
155106	50	179	0	0	kazoo	864	179	0	stimuli\kazoo\kazoo_09s.jpg	8	-1	0	0	kazoo_09s.jpg	0	0	0	112.17559670459	112.225576846336	0.0499801417463459
155206	50	180	0	0	spring_roll	1521	180	0	stimuli\spring_roll\spring_roll_04s.jpg	3	-1	0	0	spring_roll_04s.jpg	0	0	0	112.275596485153	112.325581746903	0.0499852617504075
155306	50	181	0	0	incubator	827	181	0	stimuli\incubator\incubator_08s.jpg	7	-1	0	0	incubator_08s.jpg	1	0	0	112.375598947634	112.425582015072	0.0499830674380064
155406	50	182	0	0	wrist	1842	182	0	stimuli\wrist\wrist_08s.jpg	7	-1	0	0	wrist_08s.jpg	0	0	0	112.475600191043	112.525580820424	0.0499806293810252
155506	50	183	0	0	pulley	1250	183	0	stimuli\pulley\pulley_02s.jpg	1	-1	0	0	pulley_02s.jpg	0	0	0	112.575599727803	112.625577675266	0.0499779474630486
155606	50	184	0	0	pencil_sharpener	1143	184	0	stimuli\pencil_sharpener\pencil_sharpener_08s.jpg	7	-1	0	0	pencil_sharpener_08s.jpg	1	0	0	112.675601702678	112.725585013948	0.049983311269898
155706	50	185	0	0	mango	966	185	0	stimuli\mango\mango_08s.jpg	7	-1	0	0	mango_08s.jpg	0	0	0	112.775606603245	112.825585525919	0.0499789226741996
155806	50	186	0	0	jewelry	850	186	0	stimuli\jewelry\jewelry_10s.jpg	9	-1	0	0	jewelry_10s.jpg	0	0	0	112.875611016178	112.925593839813	0.0499828236352187
155906	50	187	0	0	turkey	1733	187	0	stimuli\turkey\turkey_04s.jpg	3	-1	0	0	turkey_04s.jpg	0	0	0	112.975615672942	113.02562141465	0.0500057417084463
156006	50	188	0	0	charger	308	188	0	stimuli\charger\charger_10s.jpg	9	-1	0	0	charger_10s.jpg	0	0	0	113.075644466793	113.125608029513	0.0499635627202224
156106	50	189	0	0	cup	460	189	0	stimuli\cup\cup_07s.jpg	6	-1	0	0	cup_07s.jpg	0	0	0	113.175650586403	113.225630484347	0.0499798979435582
156206	50	190	0	0	clay	352	190	0	stimuli\clay\clay_10s.jpg	9	-1	0	0	clay_10s.jpg	0	0	0	113.275621841312	113.325601983059	0.0499801417463459
156306	50	191	0	0	t-shirt	1606	191	0	stimuli\t-shirt\t-shirt_11s.jpg	10	-1	0	0	t-shirt_11s.jpg	0	0	0	113.375622109481	113.425636140717	0.05001403123606
156406	50	192	0	0	closet	360	192	0	stimuli\closet\closet_07s.jpg	6	-1	0	0	closet_07s.jpg	0	0	0	113.475654804293	113.525632020348	0.0499772160546854
156506	50	193	0	0	harness	754	193	0	stimuli\harness\harness_05s.jpg	4	-1	0	0	harness_05s.jpg	0	0	0	113.575653853448	113.625620829494	0.0499669760465622
156606	50	194	0	0	trashcan	1704	194	0	stimuli\trashcan\trashcan_03s.jpg	2	-1	0	0	trashcan_03s.jpg	0	0	0	113.675635835942	113.725610126276	0.0499742903339211
156706	50	195	0	0	yak	1845	195	0	stimuli\yak\yak_02s.jpg	1	-1	0	0	yak_02s.jpg	1	0	0	113.77563244701	113.825608931598	0.0499764845881145
156806	50	196	0	0	flamingo	608	196	0	stimuli\flamingo\flamingo_03s.jpg	2	-1	0	0	flamingo_03s.jpg	0	0	0	113.875637347577	113.925617245492	0.0499798979144543
156906	50	197	0	0	warthog	1781	197	0	stimuli\warthog\warthog_10s.jpg	9	-1	0	0	warthog_10s.jpg	0	0	0	113.975638590986	114.025612393714	0.0499738027283456
157006	50	198	0	0	belt_buckle	119	198	0	stimuli\belt_buckle\belt_buckle_07s.jpg	6	-1	0	0	belt_buckle_07s.jpg	0	0	0	114.075639346789	114.125622658059	0.049983311269898
157106	50	199	0	0	swimsuit	1597	199	0	stimuli\swimsuit\swimsuit_01b.jpg	0	-1	0	0	swimsuit_01b.jpg	0	0	0	114.175642053073	114.22561756245	0.0499755093769636
157206	50	200	0	0	brake	191	200	0	stimuli\brake\brake_05s.jpg	4	-1	0	0	brake_05s.jpg	0	0	0	114.275655243167	114.325633678236	0.0499784350686241
157306	50	201	0	0	tuxedo	1738	201	0	stimuli\tuxedo\tuxedo_10s.jpg	9	-1	0	0	tuxedo_10s.jpg	0	0	0	114.375657218014	114.425640773086	0.0499835550726857
157406	50	202	0	0	sticker	1553	202	0	stimuli\sticker\sticker_11s.jpg	10	-1	0	0	sticker_11s.jpg	0	0	0	114.475666994753	114.525661521242	0.0499945264891721
157506	50	203	0	0	panther	1106	203	0	stimuli\panther\panther_12s.jpg	11	-1	0	0	panther_12s.jpg	0	0	0	114.575666531513	114.625640578044	0.0499740465311334
157606	50	204	0	0	sparkler	1507	204	0	stimuli\sparkler\sparkler_02s.jpg	1	-1	0	0	sparkler_02s.jpg	0	0	0	114.675670700643	114.725648404303	0.0499777036602609
157706	50	205	0	0	clove	365	205	0	stimuli\clove\clove_09s.jpg	8	-1	0	0	clove_09s.jpg	0	0	0	114.775670237432	114.825649160106	0.0499789226741996
157806	50	206	0	0	oil	1072	206	0	stimuli\oil\oil_07s.jpg	6	-1	0	0	oil_07s.jpg	0	0	0	114.875672943686	114.925675759703	0.0500028160167858
157906	50	207	0	0	chariot	309	207	0	stimuli\chariot\chariot_08s.jpg	7	-1	0	0	chariot_08s.jpg	0	0	0	114.975693448039	115.025654816476	0.0499613684369251
158006	50	208	0	0	crank	432	208	0	stimuli\crank\crank_12s.jpg	11	-1	0	0	crank_12s.jpg	0	0	0	115.075677624845	115.12565752276	0.0499798979144543
158106	50	209	0	0	eagle	537	209	0	stimuli\eagle\eagle_12s.jpg	11	-1	0	0	eagle_12s.jpg	1	0	0	115.175679112057	115.225659010001	0.0499798979435582
158206	50	210	0	0	bok_choy	156	210	0	stimuli\bok_choy\bok_choy_06s.jpg	5	-1	0	0	bok_choy_06s.jpg	0	0	0	115.275679380255	115.325661228679	0.0499818484240677
158306	50	211	0	0	chipmunk	334	211	0	stimuli\chipmunk\chipmunk_02n.jpg	1	-1	0	0	chipmunk_02n.jpg	0	0	0	115.375681598933	115.425659790199	0.0499781912658364
158406	50	212	0	0	piggy_bank	1172	212	0	stimuli\piggy_bank\piggy_bank_06s.jpg	5	-1	0	0	piggy_bank_06s.jpg	0	0	0	115.475686987105	115.525665422174	0.0499784350686241
158506	50	213	0	0	shorts	1430	213	0	stimuli\shorts\shorts_03s.jpg	2	-1	0	0	shorts_03s.jpg	0	0	0	115.575685304822	115.625663252285	0.0499779474630486
158606	50	214	0	0	tea	1631	214	0	stimuli\tea\tea_02s.jpg	1	-1	0	0	tea_02s.jpg	0	0	0	115.675689230149	115.725670347136	0.0499811169866007
158706	50	215	0	0	dandelion	472	215	0	stimuli\dandelion\dandelion_06s.jpg	5	-1	0	0	dandelion_06s.jpg	0	0	0	115.775690473587	115.825672565785	0.0499820921977516
158806	50	216	0	0	cape	266	216	0	stimuli\cape\cape_11s.jpg	10	-1	0	0	cape_11s.jpg	0	0	0	115.875695374154	115.925677222549	0.0499818483949639
158906	50	217	0	0	flip_flop	614	217	0	stimuli\flip_flop\flip_flop_09s.jpg	8	-1	0	0	flip_flop_09s.jpg	0	0	0	115.975701737567	116.025677734549	0.0499759969825391
159006	50	218	0	0	bulletin_board	217	218	0	stimuli\bulletin_board\bulletin_board_05s.jpg	4	-1	0	0	bulletin_board_05s.jpg	0	0	0	116.07570054289	116.125678002747	0.0499774598574731
159106	50	219	0	0	plug	1202	219	0	stimuli\plug\plug_06s.jpg	5	-1	0	0	plug_06s.jpg	0	0	0	116.175703249173	116.225678270916	0.0499750217422843
159206	50	220	0	0	headlight	765	220	0	stimuli\headlight\headlight_02s.jpg	1	-1	0	0	headlight_02s.jpg	0	0	0	116.275708637346	116.325687560049	0.0499789227033034
159306	50	221	0	0	birthday_cake	132	221	0	stimuli\birthday_cake\birthday_cake_09s.jpg	8	-1	0	0	birthday_cake_09s.jpg	0	0	0	116.375709880784	116.425688559684	0.0499786789005157
159406	50	222	0	0	hail	732	222	0	stimuli\hail\hail_12s.jpg	11	-1	0	0	hail_12s.jpg	0	0	0	116.475712587067	116.525695898337	0.049983311269898
159506	50	223	0	0	gift	672	223	0	stimuli\gift\gift_12s.jpg	11	-1	0	0	gift_12s.jpg	1	0	0	116.57571895048	116.6256956789	0.0499767284200061
159606	50	224	0	0	urn	1749	224	0	stimuli\urn\urn_11s.jpg	10	-1	0	0	urn_11s.jpg	0	0	0	116.675721900567	116.725699604227	0.0499777036602609
159706	50	225	0	0	potpie	1234	225	0	stimuli\potpie\potpie_11s.jpg	10	-1	0	0	potpie_11s.jpg	0	0	0	116.775720705919	116.825692070532	0.0499713646131568
159806	50	226	0	0	egg	546	226	0	stimuli\egg\egg_09s.jpg	8	-1	0	0	egg_09s.jpg	0	0	0	116.875719267438	116.925708673924	0.0499894064851105
159906	50	227	0	0	gravy	711	227	0	stimuli\gravy\gravy_10s.jpg	9	-1	0	0	gravy_10s.jpg	0	0	0	116.975726849894	117.025704065949	0.0499772160546854
160006	50	228	0	0	smoke_alarm	1473	228	0	stimuli\smoke_alarm\smoke_alarm_09s.jpg	8	-1	0	0	smoke_alarm_09s.jpg	0	0	0	117.075727849529	117.125708966487	0.0499811169574969
160106	50	229	0	0	clam	349	229	0	stimuli\clam\clam_03s.jpg	2	-1	0	0	clam_03s.jpg	0	0	0	117.175734700548	117.225708503276	0.0499738027283456
160206	50	230	0	0	whistle	1812	230	0	stimuli\whistle\whistle_04s.jpg	3	-1	0	0	whistle_04s.jpg	0	0	0	117.275733018265	117.325712916208	0.0499798979435582
160306	50	231	0	0	train_car	1699	231	0	stimuli\train_car\train_car_05s.jpg	4	-1	0	0	train_car_05s.jpg	0	0	0	117.375735724549	117.425720254862	0.0499845303129405
160406	50	232	0	0	jack	835	232	0	stimuli\jack\jack_07s.jpg	6	-1	0	0	jack_07s.jpg	0	0	0	117.475742819399	117.525717353536	0.0499745341367088
160506	50	233	0	0	napkin	1050	233	0	stimuli\napkin\napkin_03s.jpg	2	-1	0	0	napkin_03s.jpg	0	0	0	117.575740893313	117.625738833129	0.0499979398155119
160606	50	234	0	0	jalapeno	838	234	0	stimuli\jalapeno\jalapeno_07s.jpg	6	-1	0	0	jalapeno_07s.jpg	0	0	0	117.675764567161	117.725743489864	0.0499789227033034
160706	50	235	0	0	spool	1518	235	0	stimuli\spool\spool_08s.jpg	7	-1	0	0	spool_08s.jpg	0	0	0	117.775763616315	117.825727910473	0.0499642941576894
160806	50	236	0	0	oar	1068	236	0	stimuli\oar\oar_07s.jpg	6	-1	0	0	oar_07s.jpg	0	0	0	117.875758276903	117.925729885319	0.0499716084159445
160906	50	237	0	0	water_fountain	1790	237	0	stimuli\water_fountain\water_fountain_10s.jpg	9	-1	0	0	water_fountain_10s.jpg	0	0	0	117.975748548924	118.025722839229	0.0499742903048173
161006	50	238	0	0	ankle	22	238	0	stimuli\ankle\ankle_11s.jpg	10	-1	0	0	ankle_11s.jpg	1	0	0	118.075747354247	118.125730665517	0.049983311269898
161106	50	239	0	0	eraser	559	239	0	stimuli\eraser\eraser_10s.jpg	9	-1	0	0	eraser_10s.jpg	0	0	0	118.175757374818	118.22573044608	0.0499730712617747
161206	50	240	0	0	lamb	889	240	0	stimuli\lamb\lamb_01b.jpg	0	-1	0	0	lamb_01b.jpg	0	0	0	118.275751547772	118.325755826605	0.0500042788335122
161306	50	241	0	0	squid	1528	241	0	stimuli\squid\squid_10s.jpg	9	-1	0	0	squid_10s.jpg	0	0	0	118.375756448339	118.42574366054	0.0499872122018132
161406	50	242	0	0	baton2	93	242	0	stimuli\baton2\baton2_01s.jpg	0	-1	0	0	baton2_01s.jpg	0	0	0	118.475757691747	118.525737102085	0.0499794103379827
161506	50	243	0	0	pet_food	1157	243	0	stimuli\pet_food\pet_food_03s.jpg	2	-1	0	0	pet_food_03s.jpg	0	0	0	118.575764298992	118.625744684541	0.0499803855491336
161606	50	244	0	0	dryer	524	244	0	stimuli\dryer\dryer_11s.jpg	10	-1	0	0	dryer_11s.jpg	0	0	0	118.675792849041	118.725753242237	0.0499603931966703
161706	50	245	0	0	iceskate	823	245	0	stimuli\iceskate\iceskate_10s.jpg	9	-1	0	0	iceskate_10s.jpg	0	0	0	118.775772149645	118.825749853306	0.0499777036602609
161806	50	246	0	0	espresso	560	246	0	stimuli\espresso\espresso_10s.jpg	9	-1	0	0	espresso_10s.jpg	0	0	0	118.87577022356	118.925754753844	0.0499845302838366
161906	50	247	0	0	boxing_gloves	183	247	0	stimuli\boxing_gloves\boxing_gloves_11s.jpg	10	-1	0	0	boxing_gloves_11s.jpg	0	0	0	118.975806575501	119.025760873454	0.049954297952354
162006	50	248	0	0	crib	441	248	0	stimuli\crib\crib_10s.jpg	9	-1	0	0	crib_10s.jpg	0	0	0	119.075784169429	119.125779671158	0.0499955017294269
162106	50	249	0	0	fig	581	249	0	stimuli\fig\fig_09n.jpg	8	-1	0	0	fig_09n.jpg	0	0	0	119.175782243343	119.225761897455	0.0499796541116666
162206	50	250	0	0	chinchilla	332	250	0	stimuli\chinchilla\chinchilla_06s.jpg	5	-1	0	0	chinchilla_06s.jpg	0	0	0	119.275777147734	119.325761678047	0.0499845303129405
162306	50	251	0	0	headphones	766	251	0	stimuli\headphones\headphones_01b.jpg	0	-1	0	0	headphones_01b.jpg	0	0	0	119.375803259696	119.425761214807	0.0499579551105853
162406	50	252	0	0	cash_machine	279	252	0	stimuli\cash_machine\cash_machine_09s.jpg	8	-1	0	0	cash_machine_09s.jpg	0	0	0	119.475790605997	119.525768797263	0.0499781912658364
162506	50	253	0	0	ship	1421	253	0	stimuli\ship\ship_04s.jpg	3	-1	0	0	ship_04s.jpg	0	0	0	119.575791117997	119.625765652134	0.0499745341367088
162606	50	254	0	0	scorpion	1384	254	0	stimuli\scorpion\scorpion_01b.jpg	0	-1	0	0	scorpion_01b.jpg	0	0	0	119.675798700453	119.725773722195	0.0499750217422843
162706	50	255	0	0	rollerblade	1326	255	0	stimuli\rollerblade\rollerblade_10s.jpg	9	-1	0	0	rollerblade_10s.jpg	0	0	0	119.77579043532	119.825768870418	0.0499784350977279
162806	50	256	0	0	lanyard	896	256	0	stimuli\lanyard\lanyard_01b.jpg	0	-1	0	0	lanyard_01b.jpg	0	0	0	119.875794848282	119.925775965239	0.0499811169574969
162906	50	257	0	0	veil	1755	257	0	stimuli\veil\veil_12s.jpg	11	-1	0	0	veil_12s.jpg	0	0	0	119.975799017411	120.025772576308	0.0499735588964541
163006	50	258	0	0	bumper	219	258	0	stimuli\bumper\bumper_10s.jpg	9	-1	0	0	bumper_10s.jpg	0	0	0	120.075801479863	120.125779427326	0.0499779474630486
163106	50	259	0	0	stereo	1549	259	0	stimuli\stereo\stereo_10s.jpg	9	-1	0	0	stereo_10s.jpg	1	0	0	120.175803942344	120.225778964115	0.0499750217713881
163206	50	260	0	0	gem	670	260	0	stimuli\gem\gem_10s.jpg	9	-1	0	0	gem_10s.jpg	0	0	0	120.275806648628	120.325791910378	0.0499852617504075
163306	50	261	0	0	seed	1401	261	0	stimuli\seed\seed_12s.jpg	11	-1	0	0	seed_12s.jpg	0	0	0	120.375811792997	120.425788033812	0.0499762408144306
163406	50	262	0	0	dumpling	532	262	0	stimuli\dumpling\dumpling_06s.jpg	5	-1	0	0	dumpling_06s.jpg	0	0	0	120.475809379306	120.525787326769	0.0499779474630486
163506	50	263	0	0	pencil	1142	263	0	stimuli\pencil\pencil_04s.jpg	3	-1	0	0	pencil_04s.jpg	0	0	0	120.575811841758	120.625792958745	0.0499811169866007
163606	50	264	0	0	sushi	1588	264	0	stimuli\sushi\sushi_05s.jpg	4	-1	0	0	sushi_05s.jpg	0	0	0	120.675817961368	120.725796396466	0.0499784350977279
163706	50	265	0	0	machine_gun	954	265	0	stimuli\machine_gun\machine_gun_11s.jpg	10	-1	0	0	machine_gun_11s.jpg	0	0	0	120.77581774196	120.825811780815	0.0499940388544928
163806	50	266	0	0	otter	1085	266	0	stimuli\otter\otter_07n.jpg	6	-1	0	0	otter_07n.jpg	0	0	0	120.875818253931	120.925788887136	0.0499706332047936
163906	50	267	0	0	television	1641	267	0	stimuli\television\television_06s.jpg	5	-1	0	0	television_06s.jpg	0	0	0	120.975815108803	121.02579256866	0.0499774598574731
164006	50	268	0	0	bowtie	180	268	0	stimuli\bowtie\bowtie_02s.jpg	1	-1	0	0	bowtie_02s.jpg	0	0	0	121.075814889366	121.125790642574	0.0499757532088552
164106	50	269	0	0	crown	448	269	0	stimuli\crown\crown_03s.jpg	2	-1	0	0	crown_03s.jpg	0	0	0	121.175848803221	121.225830407842	0.04998160462128
164206	50	270	0	0	ski	1452	270	0	stimuli\ski\ski_07s.jpg	6	-1	0	0	ski_07s.jpg	0	0	0	121.275845901895	121.325825312233	0.0499794103379827
164306	50	271	0	0	bobsled	155	271	0	stimuli\bobsled\bobsled_03s.jpg	2	-1	0	0	bobsled_03s.jpg	0	0	0	121.375846657698	121.425827774685	0.0499811169866007
164406	50	272	0	0	magnifier	957	272	0	stimuli\magnifier\magnifier_07s.jpg	6	-1	0	0	magnifier_07s.jpg	0	0	0	121.475825958303	121.525803661963	0.0499777036602609
164506	50	273	0	0	fruit	645	273	0	stimuli\fruit\fruit_05s.jpg	4	-1	0	0	fruit_05s.jpg	0	0	0	121.575825738895	121.625817339664	0.0499916007684078
164606	50	274	0	0	swordfish	1603	274	0	stimuli\swordfish\swordfish_07s.jpg	6	-1	0	0	swordfish_07s.jpg	0	0	0	121.675832833746	121.725815901184	0.0499830674380064
164706	50	275	0	0	stilt	1555	275	0	stimuli\stilt\stilt_02s.jpg	1	-1	0	0	stilt_02s.jpg	0	0	0	121.775832370506	121.825810561772	0.0499781912658364
164806	50	276	0	0	snow	1479	276	0	stimuli\snow\snow_05s.jpg	4	-1	0	0	snow_05s.jpg	0	0	0	121.875836052001	121.925813999464	0.0499779474630486
164906	50	277	0	0	totem_pole	1689	277	0	stimuli\totem_pole\totem_pole_07s.jpg	6	-1	0	0	totem_pole_07s.jpg	1	0	0	121.975838270679	122.025815242901	0.0499769722227938
165006	50	278	0	0	wetsuit	1803	278	0	stimuli\wetsuit\wetsuit_08s.jpg	7	-1	0	0	wetsuit_08s.jpg	0	0	0	122.075839757919	122.125822581555	0.0499828236352187
165106	50	279	0	0	hand	744	279	0	stimuli\hand\hand_09s.jpg	8	-1	0	0	hand_09s.jpg	0	0	0	122.175843195611	122.225815047859	0.0499718522478361
165206	50	280	0	0	pan	1103	280	0	stimuli\pan\pan_02s.jpg	1	-1	0	0	pan_02s.jpg	0	0	0	122.275841513328	122.325821167469	0.0499796541407704
165306	50	281	0	0	ribbon	1308	281	0	stimuli\ribbon\ribbon_06s.jpg	5	-1	0	0	ribbon_06s.jpg	0	0	0	122.375849583419	122.425833869929	0.0499842865101527
165406	50	282	0	0	mirror	1005	282	0	stimuli\mirror\mirror_12s.jpg	11	-1	0	0	mirror_12s.jpg	0	0	0	122.475848876376	122.525829261926	0.0499803855491336
165506	50	283	0	0	ostrich	1084	283	0	stimuli\ostrich\ostrich_07s.jpg	6	-1	0	0	ostrich_07s.jpg	0	0	0	122.57584963218	122.625827823445	0.0499781912658364
165606	50	284	0	0	mulch	1038	284	0	stimuli\mulch\mulch_05s.jpg	4	-1	0	0	mulch_05s.jpg	0	0	0	122.675854045141	122.725832724012	0.0499786788714118
165706	50	285	0	0	hinge	779	285	0	stimuli\hinge\hinge_10s.jpg	9	-1	0	0	hinge_10s.jpg	0	0	0	122.775854800944	122.825830554124	0.0499757531797513
165806	50	286	0	0	iguana	825	286	0	stimuli\iguana\iguana_06s.jpg	5	-1	0	0	iguana_06s.jpg	0	0	0	122.875860189117	122.925841793709	0.0499816045921762
165906	50	287	0	0	scrabble	1385	287	0	stimuli\scrabble\scrabble_07s.jpg	6	-1	0	0	scrabble_07s.jpg	0	0	0	122.975863383006	123.025867661869	0.050004278862616
166006	50	288	0	0	footbath	631	288	0	stimuli\footbath\footbath_10s.jpg	9	-1	0	0	footbath_10s.jpg	0	0	0	123.075890957844	123.125852570083	0.0499616122397128
166106	50	289	0	0	lingerie	932	289	0	stimuli\lingerie\lingerie_01b.jpg	0	-1	0	0	lingerie_01b.jpg	0	0	0	123.175865138444	123.225841623062	0.0499764846172184
166206	50	290	0	0	stew	1551	290	0	stimuli\stew\stew_06s.jpg	5	-1	0	0	stew_06s.jpg	0	0	0	123.275884667557	123.325876024523	0.0499913569656201
166306	50	291	0	0	asparagus	42	291	0	stimuli\asparagus\asparagus_11s.jpg	10	-1	0	0	asparagus_11s.jpg	0	0	0	123.375876158621	123.42585361845	0.0499774598283693
166406	50	292	0	0	mussel	1042	292	0	stimuli\mussel\mussel_09s.jpg	8	-1	0	0	mussel_09s.jpg	0	0	0	123.475875207747	123.525856080931	0.0499808731838129
166506	50	293	0	0	roller	1324	293	0	stimuli\roller\roller_03s.jpg	2	-1	0	0	roller_03s.jpg	0	0	0	123.575864016922	123.625860737695	0.0499967207724694
166606	50	294	0	0	comb	389	294	0	stimuli\comb\comb_01b.jpg	0	-1	0	0	comb_01b.jpg	0	0	0	123.675892323168	123.725856617326	0.0499642941576894
166706	50	295	0	0	saffron	1345	295	0	stimuli\saffron\saffron_03s.jpg	2	-1	0	0	saffron_03s.jpg	0	0	0	123.775880157074	123.825861030258	0.0499808731838129
166806	50	296	0	0	turtleneck	1737	296	0	stimuli\turtleneck\turtleneck_08s.jpg	7	-1	0	0	turtleneck_08s.jpg	1	0	0	123.875888958602	123.925867881306	0.0499789227033034
166906	50	297	0	0	arch	35	297	0	stimuli\arch\arch_07s.jpg	6	-1	0	0	arch_07s.jpg	0	0	0	123.97588825156	124.025867174263	0.0499789227033034
167006	50	298	0	0	bottle	170	298	0	stimuli\bottle\bottle_12s.jpg	11	-1	0	0	bottle_12s.jpg	0	0	0	124.075891933055	124.125876463368	0.0499845303129405
167106	50	299	0	0	humvee	813	299	0	stimuli\humvee\humvee_04s.jpg	3	-1	0	0	humvee_04s.jpg	0	0	0	124.175922433584	124.225884777261	0.0499623436771799
167206	50	300	0	0	zebra	1851	300	0	stimuli\zebra\zebra_10s.jpg	9	-1	0	0	zebra_10s.jpg	0	0	0	124.275909779884	124.325900405442	0.0499906255572569
167306	50	301	0	0	staple	1537	301	0	stimuli\staple\staple_08s.jpg	7	-1	0	0	staple_08s.jpg	0	0	0	124.375923213782	124.425905549811	0.0499823360296432
167406	50	302	0	0	handkerchief	747	302	0	stimuli\handkerchief\handkerchief_06s.jpg	5	-1	0	0	handkerchief_06s.jpg	0	0	0	124.475928114349	124.525905330374	0.0499772160255816
167506	50	303	0	0	sledgehammer	1461	303	0	stimuli\sledgehammer\sledgehammer_11s.jpg	10	-1	0	0	sledgehammer_11s.jpg	0	0	0	124.575927651109	124.625908036658	0.0499803855491336
167606	50	304	0	0	blackberry	135	304	0	stimuli\blackberry\blackberry_06s.jpg	5	-1	0	0	blackberry_06s.jpg	0	0	0	124.675932064041	124.725910742942	0.0499786789005157
167706	50	305	0	0	pineapple	1182	305	0	stimuli\pineapple\pineapple_07s.jpg	6	-1	0	0	pineapple_07s.jpg	0	0	0	124.775932819874	124.825913693028	0.0499808731547091
167806	50	306	0	0	antelope	26	306	0	stimuli\antelope\antelope_04n.jpg	3	-1	0	0	antelope_04n.jpg	0	0	0	124.875919922342	124.925888361264	0.0499684389214963
167906	50	307	0	0	feather	574	307	0	stimuli\feather\feather_08s.jpg	7	-1	0	0	feather_08s.jpg	0	0	0	124.975907268672	125.025884972303	0.0499777036311571
168006	50	308	0	0	cream_cheese	437	308	0	stimuli\cream_cheese\cream_cheese_12s.jpg	11	-1	0	0	cream_cheese_12s.jpg	0	0	0	125.07591314445	125.125897674763	0.0499845303129405
197074	50	309	0	0	donkey	504	0	1	stimuli\donkey\donkey_07s.jpg	6	-1	1	0	donkey_07s.jpg	1	0	0	154.143310279556	154.193280912761	0.0499706332047936
197174	50	310	0	0	towel_rack	1693	1	1	stimuli\towel_rack\towel_rack_03s.jpg	2	-1	1	0	towel_rack_03s.jpg	0	0	0	154.243313473446	154.293281912367	0.0499684389214963
197274	50	311	0	0	caterpillar	286	2	1	stimuli\caterpillar\caterpillar_12s.jpg	11	-1	1	0	caterpillar_12s.jpg	0	0	0	154.343309109274	154.393284862454	0.0499757531797513
197374	50	312	0	0	sled	1460	3	1	stimuli\sled\sled_11s.jpg	10	-1	1	0	sled_11s.jpg	0	0	0	154.443309133669	154.493290250626	0.0499811169574969
197474	50	313	0	0	rocking_chair	1321	4	1	stimuli\rocking_chair\rocking_chair_06s.jpg	5	-1	1	0	rocking_chair_06s.jpg	0	0	0	154.543314034207	154.593294663588	0.0499806293810252
197574	50	314	0	0	frisbee	643	5	1	stimuli\frisbee\frisbee_11s.jpg	10	-1	1	0	frisbee_11s.jpg	0	0	0	154.643314790039	154.693290543219	0.0499757531797513
197674	50	315	0	0	trailer	1697	6	1	stimuli\trailer\trailer_10s.jpg	9	-1	1	0	trailer_10s.jpg	0	0	0	154.743320178211	154.79329958852	0.0499794103088789
197774	50	316	0	0	tripod	1714	7	1	stimuli\tripod\tripod_10s.jpg	9	-1	1	0	tripod_10s.jpg	0	0	0	154.843324591144	154.893293517671	0.0499689265270717
197874	50	317	0	0	dalmatian	471	8	1	stimuli\dalmatian\dalmatian_08s.jpg	7	-1	1	0	dalmatian_08s.jpg	0	0	0	154.94335484787	154.993344010552	0.0499891626823228
197974	50	318	0	0	slipper	1468	9	1	stimuli\slipper\slipper_02s.jpg	1	-1	1	0	slipper_02s.jpg	0	0	0	155.043339999887	155.093323067355	0.0499830674671102
198074	50	319	0	0	ski_boots	1453	10	1	stimuli\ski_boots\ski_boots_05s.jpg	4	-1	1	0	ski_boots_05s.jpg	0	0	0	155.143343437609	155.193318703154	0.049975265545072
198174	50	320	0	0	lemon	914	11	1	stimuli\lemon\lemon_08s.jpg	7	-1	1	0	lemon_08s.jpg	0	0	0	155.243340536283	155.29334895988	0.0500084235973191
198274	50	321	0	0	eye	564	12	1	stimuli\eye\eye_04s.jpg	3	-1	1	0	eye_04s.jpg	0	0	0	155.34336616061	155.393328991922	0.0499628313118592
198374	50	322	0	0	stingray	1556	13	1	stimuli\stingray\stingray_12s.jpg	11	-1	1	0	stingray_12s.jpg	0	0	0	155.443349605979	155.493331698177	0.0499820921977516
198474	50	323	0	0	tumbleweed	1727	14	1	stimuli\tumbleweed\tumbleweed_12s.jpg	11	-1	1	0	tumbleweed_12s.jpg	0	0	0	155.543372548418	155.593337573984	0.0499650255660526
198574	50	324	0	0	key	869	15	1	stimuli\key\key_08s.jpg	7	-1	1	0	key_08s.jpg	0	0	0	155.643354287109	155.693333941221	0.0499796541116666
198674	50	325	0	0	scone	1380	16	1	stimuli\scone\scone_07s.jpg	6	-1	1	0	scone_07s.jpg	0	0	0	155.743376254308	155.793340304663	0.0499640503549017
198774	50	326	0	0	spur	1525	17	1	stimuli\spur\spur_08s.jpg	7	-1	1	0	spur_08s.jpg	0	0	0	155.84335531111	155.893331308092	0.0499759969825391
198874	50	327	0	0	nail_file	1048	18	1	stimuli\nail_file\nail_file_02s.jpg	1	-1	1	0	nail_file_02s.jpg	0	0	0	155.943356798351	155.993343279115	0.0499864807643462
198974	50	328	0	0	christmas_tree	341	19	1	stimuli\christmas_tree\christmas_tree_09s.jpg	8	-1	1	1	christmas_tree_09s.jpg	0	0	0	156.04336194272	156.093343791115	0.0499818483949639
199074	50	329	0	0	eggnog	549	20	1	stimuli\eggnog\eggnog_01b.jpg	0	-1	1	0	eggnog_01b.jpg	0	0	0	156.143365868047	156.193343084073	0.0499772160255816
199174	50	330	0	0	jewel	849	21	1	stimuli\jewel\jewel_02s.jpg	1	-1	1	0	jewel_02s.jpg	0	0	0	156.24337223146	156.293357005576	0.0499847741157282
199274	50	331	0	0	cash_register	280	22	1	stimuli\cash_register\cash_register_06s.jpg	5	-1	1	0	cash_register_06s.jpg	0	0	0	156.343367867288	156.393346789962	0.0499789226741996
199374	50	332	0	0	moss	1022	23	1	stimuli\moss\moss_05s.jpg	4	-1	1	0	moss_05s.jpg	0	0	0	156.443371548783	156.493356566731	0.0499850179476198
199474	50	333	0	0	punch1	1254	24	1	stimuli\punch1\punch1_07s.jpg	6	-1	1	0	punch1_07s.jpg	1	0.541955285880249	1	156.54340375599	156.593355372053	0.0499516160634812
199574	50	334	0	0	dogfood	496	25	1	stimuli\dogfood\dogfood_12s.jpg	11	-1	1	0	dogfood_12s.jpg	0	0	0	156.643373548024	156.69338002117	0.0500064731459133
199674	50	335	0	0	puppet	1257	26	1	stimuli\puppet\puppet_02s.jpg	1	-1	1	0	puppet_02s.jpg	0	0	0	156.743381374312	156.793364197947	0.0499828236352187
199774	50	336	0	0	extinguisher	563	27	1	stimuli\extinguisher\extinguisher_02s.jpg	1	-1	1	0	extinguisher_02s.jpg	0	0	0	156.843384324398	156.893356420449	0.0499720960506238
199874	50	337	0	0	marble	972	28	1	stimuli\marble\marble_04s.jpg	3	-1	1	0	marble_04s.jpg	0	0	0	156.943389224965	156.993386433343	0.0499972083780449
199974	50	338	0	0	bikini	124	29	1	stimuli\bikini\bikini_06s.jpg	5	-1	1	0	bikini_06s.jpg	0	0	0	157.043391931249	157.093362564425	0.0499706331756897
200074	50	339	0	0	onion	1077	30	1	stimuli\onion\onion_04s.jpg	3	-1	1	0	onion_04s.jpg	0	0	0	157.143388786091	157.193366733554	0.0499779474630486
200174	50	340	0	0	prism	1241	31	1	stimuli\prism\prism_02s.jpg	1	-1	1	0	prism_02s.jpg	0	0	0	157.243390760967	157.293377485534	0.0499867245671339
200274	50	341	0	0	silverware	1445	32	1	stimuli\silverware\silverware_12s.jpg	11	-1	1	0	silverware_12s.jpg	0	0	0	157.34339151677	157.393368001358	0.0499764845881145
200374	50	342	0	0	grits	717	33	1	stimuli\grits\grits_06s.jpg	5	-1	1	0	grits_06s.jpg	0	0	0	157.443399343028	157.493381435255	0.0499820922268555
200474	50	343	0	0	mulberry	1037	34	1	stimuli\mulberry\mulberry_08s.jpg	7	-1	1	0	mulberry_08s.jpg	0	0	0	157.543401317904	157.593374389166	0.0499730712617747
200574	50	344	0	0	beet	114	35	1	stimuli\beet\beet_10s.jpg	9	-1	1	0	beet_10s.jpg	0	0	0	157.643404024158	157.693382703059	0.0499786789005157
200674	50	345	0	0	pumpkin	1253	36	1	stimuli\pumpkin\pumpkin_11s.jpg	10	-1	1	0	pumpkin_11s.jpg	0	0	0	157.743423065665	157.793406133133	0.0499830674671102
200774	50	346	0	0	lime	930	37	1	stimuli\lime\lime_08s.jpg	7	-1	1	0	lime_08s.jpg	0	0	0	157.843432110996	157.893407376541	0.049975265545072
200874	50	347	0	0	fireworks	598	38	1	stimuli\fireworks\fireworks_09s.jpg	8	-1	1	0	fireworks_09s.jpg	0	0	0	157.943429697276	157.993394966674	0.0499652693979442
200974	50	348	0	0	sheath	1413	39	1	stimuli\sheath\sheath_12s.jpg	11	-1	1	0	sheath_12s.jpg	0	0	0	158.043417775014	158.09338840819	0.0499706331756897
201074	50	349	0	0	filter	587	40	1	stimuli\filter\filter_02s.jpg	1	-1	1	0	filter_02s.jpg	0	0	0	158.14341219177	158.193392333516	0.0499801417463459
201174	50	350	0	0	skeleton	1450	41	1	stimuli\skeleton\skeleton_07s.jpg	6	-1	1	0	skeleton_07s.jpg	0	0	0	158.243419042818	158.293400403607	0.0499813607893884
201274	50	351	0	0	raccoon	1266	42	1	stimuli\raccoon\raccoon_12n.jpg	11	-1	1	0	raccoon_12n.jpg	0	0	0	158.343420530058	158.393394332757	0.0499738026992418
201374	50	352	0	0	appetizer	29	43	1	stimuli\appetizer\appetizer_11s.jpg	10	-1	1	0	appetizer_11s.jpg	0	0	0	158.44342299251	158.493403865694	0.0499808731838129
201474	50	353	0	0	stockings	1559	44	1	stimuli\stockings\stockings_09s.jpg	8	-1	1	0	stockings_09s.jpg	0	0	0	158.543431550235	158.593404621497	0.0499730712617747
201574	50	354	0	0	sandbag	1353	45	1	stimuli\sandbag\sandbag_12s.jpg	11	-1	1	0	sandbag_12s.jpg	0	0	0	158.643428405077	158.693430002022	0.0500015969446395
201674	50	355	0	0	retainer	1303	46	1	stimuli\retainer\retainer_02s.jpg	1	-1	1	0	retainer_02s.jpg	0	0	0	158.743452566559	158.793418811198	0.049966244638199
201774	50	356	0	0	notepad	1065	47	1	stimuli\notepad\notepad_01b.jpg	0	-1	1	0	notepad_01b.jpg	0	0	0	158.843432842405	158.893413959391	0.0499811169866007
201874	50	357	0	0	piano	1165	48	1	stimuli\piano\piano_07n.jpg	6	-1	1	0	piano_07n.jpg	0	0	0	158.943439693452	158.993417397112	0.0499777036602609
201974	50	358	0	0	whipped_cream	1810	49	1	stimuli\whipped_cream\whipped_cream_09s.jpg	8	-1	1	0	whipped_cream_09s.jpg	0	0	0	159.043443374976	159.093417665281	0.0499742903048173
202074	50	359	0	0	baby	46	50	1	stimuli\baby\baby_10s.jpg	9	-1	1	0	baby_10s.jpg	0	0	0	159.143438279367	159.193439876311	0.0500015969446395
202174	50	360	0	0	cigar	343	51	1	stimuli\cigar\cigar_11s.jpg	10	-1	1	0	cigar_11s.jpg	0	0	0	159.243469023699	159.293425028329	0.0499560046300758
202274	50	361	0	0	ticktacktoe	1657	52	1	stimuli\ticktacktoe\ticktacktoe_02s.jpg	1	-1	1	0	ticktacktoe_02s.jpg	0	0	0	159.343446373823	159.393424808892	0.0499784350686241
202374	50	362	0	0	dial	483	53	1	stimuli\dial\dial_10s.jpg	9	-1	1	0	dial_10s.jpg	0	0	0	159.44345029915	159.493423126609	0.049972827458987
202474	50	363	0	0	coin	385	54	1	stimuli\coin\coin_09s.jpg	8	-1	1	0	coin_09s.jpg	0	0	0	159.543448129232	159.59342558909	0.0499774598574731
202574	50	364	0	0	jeep	843	55	1	stimuli\jeep\jeep_08s.jpg	7	-1	1	0	jeep_08s.jpg	0	0	0	159.643449860276	159.693437072507	0.0499872122309171
202674	50	365	0	0	blanket	136	56	1	stimuli\blanket\blanket_06s.jpg	5	-1	1	0	blanket_06s.jpg	0	0	0	159.743456955126	159.793431001657	0.0499740465311334
202774	50	366	0	0	peach	1129	57	1	stimuli\peach\peach_08s.jpg	7	-1	1	0	peach_08s.jpg	0	0	0	159.843455760478	159.893432001263	0.0499762407853268
202874	50	367	0	0	clothes	361	58	1	stimuli\clothes\clothes_04s.jpg	3	-1	1	0	clothes_04s.jpg	0	0	0	159.943455541041	159.993442997074	0.0499874560337048
202974	50	368	0	0	ball	59	59	1	stimuli\ball\ball_03s.jpg	2	-1	1	0	ball_03s.jpg	0	0	0	160.04346531778	160.0934420462	0.0499767284200061
203074	50	369	0	0	lightning_bug	929	60	1	stimuli\lightning_bug\lightning_bug_11s.jpg	10	-1	1	0	lightning_bug_11s.jpg	0	0	0	160.14346485454	160.193446946767	0.0499820922268555
203174	50	370	0	0	paperclip	1116	61	1	stimuli\paperclip\paperclip_05s.jpg	4	-1	1	0	paperclip_05s.jpg	0	0	0	160.243469023699	160.293447214965	0.0499781912658364
203274	50	371	0	0	raisin	1280	62	1	stimuli\raisin\raisin_06s.jpg	5	-1	1	0	raisin_06s.jpg	0	0	0	160.343470754742	160.393444557441	0.0499738026992418
203374	50	372	0	0	doorknocker	510	63	1	stimuli\doorknocker\doorknocker_02s.jpg	1	-1	1	0	doorknocker_02s.jpg	0	0	0	160.443468341022	160.493452139897	0.0499837988754734
203474	50	373	0	0	locker	941	64	1	stimuli\locker\locker_04s.jpg	3	-1	1	0	locker_04s.jpg	0	0	0	160.543473485392	160.593451189052	0.0499777036602609
203574	50	374	0	0	bottle_opener	171	65	1	stimuli\bottle_opener\bottle_opener_06s.jpg	5	-1	1	0	bottle_opener_06s.jpg	0	0	0	160.643478385959	160.693453407701	0.0499750217422843
203674	50	375	0	0	shell2	1418	66	1	stimuli\shell2\shell2_03s.jpg	2	-1	1	0	shell2_03s.jpg	0	0	0	160.743480360805	160.793463428272	0.0499830674671102
203774	50	376	0	0	metal_detector	996	67	1	stimuli\metal_detector\metal_detector_06s.jpg	5	-1	1	0	metal_detector_06s.jpg	0	0	0	160.843478678522	160.893457601225	0.0499789227033034
203874	50	377	0	0	toilet_paper	1671	68	1	stimuli\toilet_paper\toilet_paper_03s.jpg	2	-1	1	0	toilet_paper_03s.jpg	0	0	0	160.94348748005	160.993460551312	0.0499730712617747
203974	50	378	0	0	coyote	427	69	1	stimuli\coyote\coyote_01b.jpg	0	-1	1	0	coyote_01b.jpg	0	0	0	161.043491649179	161.093475448055	0.0499837988754734
204074	50	379	0	0	coleslaw	386	70	1	stimuli\coleslaw\coleslaw_05s.jpg	4	-1	1	0	coleslaw_05s.jpg	0	0	0	161.143495574506	161.1934688896	0.0499733150936663
204174	50	380	0	0	leek	910	71	1	stimuli\leek\leek_04s.jpg	3	-1	1	0	leek_04s.jpg	0	0	0	161.24349730555	161.293474521575	0.0499772160255816
204274	50	381	0	0	gas_mask	660	72	1	stimuli\gas_mask\gas_mask_07s.jpg	6	-1	1	0	gas_mask_07s.jpg	0	0	0	161.343516103225	161.393479665945	0.0499635627202224
204374	50	382	0	0	rhubarb	1307	73	1	stimuli\rhubarb\rhubarb_09n.jpg	8	-1	1	0	rhubarb_09n.jpg	0	0	0	161.443518809509	161.493486029387	0.0499672198784538
204474	50	383	0	0	earplug	539	74	1	stimuli\earplug\earplug_10s.jpg	9	-1	1	0	earplug_10s.jpg	1	0	0	161.543499329156	161.593476545211	0.0499772160546854
204574	50	384	0	0	ladle	887	75	1	stimuli\ladle\ladle_09s.jpg	8	-1	1	0	ladle_09s.jpg	0	0	0	161.643499597354	161.693478520057	0.0499789227033034
204674	50	385	0	0	flashlight	611	76	1	stimuli\flashlight\flashlight_01b.jpg	0	-1	1	0	flashlight_01b.jpg	0	0	0	161.743531316926	161.79348585871	0.0499545417842455
204774	50	386	0	0	tugboat	1725	77	1	stimuli\tugboat\tugboat_01b.jpg	0	-1	1	0	tugboat_01b.jpg	0	0	0	161.84350769181	161.893481982144	0.0499742903339211
204874	50	387	0	0	wrap	1837	78	1	stimuli\wrap\wrap_04s.jpg	3	-1	1	1	wrap_04s.jpg	0	0	0	161.943505521922	161.993484688428	0.0499791665060911
204974	50	388	0	0	hedgehog	774	79	1	stimuli\hedgehog\hedgehog_06s.jpg	5	-1	1	0	hedgehog_06s.jpg	0	0	0	162.043515542464	162.093490076601	0.0499745341367088
205074	50	389	0	0	rattlesnake	1288	80	1	stimuli\rattlesnake\rattlesnake_08s.jpg	7	-1	1	0	rattlesnake_08s.jpg	0	0	0	162.143515079224	162.193488394318	0.0499733150936663
205174	50	390	0	0	gingerbread_man	674	81	1	stimuli\gingerbread_man\gingerbread_man_05s.jpg	4	-1	1	0	gingerbread_man_05s.jpg	0	0	0	162.243527050276	162.293502559623	0.0499755093478598
205274	50	391	0	0	telescope	1640	82	1	stimuli\telescope\telescope_05n.jpg	4	-1	1	0	telescope_05n.jpg	0	0	0	162.343521710834	162.393503071624	0.0499813607893884
205374	50	392	0	0	sewing_machine	1407	83	1	stimuli\sewing_machine\sewing_machine_02s.jpg	1	-1	1	0	sewing_machine_02s.jpg	0	0	0	162.443522466638	162.49350602171	0.0499835550726857
205474	50	393	0	0	peanut_butter	1132	84	1	stimuli\peanut_butter\peanut_butter_06s.jpg	5	-1	1	0	peanut_butter_06s.jpg	1	0.602749338111607	1	162.543524685316	162.593496293732	0.0499716084159445
205574	50	394	0	0	statue	1543	85	1	stimuli\statue\statue_11s.jpg	10	-1	1	0	statue_11s.jpg	0	0	0	162.643524709682	162.693502413342	0.0499777036602609
205674	50	395	0	0	terrarium	1644	86	1	stimuli\terrarium\terrarium_06s.jpg	5	-1	1	0	terrarium_06s.jpg	0	0	0	162.74352692836	162.793514628196	0.0499876998364925
205774	50	396	0	0	headdress	763	87	1	stimuli\headdress\headdress_01b.jpg	0	-1	1	0	headdress_01b.jpg	0	0	0	162.843530366081	162.893512702081	0.0499823360005394
205874	50	397	0	0	creme_brulee	439	88	1	stimuli\creme_brulee\creme_brulee_07s.jpg	6	-1	1	0	creme_brulee_07s.jpg	0	0	0	162.943534291408	162.993516627408	0.0499823360005394
205974	50	398	0	0	barbell	72	89	1	stimuli\barbell\barbell_10s.jpg	9	-1	1	0	barbell_10s.jpg	0	0	0	163.04354065482	163.093516895606	0.0499762407853268
206074	50	399	0	0	waffle_iron	1771	90	1	stimuli\waffle_iron\waffle_iron_07s.jpg	6	-1	1	0	waffle_iron_07s.jpg	0	0	0	163.143541410624	163.19353471807	0.0499933074461296
206174	50	400	0	0	saddle	1343	91	1	stimuli\saddle\saddle_09s.jpg	8	-1	1	0	saddle_09s.jpg	0	0	0	163.243547286431	163.293525477697	0.0499781912658364
206274	50	401	0	0	birdbath	129	92	1	stimuli\birdbath\birdbath_05s.jpg	4	-1	1	0	birdbath_05s.jpg	0	0	0	163.343549261277	163.393523307779	0.0499740465020295
206374	50	402	0	0	spacesuit	1502	93	1	stimuli\spacesuit\spacesuit_10s.jpg	9	-1	1	0	spacesuit_10s.jpg	0	0	0	163.443564889429	163.493527964543	0.0499630751146469
206474	50	403	0	0	centrifuge	296	94	1	stimuli\centrifuge\centrifuge_12s.jpg	11	-1	1	0	centrifuge_12s.jpg	0	0	0	163.543547115754	163.593525550823	0.0499784350686241
206574	50	404	0	0	hot-air_balloon	801	95	1	stimuli\hot-air_balloon\hot-air_balloon_09s.jpg	8	-1	1	0	hot-air_balloon_09s.jpg	0	0	0	163.643548846798	163.693537278043	0.0499884312448557
206674	50	405	0	0	soccer_ball	1488	96	1	stimuli\soccer_ball\soccer_ball_11s.jpg	10	-1	1	0	soccer_ball_11s.jpg	0	0	0	163.743563987344	163.793535351957	0.0499713646131568
206774	50	406	0	0	boy	184	97	1	stimuli\boy\boy_04s.jpg	3	-1	1	0	boy_04s.jpg	0	0	0	163.843557916494	163.893535132549	0.0499772160546854
206874	50	407	0	0	mixer	1009	98	1	stimuli\mixer\mixer_07s.jpg	6	-1	1	0	mixer_07s.jpg	0	0	0	163.943568180868	163.993540033087	0.0499718522187322
206974	50	408	0	0	duffel_bag	529	99	1	stimuli\duffel_bag\duffel_bag_05s.jpg	4	-1	1	0	duffel_bag_05s.jpg	0	0	0	164.043561134778	164.093548834615	0.0499876998364925
207074	50	409	0	0	grille	715	100	1	stimuli\grille\grille_06s.jpg	5	-1	1	0	grille_06s.jpg	0	0	0	164.143567741994	164.193557636114	0.0499898941197898
207174	50	410	0	0	crayon	435	101	1	stimuli\crayon\crayon_02s.jpg	1	-1	1	0	crayon_02s.jpg	0	0	0	164.243569473067	164.293549858616	0.0499803855491336
207274	50	411	0	0	wasp	1785	102	1	stimuli\wasp\wasp_05s.jpg	4	-1	1	0	wasp_05s.jpg	0	0	0	164.343558769819	164.393537204916	0.0499784350977279
207374	50	412	0	0	blind	140	103	1	stimuli\blind\blind_05s.jpg	4	-1	1	0	blind_05s.jpg	0	0	0	164.443552942801	164.493536985479	0.0499840426782612
207474	50	413	0	0	blowfish	146	104	1	stimuli\blowfish\blowfish_11s.jpg	10	-1	1	0	blowfish_11s.jpg	1	0	0	164.543568814755	164.593539691763	0.0499708770075813
207574	50	414	0	0	hairpin	737	105	1	stimuli\hairpin\hairpin_11n.jpg	10	-1	1	0	hairpin_11n.jpg	0	0	0	164.64356688867	164.693548493262	0.0499816045921762
207674	50	415	0	0	underwear	1745	106	1	stimuli\underwear\underwear_10s.jpg	9	-1	1	0	underwear_10s.jpg	0	0	0	164.743569351151	164.793542910047	0.0499735588964541
207774	50	416	0	0	graffiti	697	107	1	stimuli\graffiti\graffiti_01b.jpg	0	-1	1	0	graffiti_01b.jpg	0	0	0	164.843574007915	164.893543422048	0.0499694141326472
207874	50	417	0	0	goat	684	108	1	stimuli\goat\goat_12n.jpg	11	-1	1	0	goat_12n.jpg	0	0	0	164.94358719798	164.993551004503	0.0499638065230101
207974	50	418	0	0	space_shuttle	1501	109	1	stimuli\space_shuttle\space_shuttle_05s.jpg	4	-1	1	0	space_shuttle_05s.jpg	0	0	0	165.043575031887	165.093551516504	0.0499764846172184
208074	50	419	0	0	knob	882	110	1	stimuli\knob\knob_01b.jpg	0	-1	1	0	knob_01b.jpg	0	0	0	165.143576762959	165.193562999921	0.0499862369615585
208174	50	420	0	0	speedboat	1511	111	1	stimuli\speedboat\speedboat_11s.jpg	10	-1	1	0	speedboat_11s.jpg	0	0	0	165.243612627266	165.293602521386	0.0499898941197898
208274	50	421	0	0	cordon_bleu	408	112	1	stimuli\cordon_bleu\cordon_bleu_12s.jpg	11	-1	1	0	cordon_bleu_12s.jpg	0	0	0	165.343614602112	165.39359864482	0.049984042707365
208374	50	422	0	0	barnacle	75	113	1	stimuli\barnacle\barnacle_11s.jpg	10	-1	1	0	barnacle_11s.jpg	0	0	0	165.443602192245	165.493586234923	0.0499840426782612
208474	50	423	0	0	fire_alarm	591	114	1	stimuli\fire_alarm\fire_alarm_12s.jpg	11	-1	1	0	fire_alarm_12s.jpg	0	0	0	165.543604898528	165.593580651708	0.0499757531797513
208574	50	424	0	0	cracker	429	115	1	stimuli\cracker\cracker_01b.jpg	0	-1	1	0	cracker_01b.jpg	0	0	0	165.643605410529	165.693580919906	0.0499755093769636
208674	50	425	0	0	soda_fountain	1491	116	1	stimuli\soda_fountain\soda_fountain_02s.jpg	1	-1	1	0	soda_fountain_02s.jpg	0	0	0	165.743605434895	165.793580212834	0.0499747779394966
208774	50	426	0	0	cockroach	373	117	1	stimuli\cockroach\cockroach_01b.jpg	0	-1	1	0	cockroach_01b.jpg	0	0	0	165.843607653573	165.893584381993	0.0499767284200061
208874	50	427	0	0	purse	1259	118	1	stimuli\purse\purse_09s.jpg	8	-1	1	0	purse_09s.jpg	0	0	0	165.943611578899	165.993588794925	0.0499772160255816
208974	50	428	0	0	thermometer	1646	119	1	stimuli\thermometer\thermometer_04s.jpg	3	-1	1	0	thermometer_04s.jpg	0	0	0	166.043616967072	166.093586381205	0.0499694141326472
209074	50	429	0	0	grasshopper	706	120	1	stimuli\grasshopper\grasshopper_01b.jpg	0	-1	1	0	grasshopper_01b.jpg	0	0	0	166.143611383857	166.193569826573	0.0499584427161608
209174	50	430	0	0	walnut	1778	121	1	stimuli\walnut\walnut_01b.jpg	0	-1	1	0	walnut_01b.jpg	0	0	0	166.243620429159	166.293584479514	0.0499640503549017
209274	50	431	0	0	cornhusk	414	122	1	stimuli\cornhusk\cornhusk_07s.jpg	6	-1	1	0	cornhusk_07s.jpg	0	0	0	166.343610944983	166.393586941966	0.0499759969825391
209374	50	432	0	0	stopwatch	1562	123	1	stimuli\stopwatch\stopwatch_01b.jpg	0	-1	1	0	stopwatch_01b.jpg	0	0	0	166.443611213181	166.493586722558	0.0499755093769636
209474	50	433	0	0	pocket_watch	1206	124	1	stimuli\pocket_watch\pocket_watch_01b.jpg	0	-1	1	0	pocket_watch_01b.jpg	0	0	0	166.543609287095	166.593595036451	0.049985749355983
209574	50	434	0	0	ski_pole	1455	125	1	stimuli\ski_pole\ski_pole_05s.jpg	4	-1	1	0	ski_pole_05s.jpg	1	0	0	166.643615650508	166.69359627986	0.0499806293519214
209674	50	435	0	0	candy_cane	257	126	1	stimuli\candy_cane\candy_cane_04s.jpg	3	-1	1	0	candy_cane_04s.jpg	0	0	0	166.743618356792	166.793594353774	0.0499759969825391
209774	50	436	0	0	pennant	1148	127	1	stimuli\pennant\pennant_10s.jpg	9	-1	1	0	pennant_10s.jpg	0	0	0	166.843618381157	166.89359535338	0.0499769722227938
209874	50	437	0	0	gauge	663	128	1	stimuli\gauge\gauge_09s.jpg	8	-1	1	0	gauge_09s.jpg	0	0	0	166.943621575076	166.993607812037	0.0499862369615585
209974	50	438	0	0	charcoal	307	129	1	stimuli\charcoal\charcoal_07s.jpg	6	-1	1	0	charcoal_07s.jpg	0	0	0	167.043627938488	167.09361515069	0.0499872122018132
210074	50	439	0	0	beehive	112	130	1	stimuli\beehive\beehive_03s.jpg	2	-1	1	0	beehive_03s.jpg	0	0	0	167.143636252382	167.193615662691	0.0499794103088789
210174	50	440	0	0	diving_board	494	131	1	stimuli\diving_board\diving_board_01b.jpg	0	-1	1	0	diving_board_01b.jpg	0	0	0	167.243667728122	167.29361983182	0.0499521036981605
210274	50	441	0	0	scale	1371	132	1	stimuli\scale\scale_02s.jpg	1	-1	1	0	scale_02s.jpg	0	0	0	167.343642883992	167.393619856215	0.0499769722227938
210374	50	442	0	0	chin	330	133	1	stimuli\chin\chin_11s.jpg	10	-1	1	0	chin_11s.jpg	0	0	0	167.443644371233	167.493623781542	0.0499794103088789
210474	50	443	0	0	vegetable	1754	134	1	stimuli\vegetable\vegetable_02s.jpg	1	-1	1	0	vegetable_02s.jpg	0	0	0	167.543648052728	167.593626975431	0.0499789227033034
210574	50	444	0	0	flypaper	622	135	1	stimuli\flypaper\flypaper_02s.jpg	1	-1	1	0	flypaper_02s.jpg	0	0	0	167.643658804707	167.693638215045	0.0499794103379827
210674	50	445	0	0	starfish	1541	136	1	stimuli\starfish\starfish_03s.jpg	2	-1	1	0	starfish_03s.jpg	0	0	0	167.743653709098	167.793622879457	0.0499691703589633
210774	50	446	0	0	garter	659	137	1	stimuli\garter\garter_03s.jpg	2	-1	1	0	garter_03s.jpg	0	0	0	167.8436459316	167.893624122866	0.0499781912658364
210874	50	447	0	0	plate	1197	138	1	stimuli\plate\plate_12s.jpg	11	-1	1	0	plate_12s.jpg	0	0	0	167.94365107597	167.99362780439	0.0499767284200061
210974	50	448	0	0	garlic	658	139	1	stimuli\garlic\garlic_08n.jpg	7	-1	1	0	garlic_08n.jpg	0	0	0	168.043650856533	168.093629535433	0.0499786789005157
211074	50	449	0	0	nose	1063	140	1	stimuli\nose\nose_07s.jpg	6	-1	1	0	nose_07s.jpg	0	0	0	168.143654294254	168.193635898846	0.0499816045921762
211174	50	450	0	0	place_mat	1193	141	1	stimuli\place_mat\place_mat_12s.jpg	11	-1	1	0	place_mat_12s.jpg	0	0	0	168.2436562691	168.293629340391	0.0499730712908786
211274	50	451	0	0	glove	680	142	1	stimuli\glove\glove_08s.jpg	7	-1	1	0	glove_08s.jpg	0	0	0	168.343655318255	168.393632778083	0.0499774598283693
211374	50	452	0	0	dumbbell	530	143	1	stimuli\dumbbell\dumbbell_10s.jpg	9	-1	1	0	dumbbell_10s.jpg	1	0	0	168.443662169273	168.493641335808	0.049979166535195
211474	50	453	0	0	figurine	582	144	1	stimuli\figurine\figurine_10s.jpg	9	-1	1	0	figurine_10s.jpg	0	0	0	168.54366048699	168.593636484002	0.0499759970116429
211574	50	454	0	0	gutter	729	145	1	stimuli\gutter\gutter_03s.jpg	2	-1	1	0	gutter_03s.jpg	0	0	0	168.643664899952	168.693647479784	0.0499825798324309
211674	50	455	0	0	denture	478	146	1	stimuli\denture\denture_07s.jpg	6	-1	1	0	denture_07s.jpg	0	0	0	168.743669069081	168.79364287178	0.0499738026992418
211774	50	456	0	0	toe	1668	147	1	stimuli\toe\toe_05s.jpg	4	-1	1	0	toe_05s.jpg	0	0	0	168.843668605841	168.893648503785	0.0499798979435582
211874	50	457	0	0	harmonica	753	148	1	stimuli\harmonica\harmonica_08s.jpg	7	-1	1	0	harmonica_08s.jpg	0	0	0	168.943675700692	168.993654379592	0.0499786789005157
211974	50	458	0	0	juicer1	855	149	1	stimuli\juicer1\juicer1_02s.jpg	1	-1	1	0	juicer1_02s.jpg	0	0	0	169.043677187932	169.093653916352	0.0499767284200061
212074	50	459	0	0	juice	854	150	1	stimuli\juice\juice_09s.jpg	8	-1	1	0	juice_09s.jpg	0	0	0	169.143680869456	169.193659792159	0.0499789227033034
212174	50	460	0	0	stove1	1563	151	1	stimuli\stove1\stove1_11s.jpg	10	-1	1	0	stove1_11s.jpg	0	0	0	169.243680406216	169.293666399375	0.0499859931587707
212274	50	461	0	0	vest	1759	152	1	stimuli\vest\vest_02s.jpg	1	-1	1	0	vest_02s.jpg	0	0	0	169.343691645801	169.393667642813	0.0499759970116429
212374	50	462	0	0	cake_mix	238	153	1	stimuli\cake_mix\cake_mix_03s.jpg	2	-1	1	0	cake_mix_03s.jpg	0	0	0	169.443696302566	169.493670836702	0.0499745341367088
212474	50	463	0	0	exerciser	561	154	1	stimuli\exerciser\exerciser_02s.jpg	1	-1	1	0	exerciser_02s.jpg	0	0	0	169.543697546003	169.593673542986	0.0499759969825391
212574	50	464	0	0	macaroni	952	155	1	stimuli\macaroni\macaroni_12s.jpg	11	-1	1	0	macaroni_12s.jpg	0	0	0	169.643704640825	169.693685514008	0.0499808731838129
212674	50	465	0	0	cheeseburger	313	156	1	stimuli\cheeseburger\cheeseburger_12s.jpg	11	-1	1	1	cheeseburger_12s.jpg	0	0	0	169.743701739499	169.793676517467	0.0499747779686004
212774	50	466	0	0	scarf	1377	157	1	stimuli\scarf\scarf_02s.jpg	1	-1	1	0	scarf_02s.jpg	0	0	0	169.84370420198	169.893681174202	0.0499769722227938
212874	50	467	0	0	walker2	1774	158	1	stimuli\walker2\walker2_01b.jpg	0	-1	1	0	walker2_01b.jpg	1	0.192224243946839	1	169.943713734916	169.993695095705	0.0499813607893884
212974	50	468	0	0	mint	1004	159	1	stimuli\mint\mint_10s.jpg	9	-1	1	0	mint_10s.jpg	0	0	0	170.043712784071	170.093710967689	0.0499981836182997
213074	50	469	0	0	ham	739	160	1	stimuli\ham\ham_03s.jpg	2	-1	1	0	ham_03s.jpg	0	0	0	170.143711589393	170.193691974942	0.0499803855491336
213174	50	470	0	0	telegraph	1638	161	1	stimuli\telegraph\telegraph_11s.jpg	10	-1	1	0	telegraph_11s.jpg	0	0	0	170.243721366132	170.293679321272	0.0499579551396891
213274	50	471	0	0	magnifying_glass	958	162	1	stimuli\magnifying_glass\magnifying_glass_07s.jpg	6	-1	1	0	magnifying_glass_07s.jpg	0	0	0	170.343707005784	170.393681539921	0.0499745341367088
213374	50	472	0	0	ferret	578	163	1	stimuli\ferret\ferret_08s.jpg	7	-1	1	0	ferret_08s.jpg	0	0	0	170.443718245398	170.493692535703	0.0499742903048173
213474	50	473	0	0	comic_book	391	164	1	stimuli\comic_book\comic_book_10s.jpg	9	-1	1	0	comic_book_10s.jpg	0	0	0	170.543709492631	170.593685733445	0.0499762408144306
213574	50	474	0	0	sidecar	1442	165	1	stimuli\sidecar\sidecar_09s.jpg	8	-1	1	0	sidecar_09s.jpg	0	0	0	170.643718294159	170.693696485425	0.0499781912658364
213674	50	475	0	0	chair	300	166	1	stimuli\chair\chair_05s.jpg	4	-1	1	0	chair_05s.jpg	0	0	0	170.743722463289	170.793698216468	0.0499757531797513
213774	50	476	0	0	watermelon	1793	167	1	stimuli\watermelon\watermelon_10s.jpg	9	-1	1	0	watermelon_10s.jpg	0	0	0	170.843722975289	170.893698240834	0.049975265545072
213874	50	477	0	0	foot	628	168	1	stimuli\foot\foot_06s.jpg	5	-1	1	0	foot_06s.jpg	0	0	0	170.943723243487	170.993707042362	0.0499837988754734
213974	50	478	0	0	hole	785	169	1	stimuli\hole\hole_04s.jpg	3	-1	1	0	hole_04s.jpg	0	0	0	171.04372399929	171.093700240075	0.0499762407853268
214074	50	479	0	0	grass	705	170	1	stimuli\grass\grass_02s.jpg	1	-1	1	0	grass_02s.jpg	0	0	0	171.143724023656	171.193707091123	0.0499830674671102
214174	50	480	0	0	duct_tape	528	171	1	stimuli\duct_tape\duct_tape_10s.jpg	9	-1	1	0	duct_tape_10s.jpg	1	0	0	171.243732337549	171.293711747887	0.0499794103379827
214274	50	481	0	0	mistletoe	1007	172	1	stimuli\mistletoe\mistletoe_07s.jpg	6	-1	1	0	mistletoe_07s.jpg	0	0	0	171.343735287635	171.39371347893	0.0499781912949402
214374	50	482	0	0	footprint	632	173	1	stimuli\footprint\footprint_07s.jpg	6	-1	1	0	footprint_07s.jpg	0	0	0	171.443744820572	171.493716429017	0.0499716084450483
214474	50	483	0	0	computer_screen	395	174	1	stimuli\computer_screen\computer_screen_11s.jpg	10	-1	1	0	computer_screen_11s.jpg	0	0	0	171.543740700203	171.593717428623	0.0499767284200061
214574	50	484	0	0	fishhook	602	175	1	stimuli\fishhook\fishhook_02s.jpg	1	-1	1	0	fishhook_02s.jpg	0	0	0	171.643739505555	171.693725498713	0.0499859931587707
214674	50	485	0	0	piecrust	1169	176	1	stimuli\piecrust\piecrust_08s.jpg	7	-1	1	0	piecrust_08s.jpg	0	0	0	171.743742211838	171.793718452624	0.0499762407853268
214774	50	486	0	0	awning	44	177	1	stimuli\awning\awning_04s.jpg	3	-1	1	0	awning_04s.jpg	0	0	0	171.843745405728	171.893722621753	0.0499772160255816
214874	50	487	0	0	horn	797	178	1	stimuli\horn\horn_04s.jpg	3	-1	1	0	horn_04s.jpg	0	0	0	171.943749331054	171.993725328037	0.0499759969825391
214974	50	488	0	0	stamp2	1536	179	1	stimuli\stamp2\stamp2_01b.jpg	0	-1	1	0	stamp2_01b.jpg	0	0	0	172.043747648771	172.093725352432	0.0499777036602609
215074	50	489	0	0	turnstile	1734	180	1	stimuli\turnstile\turnstile_11s.jpg	10	-1	1	0	turnstile_11s.jpg	0	0	0	172.143750842661	172.193735372974	0.0499845303129405
215174	50	490	0	0	baton1	92	181	1	stimuli\baton1\baton1_05s.jpg	4	-1	1	0	baton1_05s.jpg	0	0	0	172.243756718468	172.293726132601	0.0499694141326472
215274	50	491	0	0	nut	1066	182	1	stimuli\nut\nut_08s.jpg	7	-1	1	0	nut_08s.jpg	0	0	0	172.343772102817	172.393767604546	0.0499955017294269
215374	50	492	0	0	popcorn	1223	183	1	stimuli\popcorn\popcorn_03s.jpg	2	-1	1	0	popcorn_03s.jpg	0	0	0	172.4437748091	172.493772748916	0.0499979398155119
215474	50	493	0	0	bun	220	184	1	stimuli\bun\bun_10s.jpg	9	-1	1	0	bun_10s.jpg	0	0	0	172.54379214393	172.593772529479	0.0499803855491336
215574	50	494	0	0	gyro	730	185	1	stimuli\gyro\gyro_12s.jpg	11	-1	1	0	gyro_12s.jpg	0	0	0	172.643797532131	172.693777186243	0.0499796541116666
215674	50	495	0	0	sheep	1414	186	1	stimuli\sheep\sheep_08s.jpg	7	-1	1	0	sheep_08s.jpg	1	0	0	172.743804626953	172.793779648724	0.0499750217713881
215774	50	496	0	0	hourglass	807	187	1	stimuli\hourglass\hourglass_04s.jpg	3	-1	1	0	hourglass_04s.jpg	0	0	0	172.84378514663	172.893767970265	0.0499828236352187
215874	50	497	0	0	keg	866	188	1	stimuli\keg\keg_11s.jpg	10	-1	1	0	keg_11s.jpg	0	0	0	172.943810527155	172.993764093699	0.0499535665439907
215974	50	498	0	0	blinder	141	189	1	stimuli\blinder\blinder_12s.jpg	11	-1	1	0	blinder_12s.jpg	0	0	0	173.043789340125	173.093767043785	0.0499777036602609
216074	50	499	0	0	trolley	1715	190	1	stimuli\trolley\trolley_08s.jpg	7	-1	1	0	trolley_08s.jpg	0	0	0	173.143789852125	173.19377267579	0.0499828236643225
216174	50	500	0	0	quill	1263	191	1	stimuli\quill\quill_04s.jpg	3	-1	1	0	quill_04s.jpg	0	0	0	173.243789145083	173.29376660494	0.0499774598574731
216274	50	501	0	0	hairdryer	735	192	1	stimuli\hairdryer\hairdryer_12s.jpg	11	-1	1	0	hairdryer_12s.jpg	0	0	0	173.34378941328	173.393774675002	0.0499852617213037
216374	50	502	0	0	matchbox	984	193	1	stimuli\matchbox\matchbox_07s.jpg	6	-1	1	0	matchbox_07s.jpg	0	0	0	173.443804066192	173.493776162242	0.0499720960506238
216474	50	503	0	0	shoe_polish	1424	194	1	stimuli\shoe_polish\shoe_polish_03s.jpg	2	-1	1	0	shoe_polish_03s.jpg	0	0	0	173.543795313453	173.593775699002	0.0499803855491336
216574	50	504	0	0	pedal	1136	195	1	stimuli\pedal\pedal_05s.jpg	4	-1	1	0	pedal_05s.jpg	0	0	0	173.643799482583	173.693779136724	0.0499796541407704
216674	50	505	0	0	shovel	1432	196	1	stimuli\shovel\shovel_12s.jpg	11	-1	1	0	shovel_12s.jpg	0	0	0	173.743807308871	173.793776966806	0.049969657935435
216774	50	506	0	0	kitten	875	197	1	stimuli\kitten\kitten_04s.jpg	3	-1	1	0	kitten_04s.jpg	0	0	0	173.84380489515	173.893782355008	0.0499774598574731
216874	50	507	0	0	flour	618	198	1	stimuli\flour\flour_11s.jpg	10	-1	1	0	flour_11s.jpg	0	0	0	173.943818329048	173.993813586945	0.0499952578975353
216974	50	508	0	0	parachute	1118	199	1	stimuli\parachute\parachute_02s.jpg	1	-1	1	0	parachute_02s.jpg	0	0	0	174.043811770563	174.09379191231	0.0499801417463459
217074	50	509	0	0	skateboard	1449	200	1	stimuli\skateboard\skateboard_03s.jpg	2	-1	1	0	skateboard_03s.jpg	0	0	0	174.143815208285	174.193797544314	0.0499823360296432
217174	50	510	0	0	vise	1765	201	1	stimuli\vise\vise_01b.jpg	0	-1	1	0	vise_01b.jpg	0	0	0	174.243839125964	174.293816341989	0.0499772160255816
217274	50	511	0	0	spoon	1519	202	1	stimuli\spoon\spoon_06s.jpg	5	-1	1	0	spoon_06s.jpg	0	0	0	174.343822083698	174.393818560668	0.0499964769696817
217374	50	512	0	0	okra	1074	203	1	stimuli\okra\okra_07s.jpg	6	-1	1	0	okra_07s.jpg	0	0	0	174.443822839501	174.493802006007	0.0499791665060911
217474	50	513	0	0	bomb	160	204	1	stimuli\bomb\bomb_03s.jpg	2	-1	1	0	bomb_03s.jpg	0	0	0	174.543823595304	174.593811538944	0.0499879436392803
217574	50	514	0	0	cufflink	458	205	1	stimuli\cufflink\cufflink_12s.jpg	11	-1	1	0	cufflink_12s.jpg	0	0	0	174.643845806335	174.693807418575	0.0499616122397128
217674	50	515	0	0	block	143	206	1	stimuli\block\block_10s.jpg	9	-1	1	0	block_10s.jpg	0	0	0	174.743830714549	174.793804761051	0.0499740465020295
217774	50	516	0	0	pitchfork	1191	207	1	stimuli\pitchfork\pitchfork_09s.jpg	8	-1	1	0	pitchfork_09s.jpg	0	0	0	174.843831470353	174.893805273052	0.0499738026992418
217874	50	517	0	0	torso	1685	208	1	stimuli\torso\torso_09s.jpg	8	-1	1	0	torso_09s.jpg	0	0	0	174.943837833765	174.993813586945	0.0499757531797513
217974	50	518	0	0	knee	877	209	1	stimuli\knee\knee_03s.jpg	2	-1	1	0	knee_03s.jpg	1	0	0	175.04383785816	175.093815317989	0.0499774598283693
218074	50	519	0	0	tree_trunk	1709	210	1	stimuli\tree_trunk\tree_trunk_10s.jpg	9	-1	1	0	tree_trunk_10s.jpg	0	0	0	175.143861044402	175.193843380432	0.0499823360296432
218174	50	520	0	0	duster	534	211	1	stimuli\duster\duster_06s.jpg	5	-1	1	0	duster_06s.jpg	0	0	0	175.243845464982	175.293815366749	0.0499699017673265
218274	50	521	0	0	kebab	865	212	1	stimuli\kebab\kebab_12n.jpg	11	-1	1	0	kebab_12n.jpg	0	0	0	175.343841588445	175.393826362561	0.0499847741157282
218374	50	522	0	0	sardine	1359	213	1	stimuli\sardine\sardine_02s.jpg	1	-1	1	0	sardine_02s.jpg	0	0	0	175.443845757574	175.493822485994	0.0499767284200061
218474	50	523	0	0	freezer	640	214	1	stimuli\freezer\freezer_10s.jpg	9	-1	1	0	freezer_10s.jpg	0	0	0	175.543849682901	175.593824217038	0.0499745341367088
218574	50	524	0	0	pantyhose	1110	215	1	stimuli\pantyhose\pantyhose_01b.jpg	0	-1	1	0	pantyhose_01b.jpg	0	0	0	175.643851170142	175.693833993777	0.0499828236352187
218674	50	525	0	0	handlebar	749	216	1	stimuli\handlebar\handlebar_01b.jpg	0	-1	1	0	handlebar_01b.jpg	0	0	0	175.74385704592	175.793833286734	0.0499762408144306
218774	50	526	0	0	saxophone	1368	217	1	stimuli\saxophone\saxophone_04s.jpg	3	-1	1	0	saxophone_04s.jpg	0	0	0	175.843854388397	175.89385403489	0.0499996464932337
218874	50	527	0	0	gumball	725	218	1	stimuli\gumball\gumball_10s.jpg	9	-1	1	0	gumball_10s.jpg	0	0	0	175.943867090857	175.993843575474	0.0499764846172184
218974	50	528	0	0	shield	1420	219	1	stimuli\shield\shield_07s.jpg	6	-1	1	0	shield_07s.jpg	0	0	0	176.043865408574	176.093841161754	0.0499757531797513
219074	50	529	0	0	cocoon	376	220	1	stimuli\cocoon\cocoon_01b.jpg	0	-1	1	0	cocoon_01b.jpg	0	0	0	176.143874697707	176.193845818518	0.049971120810369
219174	50	530	0	0	watch	1786	221	1	stimuli\watch\watch_05s.jpg	4	-1	1	0	watch_05s.jpg	0	0	0	176.243908855366	176.293859983823	0.0499511284579057
219274	50	531	0	0	tiramisu	1663	222	1	stimuli\tiramisu\tiramisu_03s.jpg	2	-1	1	0	tiramisu_03s.jpg	0	0	0	176.343882792164	176.393895360525	0.0500125683611259
219374	50	532	0	0	barcode	73	223	1	stimuli\barcode\barcode_08s.jpg	7	-1	1	0	barcode_08s.jpg	0	0	0	176.443888424168	176.493869541155	0.0499811169866007
219474	50	533	0	0	weed	1802	224	1	stimuli\weed\weed_05s.jpg	4	-1	1	0	weed_05s.jpg	0	0	0	176.543875770469	176.59384225891	0.0499664884409867
219574	50	534	0	0	ashtray	41	225	1	stimuli\ashtray\ashtray_03n.jpg	2	-1	1	0	ashtray_03n.jpg	0	0	0	176.643866773928	176.693846915674	0.0499801417463459
219674	50	535	0	0	coil	384	226	1	stimuli\coil\coil_01s.jpg	0	-1	1	0	coil_01s.jpg	0	0	0	176.743871918297	176.79384133243	0.0499694141326472
219774	50	536	0	0	scanner	1375	227	1	stimuli\scanner\scanner_11s.jpg	10	-1	1	0	scanner_11s.jpg	0	0	0	176.843868529337	176.893869638676	0.050001109339064
219874	50	537	0	0	rust	1342	228	1	stimuli\rust\rust_05s.jpg	4	-1	1	0	rust_05s.jpg	0	0	0	176.943878793711	176.993850889761	0.0499720960506238
219974	50	538	0	0	sweatsuit	1593	229	1	stimuli\sweatsuit\sweatsuit_12s.jpg	11	-1	1	1	sweatsuit_12s.jpg	0	0	0	177.043871260015	177.093856034131	0.0499847741157282
220074	50	539	0	0	pepper_mill	1151	230	1	stimuli\pepper_mill\pepper_mill_12s.jpg	11	-1	1	0	pepper_mill_12s.jpg	0	0	0	177.143878111034	177.193858008977	0.0499798979435582
220174	50	540	0	0	megaphone	993	231	1	stimuli\megaphone\megaphone_06s.jpg	5	-1	1	0	megaphone_06s.jpg	1	0.192192548740422	1	177.243919095345	177.293879244738	0.0499601493938826
220274	50	541	0	0	bunkbed	222	232	1	stimuli\bunkbed\bunkbed_03s.jpg	2	-1	1	0	bunkbed_03s.jpg	0	0	0	177.343912049284	177.393897067202	0.049985017918516
220374	50	542	0	0	mallet	962	233	1	stimuli\mallet\mallet_09s.jpg	8	-1	1	0	mallet_09s.jpg	0	0	0	177.443899395585	177.493872710678	0.0499733150936663
220474	50	543	0	0	wheelchair	1808	234	1	stimuli\wheelchair\wheelchair_09n.jpg	8	-1	1	0	wheelchair_09n.jpg	0	0	0	177.543898932345	177.593879317894	0.0499803855491336
220574	50	544	0	0	slug	1472	235	1	stimuli\slug\slug_10s.jpg	9	-1	1	0	slug_10s.jpg	0	0	0	177.643908952887	177.693885193701	0.0499762408144306
220674	50	545	0	0	treasure	1707	236	1	stimuli\treasure\treasure_11s.jpg	10	-1	1	0	treasure_11s.jpg	0	0	0	177.743907758238	177.793883023784	0.049975265545072
220774	50	546	0	0	razor	1290	237	1	stimuli\razor\razor_06s.jpg	5	-1	1	0	razor_06s.jpg	0	0	0	177.843905588321	177.893884754827	0.0499791665060911
220874	50	547	0	0	bonnet	163	238	1	stimuli\bonnet\bonnet_06s.jpg	5	-1	1	0	bonnet_06s.jpg	0	0	0	177.943907319364	177.993882828741	0.0499755093769636
220974	50	548	0	0	sofa_bed	1492	239	1	stimuli\sofa_bed\sofa_bed_01b.jpg	0	-1	1	0	sofa_bed_01b.jpg	0	0	0	178.043908562802	178.093886754068	0.0499781912658364
221074	50	549	0	0	cupcake	461	240	1	stimuli\cupcake\cupcake_01b.jpg	0	-1	1	0	cupcake_01b.jpg	0	0	0	178.143919070979	178.193894580356	0.0499755093769636
221174	50	550	0	0	electric_chair	553	241	1	stimuli\electric_chair\electric_chair_04s.jpg	3	-1	1	0	electric_chair_04s.jpg	0	0	0	178.24392153346	178.293918498035	0.0499969645752572
221274	50	551	0	0	crystal_ball	455	242	1	stimuli\crystal_ball\crystal_ball_12s.jpg	11	-1	1	0	crystal_ball_12s.jpg	0	0	0	178.343943256827	178.393920960487	0.0499777036602609
221374	50	552	0	0	jacket	836	243	1	stimuli\jacket\jacket_06s.jpg	5	-1	1	0	jacket_06s.jpg	0	0	0	178.443929627916	178.4939273239	0.0499976959836204
221474	50	553	0	0	iron	832	244	1	stimuli\iron\iron_12s.jpg	11	-1	1	0	iron_12s.jpg	0	0	0	178.543937210372	178.593923203531	0.0499859931587707
221574	50	554	0	0	couch	422	245	1	stimuli\couch\couch_04s.jpg	3	-1	1	0	couch_04s.jpg	0	0	0	178.64396478518	178.693918107921	0.049953322741203
221674	50	555	0	0	ruby	1338	246	1	stimuli\ruby\ruby_03s.jpg	2	-1	1	0	ruby_03s.jpg	0	0	0	178.743907270604	178.793928616098	0.050021345494315
221774	50	556	0	0	camper	249	247	1	stimuli\camper\camper_03s.jpg	2	-1	1	0	camper_03s.jpg	0	0	0	178.84395069303	178.893923764292	0.0499730712617747
221874	50	557	0	0	jetski	848	248	1	stimuli\jetski\jetski_11s.jpg	10	-1	1	0	jetski_11s.jpg	0	0	0	178.943935357413	178.993927202013	0.0499918446002994
221974	50	558	0	0	rooster	1330	249	1	stimuli\rooster\rooster_01b.jpg	0	-1	1	0	rooster_01b.jpg	0	0	0	179.04395074179	179.093926007336	0.049975265545072
222074	50	559	0	0	fur_coat	650	250	1	stimuli\fur_coat\fur_coat_01b.jpg	0	-1	1	0	fur_coat_01b.jpg	0	0	0	179.143949547113	179.19391652316	0.0499669760465622
222174	50	560	0	0	gong	692	251	1	stimuli\gong\gong_08s.jpg	7	-1	1	0	gong_08s.jpg	0	0	0	179.243934942962	179.293908014224	0.0499730712617747
222274	50	561	0	0	radish	1274	252	1	stimuli\radish\radish_02s.jpg	1	-1	1	0	radish_02s.jpg	0	0	0	179.343933016848	179.393919010035	0.0499859931878746
222374	50	562	0	0	reel	1299	253	1	stimuli\reel\reel_07s.jpg	6	-1	1	0	reel_07s.jpg	0	0	0	179.443937917415	179.493914645835	0.0499767284200061
222474	50	563	0	0	banana	63	254	1	stimuli\banana\banana_01b.jpg	0	-1	1	0	banana_01b.jpg	0	0	0	179.543943305616	179.593932955904	0.0499896502878983
222574	50	564	0	0	bowl	177	255	1	stimuli\bowl\bowl_02s.jpg	1	-1	1	0	bowl_02s.jpg	0	0	0	179.643948206154	179.693929079338	0.0499808731838129
222674	50	565	0	0	shoe	1423	256	1	stimuli\shoe\shoe_08s.jpg	7	-1	1	0	shoe_08s.jpg	0	0	0	179.74396432194	179.793933736102	0.049969414161751
222774	50	566	0	0	torpedo	1684	257	1	stimuli\torpedo\torpedo_10s.jpg	9	-1	1	0	torpedo_10s.jpg	0	0	0	179.843954106356	179.893948876648	0.0499947702919599
222874	50	567	0	0	shoelace	1426	258	1	stimuli\shoelace\shoelace_12s.jpg	11	-1	1	0	shoelace_12s.jpg	0	0	0	179.943959006923	179.993933784863	0.0499747779394966
222974	50	568	0	0	whiteboard	1813	259	1	stimuli\whiteboard\whiteboard_05s.jpg	4	-1	1	0	whiteboard_05s.jpg	1	0	0	180.043988044577	180.093936734949	0.0499486903718207
223074	50	569	0	0	sugar_cube	1579	260	1	stimuli\sugar_cube\sugar_cube_05s.jpg	4	-1	1	0	sugar_cube_05s.jpg	0	0	0	180.143961737573	180.193946999323	0.0499852617504075
223174	50	570	0	0	chisel	336	261	1	stimuli\chisel\chisel_01b.jpg	0	-1	1	0	chisel_01b.jpg	0	0	0	180.243957861006	180.293961408432	0.050003547425149
223274	50	571	0	0	amber	18	262	1	stimuli\amber\amber_03s.jpg	2	-1	1	0	amber_03s.jpg	0	0	0	180.343957153964	180.393969478522	0.0500123245583382
223374	50	572	0	0	tulip	1726	263	1	stimuli\tulip\tulip_07s.jpg	6	-1	1	0	tulip_07s.jpg	0	0	0	180.443951814552	180.493969502888	0.0500176883360837
223474	50	573	0	0	patty	1126	264	1	stimuli\patty\patty_07s.jpg	6	-1	1	0	patty_07s.jpg	0	0	0	180.543963785574	180.593942708278	0.0499789227033034
223574	50	574	0	0	card	271	265	1	stimuli\card\card_09s.jpg	8	-1	1	0	card_09s.jpg	0	0	0	180.643967467098	180.693949559296	0.0499820921977516
223674	50	575	0	0	horse	798	266	1	stimuli\horse\horse_07s.jpg	6	-1	1	0	horse_07s.jpg	0	0	0	180.743968222901	180.793949583691	0.0499813607893884
223774	50	576	0	0	ottoman	1086	267	1	stimuli\ottoman\ottoman_08s.jpg	7	-1	1	0	ottoman_08s.jpg	0	0	0	180.84397044155	180.893956434738	0.0499859931878746
223874	50	577	0	0	candy	255	268	1	stimuli\candy\candy_08s.jpg	7	-1	1	0	candy_08s.jpg	0	0	0	180.943975829752	180.993952558172	0.0499767284200061
223974	50	578	0	0	petal	1158	269	1	stimuli\petal\petal_12s.jpg	11	-1	1	0	petal_12s.jpg	0	0	0	181.043974878878	181.093955752061	0.0499808731838129
224074	50	579	0	0	carriage	276	270	1	stimuli\carriage\carriage_02s.jpg	1	-1	1	0	carriage_02s.jpg	0	0	0	181.143978316599	181.193956995499	0.0499786789005157
224174	50	580	0	0	nail	1046	271	1	stimuli\nail\nail_03s.jpg	2	-1	1	0	nail_03s.jpg	0	0	0	181.244026127562	181.29398481411	0.0499586865480524
224274	50	581	0	0	tamale	1618	272	1	stimuli\tamale\tamale_09s.jpg	8	-1	1	0	tamale_09s.jpg	0	0	0	181.344008110085	181.393989714677	0.0499816045921762
224374	50	582	0	0	crab	428	273	1	stimuli\crab\crab_05s.jpg	4	-1	1	0	crab_05s.jpg	0	0	0	181.444000332558	181.493962676235	0.0499623436771799
224474	50	583	0	0	jackhammer	837	274	1	stimuli\jackhammer\jackhammer_11s.jpg	10	-1	1	0	jackhammer_11s.jpg	0	0	0	181.543988897902	181.593996102485	0.0500072045833804
224574	50	584	0	0	whale	1804	275	1	stimuli\whale\whale_05s.jpg	4	-1	1	0	whale_05s.jpg	0	0	0	181.644015253667	181.693997102091	0.0499818484240677
224674	50	585	0	0	crucifix	449	276	1	stimuli\crucifix\crucifix_07s.jpg	6	-1	1	0	crucifix_07s.jpg	0	0	0	181.74401698471	181.793998833135	0.0499818484240677
224774	50	586	0	0	shaving_cream	1410	277	1	stimuli\shaving_cream\shaving_cream_11s.jpg	10	-1	1	0	shaving_cream_11s.jpg	0	0	0	181.843996529147	181.893979840388	0.0499833112407941
224874	50	587	0	0	cat	284	278	1	stimuli\cat\cat_07s.jpg	6	-1	1	0	cat_07s.jpg	0	0	0	181.94399728495	181.993972794327	0.0499755093769636
224974	50	588	0	0	plant	1194	279	1	stimuli\plant\plant_10s.jpg	9	-1	1	0	plant_10s.jpg	0	0	0	182.043998528359	182.093975744414	0.0499772160546854
225074	50	589	0	0	hoodie	792	280	1	stimuli\hoodie\hoodie_02s.jpg	1	-1	1	0	hoodie_02s.jpg	0	0	0	182.143998308951	182.19401721633	0.0500189073791262
225174	50	590	0	0	knitting_needle	881	281	1	stimuli\knitting_needle\knitting_needle_05s.jpg	4	-1	1	0	knitting_needle_05s.jpg	0	0	0	182.244031491369	182.294011876918	0.0499803855491336
225274	50	591	0	0	battery	97	282	1	stimuli\battery\battery_09n.jpg	8	-1	1	0	battery_09n.jpg	1	0	0	182.344034441456	182.394016533683	0.0499820922268555
225374	50	592	0	0	valve	1751	283	1	stimuli\valve\valve_09s.jpg	8	-1	1	0	valve_09s.jpg	0	0	0	182.444033978216	182.494011925679	0.0499779474630486
225474	50	593	0	0	highchair	777	284	1	stimuli\highchair\highchair_03s.jpg	2	-1	1	0	highchair_03s.jpg	0	0	0	182.544039366388	182.594023165293	0.0499837989045773
225574	50	594	0	0	corset	418	285	1	stimuli\corset\corset_11s.jpg	10	-1	1	0	corset_11s.jpg	0	0	0	182.644040609826	182.694010999199	0.049970389372902
225674	50	595	0	0	mold2	1013	286	1	stimuli\mold2\mold2_12s.jpg	11	-1	1	0	mold2_12s.jpg	0	0	0	182.744024542801	182.793998833135	0.0499742903339211
225774	50	596	0	0	generator	671	287	1	stimuli\generator\generator_10s.jpg	9	-1	1	0	generator_10s.jpg	0	0	0	182.844020178629	182.893996907049	0.0499767284200061
225874	50	597	0	0	limousine	931	288	1	stimuli\limousine\limousine_10s.jpg	9	-1	1	0	limousine_10s.jpg	0	0	0	182.944027273479	182.994003026659	0.0499757531797513
225974	50	598	0	0	lumber	949	289	1	stimuli\lumber\lumber_02s.jpg	1	-1	1	0	lumber_02s.jpg	0	0	0	183.044051678764	183.094028163381	0.0499764846172184
226074	50	599	0	0	bell	116	290	1	stimuli\bell\bell_03s.jpg	2	-1	1	0	bell_03s.jpg	0	0	0	183.144049752678	183.19403135727	0.0499816045921762
226174	50	600	0	0	jet	847	291	1	stimuli\jet\jet_05s.jpg	4	-1	1	0	jet_05s.jpg	0	0	0	183.244051239919	183.294033088314	0.0499818483949639
226274	50	601	0	0	sink	1447	292	1	stimuli\sink\sink_01b.jpg	0	-1	1	0	sink_01b.jpg	0	0	0	183.344055409048	183.394016533683	0.0499611246341374
226374	50	602	0	0	bassoon	86	293	1	stimuli\bassoon\bassoon_08s.jpg	7	-1	1	0	bassoon_08s.jpg	0	0	0	183.444032271567	183.49400729331	0.0499750217422843
226474	50	603	0	0	noodle	1061	294	1	stimuli\noodle\noodle_07s.jpg	6	-1	1	0	noodle_07s.jpg	0	0	0	183.544032539736	183.594011218636	0.0499786789005157
226574	50	604	0	0	polygraph	1217	295	1	stimuli\polygraph\polygraph_12s.jpg	11	-1	1	0	polygraph_12s.jpg	0	0	0	183.6440371965	183.69401953253	0.0499823360296432
226674	50	605	0	0	drain	515	296	1	stimuli\drain\drain_09s.jpg	8	-1	1	0	drain_09s.jpg	1	0	0	183.74404892372	183.794020288333	0.0499713646131568
226774	50	606	0	0	chest2	320	297	1	stimuli\chest2\chest2_10s.jpg	9	-1	1	0	chest2_10s.jpg	0	0	0	183.84404748524	183.894028602226	0.0499811169866007
226874	50	607	0	0	spinach	1515	298	1	stimuli\spinach\spinach_10s.jpg	9	-1	1	0	spinach_10s.jpg	0	0	0	183.944078961009	183.994039110403	0.0499601493938826
226974	50	608	0	0	trigger	1713	299	1	stimuli\trigger\trigger_08s.jpg	7	-1	1	0	trigger_08s.jpg	0	0	0	184.04407484064	184.094055957627	0.0499811169866007
227074	50	609	0	0	vent	1758	300	1	stimuli\vent\vent_02s.jpg	1	-1	1	0	vent_02s.jpg	0	0	0	184.144056335528	184.194037696318	0.0499813607893884
227174	50	610	0	0	rearview_mirror	1293	301	1	stimuli\rearview_mirror\rearview_mirror_05s.jpg	4	-1	1	0	rearview_mirror_05s.jpg	0	0	0	184.244055384654	184.294034307357	0.0499789227033034
227274	50	611	0	0	butter	228	302	1	stimuli\butter\butter_04s.jpg	3	-1	1	0	butter_04s.jpg	0	0	0	184.344058578572	184.394037501275	0.0499789227033034
227374	50	612	0	0	bag	54	303	1	stimuli\bag\bag_07s.jpg	6	-1	1	0	bag_07s.jpg	0	0	0	184.444062747702	184.494066051324	0.0500033036223613
227474	50	613	0	0	bear	105	304	1	stimuli\bear\bear_05s.jpg	4	-1	1	0	bear_05s.jpg	0	0	0	184.544088859664	184.594068757608	0.0499798979435582
227574	50	614	0	0	balance_beam	58	305	1	stimuli\balance_beam\balance_beam_06s.jpg	5	-1	1	0	balance_beam_06s.jpg	0	0	0	184.644095954514	184.6940721953	0.0499762407853268
227674	50	615	0	0	bus	226	306	1	stimuli\bus\bus_06n.jpg	5	-1	1	0	bus_06n.jpg	0	0	0	184.744092077948	184.794058810192	0.0499667322437745
227774	50	616	0	0	van	1752	307	1	stimuli\van\van_12s.jpg	11	-1	1	0	van_12s.jpg	0	0	0	184.844096734683	184.894083459279	0.0499867245962378
227874	50	617	0	0	go-kart	682	308	1	stimuli\go-kart\go-kart_06s.jpg	5	-1	1	0	go-kart_06s.jpg	0	0	0	184.944086519099	184.994063735125	0.0499772160255816
253008	50	618	0	0	sprouts	1524	0	2	stimuli\sprouts\sprouts_08s.jpg	7	-1	2	0	sprouts_08s.jpg	0	0	0	210.078072318196	210.128013938083	0.0499416198872495
253108	50	619	0	0	revolving_door	1305	1	2	stimuli\revolving_door\revolving_door_11s.jpg	10	-1	2	0	revolving_door_11s.jpg	0	0	0	210.178036258818	210.228014206281	0.0499779474630486
253208	50	620	0	0	lip_gloss	935	2	2	stimuli\lip_gloss\lip_gloss_03s.jpg	2	-1	2	0	lip_gloss_03s.jpg	0	0	0	210.278064565064	210.328043000132	0.0499784350686241
253308	50	621	0	0	thorn	1650	3	2	stimuli\thorn\thorn_12s.jpg	11	-1	2	0	thorn_12s.jpg	0	0	0	210.37806556467	210.428030834068	0.0499652693979442
253408	50	622	0	0	toy	1694	4	2	stimuli\toy\toy_09s.jpg	8	-1	2	0	toy_09s.jpg	0	0	0	210.47805096049	210.528058408876	0.0500074483861681
253508	50	623	0	0	toolbox	1677	5	2	stimuli\toolbox\toolbox_06s.jpg	5	-1	2	0	toolbox_06s.jpg	0	0	0	210.578063906782	210.628036978043	0.0499730712617747
253608	50	624	0	0	sauerkraut	1364	6	2	stimuli\sauerkraut\sauerkraut_12s.jpg	11	-1	2	0	sauerkraut_12s.jpg	0	0	0	210.678058811143	210.728039440524	0.0499806293810252
253708	50	625	0	0	fire_hydrant	592	7	2	stimuli\fire_hydrant\fire_hydrant_07s.jpg	6	-1	2	0	fire_hydrant_07s.jpg	0	0	0	210.778072245041	210.828044828697	0.0499725836561993
253808	50	626	0	0	bookshelf	167	8	2	stimuli\bookshelf\bookshelf_05s.jpg	4	-1	2	0	bookshelf_05s.jpg	0	0	0	210.878063492302	210.928045828332	0.0499823360296432
253908	50	627	0	0	bird	128	9	2	stimuli\bird\bird_09s.jpg	8	-1	2	0	bird_09s.jpg	0	0	0	210.978064491908	211.028044633655	0.0499801417463459
254008	50	628	0	0	defibrillator	477	10	2	stimuli\defibrillator\defibrillator_10s.jpg	9	-1	2	0	defibrillator_10s.jpg	0	0	0	211.078074512479	211.128058311355	0.0499837988754734
254108	50	629	0	0	organ	1082	11	2	stimuli\organ\organ_11s.jpg	10	-1	2	0	organ_11s.jpg	0	0	0	211.178072098759	211.228051752871	0.0499796541116666
254208	50	630	0	0	jumpsuit	859	12	2	stimuli\jumpsuit\jumpsuit_12s.jpg	11	-1	2	0	jumpsuit_12s.jpg	0	0	0	211.278097966919	211.32807469531	0.0499767283909023
254308	50	631	0	0	sandcastle	1355	13	2	stimuli\sandcastle\sandcastle_04s.jpg	3	-1	2	0	sandcastle_04s.jpg	0	0	0	211.378100429371	211.428059603524	0.0499591741536278
254408	50	632	0	0	canoe	262	14	2	stimuli\canoe\canoe_06s.jpg	5	-1	2	0	canoe_06s.jpg	0	0	0	211.478098015679	211.528061090765	0.0499630750855431
254508	50	633	0	0	skull	1458	15	2	stimuli\skull\skull_08s.jpg	7	-1	2	0	skull_08s.jpg	0	0	0	211.578081217216	211.628064284683	0.0499830674671102
254608	50	634	0	0	thermos	1647	16	2	stimuli\thermos\thermos_02s.jpg	1	-1	2	0	thermos_02s.jpg	0	0	0	211.678080510173	211.728060164285	0.0499796541116666
254708	50	635	0	0	game	654	17	2	stimuli\game\game_02s.jpg	1	-1	2	0	game_02s.jpg	0	0	0	211.77808906787	211.828067990573	0.0499789227033034
254808	50	636	0	0	door	506	18	2	stimuli\door\door_03s.jpg	2	-1	2	0	door_03s.jpg	0	0	0	211.878086654149	211.92806533305	0.0499786789005157
254908	50	637	0	0	torch	1683	19	2	stimuli\torch\torch_06s.jpg	5	-1	2	0	torch_06s.jpg	0	0	0	211.978090823308	212.028072671703	0.0499818483949639
255008	50	638	0	0	basketball	83	20	2	stimuli\basketball\basketball_10s.jpg	9	-1	2	0	basketball_10s.jpg	0	0	0	212.078093041957	212.12807001418	0.0499769722227938
255108	50	639	0	0	apron	33	21	2	stimuli\apron\apron_02s.jpg	1	-1	2	0	apron_02s.jpg	0	0	0	212.178093553957	212.228078571876	0.049985017918516
255208	50	640	0	0	nacho	1045	22	2	stimuli\nacho\nacho_12s.jpg	11	-1	2	0	nacho_12s.jpg	0	0	0	212.278102355456	212.328098832426	0.0499964769696817
255308	50	641	0	0	leggings	912	23	2	stimuli\leggings\leggings_11s.jpg	10	-1	2	0	leggings_11s.jpg	0	0	0	212.378124322684	212.428102026315	0.0499777036311571
255408	50	642	0	0	cable	234	24	2	stimuli\cable\cable_12s.jpg	11	-1	2	0	cable_12s.jpg	0	0	0	212.478122884204	212.52809546786	0.0499725836561993
255508	50	643	0	0	straw1	1568	25	2	stimuli\straw1\straw1_03s.jpg	2	-1	2	0	straw1_03s.jpg	0	0	0	212.578106329544	212.628088909405	0.0499825798615348
255608	50	644	0	0	golf_cart	689	26	2	stimuli\golf_cart\golf_cart_12s.jpg	11	-1	2	0	golf_cart_12s.jpg	0	0	0	212.678109035827	212.728094785183	0.049985749355983
255708	50	645	0	0	bologna	158	27	2	stimuli\bologna\bologna_06s.jpg	5	-1	2	0	bologna_06s.jpg	0	0	0	212.778117837355	212.828094078141	0.0499762407853268
255808	50	646	0	0	spear	1510	28	2	stimuli\spear\spear_10s.jpg	9	-1	2	0	spear_10s.jpg	0	0	0	212.878115423635	212.928096296819	0.0499808731838129
255908	50	647	0	0	tongs	1674	29	2	stimuli\tongs\tongs_06s.jpg	5	-1	2	0	tongs_06s.jpg	0	0	0	212.978118617524	213.02810534212	0.0499867245962378
256008	50	648	0	0	calzone	243	30	2	stimuli\calzone\calzone_10s.jpg	9	-1	2	0	calzone_10s.jpg	0	0	0	213.078127906658	213.128103172232	0.0499752655741759
256108	50	649	0	0	emerald	555	31	2	stimuli\emerald\emerald_02s.jpg	1	-1	2	0	emerald_02s.jpg	0	0	0	213.178125249135	213.228123676585	0.0499984274501912
256208	50	650	0	0	coffee	377	32	2	stimuli\coffee\coffee_07s.jpg	6	-1	2	0	coffee_07s.jpg	0	0	0	213.278147460165	213.328110535251	0.0499630750855431
256308	50	651	0	0	beaker	101	33	2	stimuli\beaker\beaker_10s.jpg	9	-1	2	0	beaker_10s.jpg	0	0	0	213.378144802642	213.428114704409	0.0499699017673265
256408	50	652	0	0	fruitcake	646	34	2	stimuli\fruitcake\fruitcake_01b.jpg	0	-1	2	0	fruitcake_01b.jpg	0	0	0	213.478146533686	213.528129357321	0.0499828236352187
256508	50	653	0	0	bathtub	91	35	2	stimuli\bathtub\bathtub_03s.jpg	2	-1	2	0	bathtub_03s.jpg	0	0	0	213.57813241714	213.628111583646	0.0499791665060911
256608	50	654	0	0	quesadilla	1261	36	2	stimuli\quesadilla\quesadilla_06s.jpg	5	-1	2	0	quesadilla_06s.jpg	0	0	0	213.678135854832	213.728114777536	0.0499789227033034
256708	50	655	0	0	flipper	615	37	2	stimuli\flipper\flipper_07s.jpg	6	-1	2	0	flipper_07s.jpg	0	0	0	213.77813709827	213.828117483819	0.0499803855491336
