onset	duration	eventnumber	blocksequencenumber	isteststim	object	objectnumber	presentationnumber	sequencenumber	stim	stimnumber	teststimnumber	withinsequencenumber	istarget	stimname	response	rt	correct	time_stimon	time_stimoff	stimdur
12844	50	0	0	0	seahorse	1396	0	0	stimuli\seahorse\seahorse_10s.jpg	9	-1	0	0	seahorse_10s.jpg	0	0	0	197.511452721137	197.56142665787	0.049973936733295
12944	50	1	0	0	prune	1244	1	0	stimuli\prune\prune_10s.jpg	9	-1	0	0	prune_10s.jpg	0	0	0	197.611445455605	197.661420855196	0.0499753995918581
13044	50	2	0	0	bracelet1	187	2	0	stimuli\bracelet1\bracelet1_10s.jpg	9	-1	0	0	bracelet1_10s.jpg	0	0	0	197.711439652932	197.761434069687	0.0499944167549984
13144	50	3	0	0	rabbit	1265	3	0	stimuli\rabbit\rabbit_03s.jpg	2	-1	0	0	rabbit_03s.jpg	0	0	0	197.811493583658	197.86143484988	0.0499412662211398
13244	50	4	0	0	sauce	1362	4	0	stimuli\sauce\sauce_07s.jpg	6	-1	0	0	sauce_07s.jpg	0	0	0	197.911446089511	197.96143563007	0.0499895405591815
13344	50	5	0	0	tube_top	1724	5	0	stimuli\tube_top\tube_top_04s.jpg	3	-1	0	0	tube_top_04s.jpg	0	0	0	198.011452477327	198.061990589917	0.0505381125894928
13444	50	6	0	0	squirrel	1529	6	0	stimuli\squirrel\squirrel_09s.jpg	8	-1	0	0	squirrel_09s.jpg	0	0	0	198.111453988948	198.161435483784	0.0499814948361745
13544	50	7	0	0	tree_trunk	1709	7	0	stimuli\tree_trunk\tree_trunk_11s.jpg	10	-1	0	0	tree_trunk_11s.jpg	0	0	0	198.2114537939	198.261445772558	0.0499919786579994
13644	50	8	0	0	reel	1299	8	0	stimuli\reel\reel_12s.jpg	11	-1	0	0	reel_12s.jpg	0	0	0	198.311463595053	198.36144582132	0.0499822262663656
13744	50	9	0	0	necklace	1054	9	0	stimuli\necklace\necklace_02s.jpg	1	-1	0	0	necklace_02s.jpg	0	0	0	198.411462180957	198.46144684532	0.0499846643633646
13844	50	10	0	0	barbell	72	10	0	stimuli\barbell\barbell_05s.jpg	4	-1	0	0	barbell_05s.jpg	0	0	0	198.511468324963	198.561450063609	0.0499817386462382
13944	50	11	0	0	ready_meal	1292	11	0	stimuli\ready_meal\ready_meal_07s.jpg	6	-1	0	0	ready_meal_07s.jpg	0	0	0	198.611466910867	198.661454257139	0.0499873462722462
14044	50	12	0	0	hash	756	12	0	stimuli\hash\hash_10s.jpg	9	-1	0	0	hash_10s.jpg	0	0	0	198.711468666297	198.761454062091	0.0499853957935557
14144	50	13	0	0	lanyard	896	13	0	stimuli\lanyard\lanyard_02s.jpg	1	-1	0	0	lanyard_02s.jpg	0	0	0	198.811481393168	198.861459230859	0.0499778376906761
14244	50	14	0	0	orchid	1081	14	0	stimuli\orchid\orchid_06s.jpg	5	-1	0	0	orchid_06s.jpg	0	0	0	198.911476078114	198.961457816762	0.0499817386480572
14344	50	15	0	0	tag	1616	15	0	stimuli\tag\tag_01b.jpg	0	-1	0	0	tag_01b.jpg	0	0	0	199.011488073556	199.061466886486	0.0499788129291119
14444	50	16	0	0	bun	220	16	0	stimuli\bun\bun_03s.jpg	2	-1	0	0	bun_03s.jpg	0	0	0	199.111481295644	199.161461327622	0.0499800319776114
14544	50	17	0	0	seaplane	1398	17	0	stimuli\seaplane\seaplane_09s.jpg	8	-1	0	0	seaplane_09s.jpg	0	0	0	199.211479393927	199.261481368787	0.0500019748596969
14644	50	18	0	0	lip_gloss	935	18	0	stimuli\lip_gloss\lip_gloss_10s.jpg	9	-1	0	0	lip_gloss_10s.jpg	0	0	0	199.311496021755	199.361467520392	0.049971498636296
14744	50	19	0	0	pot	1230	19	0	stimuli\pot\pot_10s.jpg	9	-1	0	0	pot_10s.jpg	0	0	0	199.411488024794	199.461476102495	0.0499880777006183
14844	50	20	0	0	tattoo	1629	20	0	stimuli\tattoo\tattoo_03s.jpg	2	-1	0	0	tattoo_03s.jpg	0	0	0	199.511491243084	199.561480052214	0.0499888091308094
14944	50	21	0	0	fern	577	21	0	stimuli\fern\fern_05s.jpg	4	-1	0	0	fern_05s.jpg	0	0	0	199.611501531857	199.661482782883	0.0499812510261108
15044	50	22	0	0	helicopter	775	22	0	stimuli\helicopter\helicopter_08s.jpg	7	-1	0	0	helicopter_08s.jpg	0	0	0	199.711499386331	199.7614891707	0.0499897843692452
15144	50	23	0	0	sparkler	1507	23	0	stimuli\sparkler\sparkler_12s.jpg	11	-1	0	0	sparkler_12s.jpg	0	0	0	199.811502117	199.861482636597	0.0499805195977387
15244	50	24	0	0	keg	866	24	0	stimuli\keg\keg_01b.jpg	0	-1	0	0	keg_01b.jpg	0	0	0	199.911501921953	199.961485611078	0.0499836891249288
15344	50	25	0	0	leech	909	25	0	stimuli\leech\leech_01b.jpg	0	-1	0	0	leech_01b.jpg	0	0	0	200.011506115481	200.061494924612	0.0499888091308094
15444	50	26	0	0	centerpiece	295	26	0	stimuli\centerpiece\centerpiece_07s.jpg	6	-1	0	0	centerpiece_07s.jpg	0	0	0	200.111506651863	200.16148887813	0.0499822262663656
15544	50	27	0	0	telegraph	1638	27	0	stimuli\telegraph\telegraph_03s.jpg	2	-1	0	1	telegraph_03s.jpg	0	0	0	200.211511089201	200.261499410712	0.049988321510682
15644	50	28	0	0	trombone	1716	28	0	stimuli\trombone\trombone_03s.jpg	2	-1	0	0	trombone_03s.jpg	0	0	0	200.311517964637	200.361500434712	0.0499824700746103
15744	50	29	0	0	beaker	101	29	0	stimuli\beaker\beaker_05n.jpg	4	-1	0	0	beaker_05n.jpg	0	0	0	200.411520207686	200.461499995856	0.0499797881693667
15844	50	30	0	0	brace	186	30	0	stimuli\brace\brace_12s.jpg	11	-1	0	0	brace_12s.jpg	0	0	0	200.511523425976	200.561501019856	0.0499775938806124
15944	50	31	0	0	jersey	846	31	0	stimuli\jersey\jersey_12s.jpg	11	-1	0	0	jersey_12s.jpg	0	0	0	200.611523474738	200.661509358151	0.049985883413683
16044	50	32	0	0	board_game	153	32	0	stimuli\board_game\board_game_06s.jpg	5	-1	0	0	board_game_06s.jpg	0	0	0	200.711527912077	200.761514039299	0.0499861272219277
16144	50	33	0	0	paper_bag	1113	33	0	stimuli\paper_bag\paper_bag_09s.jpg	8	-1	0	0	paper_bag_09s.jpg	0	0	0	200.811533080843	200.861512869013	0.0499797881693667
16244	50	34	0	0	fire_alarm	591	34	0	stimuli\fire_alarm\fire_alarm_12s.jpg	11	-1	0	0	fire_alarm_12s.jpg	0	0	0	200.911534836274	200.961514624443	0.0499797881693667
16344	50	35	0	0	ham	739	35	0	stimuli\ham\ham_10s.jpg	9	-1	0	0	ham_10s.jpg	0	0	0	201.011540736472	201.061517111302	0.0499763748302939
16444	50	36	0	0	rollerskate	1327	36	0	stimuli\rollerskate\rollerskate_07s.jpg	6	-1	0	0	rollerskate_07s.jpg	0	0	0	201.111537128087	201.161520817212	0.0499836891249288
16544	50	37	0	0	sifter	1443	37	0	stimuli\sifter\sifter_03s.jpg	2	-1	0	0	sifter_03s.jpg	0	0	0	201.211537908277	201.261525985979	0.0499880777024373
16644	50	38	0	0	lab_coat	885	38	0	stimuli\lab_coat\lab_coat_01b.jpg	0	-1	0	0	lab_coat_01b.jpg	0	0	0	201.311546490382	201.361533349034	0.0499868586521188
16744	50	39	0	0	towel_rack	1693	39	0	stimuli\towel_rack\towel_rack_07s.jpg	6	-1	0	0	towel_rack_07s.jpg	0	0	0	201.411548733433	201.461531203509	0.0499824700764293
16844	50	40	0	0	plum	1203	40	0	stimuli\plum\plum_06s.jpg	5	-1	0	0	plum_06s.jpg	0	0	0	201.511554146009	201.561547099907	0.0499929538982542
16944	50	41	0	0	peppermint	1152	41	0	stimuli\peppermint\peppermint_08s.jpg	7	-1	0	0	peppermint_08s.jpg	0	0	0	201.611548830957	201.661530569603	0.0499817386462382
17044	50	42	0	0	handlebar	749	42	0	stimuli\handlebar\handlebar_06s.jpg	5	-1	0	0	handlebar_06s.jpg	0	0	0	201.711549854957	201.761535006941	0.049985151983492
17144	50	43	0	0	rice	1309	43	0	stimuli\rice\rice_03s.jpg	2	-1	0	0	rice_03s.jpg	0	0	0	201.811553073247	201.86153871285	0.0499856396036193
17244	50	44	0	0	silicone	1444	44	0	stimuli\silicone\silicone_04s.jpg	3	-1	0	0	silicone_04s.jpg	0	0	0	201.911557754394	201.961544613046	0.0499868586521188
17344	50	45	0	0	piglet	1173	45	0	stimuli\piglet\piglet_07s.jpg	6	-1	0	0	piglet_07s.jpg	0	0	0	202.011563654592	202.061547587526	0.0499839329331735
17444	50	46	0	0	bank	69	46	0	stimuli\bank\bank_11s.jpg	10	-1	0	0	bank_11s.jpg	0	0	0	202.111566872882	202.161546173429	0.0499793005474203
17544	50	47	0	0	throne	1652	47	0	stimuli\throne\throne_09s.jpg	8	-1	0	0	throne_09s.jpg	0	0	0	202.211565214975	202.261551342197	0.0499861272219277
17644	50	48	0	0	orange	1078	48	0	stimuli\orange\orange_06s.jpg	5	-1	0	0	orange_06s.jpg	0	0	0	202.311578917084	202.361555291916	0.0499763748321129
17744	50	49	0	0	rack1	1268	49	0	stimuli\rack1\rack1_11s.jpg	10	-1	0	0	rack1_11s.jpg	0	0	0	202.411569701075	202.461555584488	0.049985883413683
17844	50	50	0	0	cream	436	50	0	stimuli\cream\cream_02s.jpg	1	-1	0	0	cream_02s.jpg	0	0	0	202.511579014608	202.561561728495	0.049982713886493
17944	50	51	0	0	muff	1034	51	0	stimuli\muff\muff_04s.jpg	3	-1	0	0	muff_04s.jpg	0	0	0	202.611581501469	202.661562508685	0.0499810072160471
18044	50	52	0	0	jug	853	52	0	stimuli\jug\jug_07s.jpg	6	-1	0	0	jug_07s.jpg	0	0	0	202.711595447388	202.761566458405	0.0499710110161686
18144	50	53	0	0	birdbath	129	53	0	stimuli\birdbath\birdbath_10s.jpg	9	-1	0	0	birdbath_10s.jpg	0	0	0	202.811587450427	202.861568457645	0.0499810072178661
18244	50	54	0	0	aluminum_foil	17	54	0	stimuli\aluminum_foil\aluminum_foil_04s.jpg	3	-1	0	0	aluminum_foil_04s.jpg	0	0	0	202.911589693478	202.961582891185	0.0499931977064989
18344	50	55	0	0	alpaca	15	55	0	stimuli\alpaca\alpaca_02s.jpg	1	-1	0	0	alpaca_02s.jpg	0	0	0	203.011597056533	203.061570749456	0.0499736929232313
18444	50	56	0	0	saddle	1343	56	0	stimuli\saddle\saddle_12s.jpg	11	-1	0	0	saddle_12s.jpg	0	0	0	203.111589791002	203.161572748697	0.0499829576947377
18544	50	57	0	0	mustard	1044	57	0	stimuli\mustard\mustard_07s.jpg	6	-1	0	0	mustard_07s.jpg	0	0	0	203.211607881687	203.261579867944	0.0499719862564234
18644	50	58	0	0	window	1818	58	0	stimuli\window\window_08s.jpg	7	-1	0	0	window_08s.jpg	0	0	0	203.311599640918	203.361580160514	0.0499805195959198
18744	50	59	0	0	blind	140	59	0	stimuli\blind\blind_02s.jpg	1	-1	0	0	blind_02s.jpg	0	0	0	203.411597739201	203.461584354043	0.0499866148420551
18844	50	60	0	0	siren	1448	60	0	stimuli\siren\siren_06s.jpg	5	-1	0	0	siren_06s.jpg	0	0	0	203.5116111975	203.561588791381	0.0499775938806124
18944	50	61	0	0	pipe2	1187	61	0	stimuli\pipe2\pipe2_04s.jpg	3	-1	0	0	pipe2_04s.jpg	0	0	0	203.611602712921	203.661585670616	0.0499829576947377
19044	50	62	0	0	cup	460	62	0	stimuli\cup\cup_07s.jpg	6	-1	0	0	cup_07s.jpg	0	0	0	203.711628361711	203.761592546052	0.0499641843416612
19144	50	63	0	0	backgammon	48	63	0	stimuli\backgammon\backgammon_10s.jpg	9	-1	0	0	backgammon_10s.jpg	0	0	0	203.811617195222	203.861591619574	0.0499744243516034
19244	50	64	0	0	gauge	663	64	0	stimuli\gauge\gauge_07s.jpg	6	-1	0	0	gauge_07s.jpg	0	0	0	203.911615781126	203.961600445489	0.0499846643633646
19344	50	65	0	0	guardrail	720	65	0	stimuli\guardrail\guardrail_12s.jpg	11	-1	0	0	guardrail_12s.jpg	0	0	0	204.011619730843	204.061597812344	0.0499780815007398
19444	50	66	0	0	orangutan	1080	66	0	stimuli\orangutan\orangutan_01b.jpg	0	-1	0	0	orangutan_01b.jpg	0	0	0	204.111616610078	204.161599567775	0.0499829576965567
19544	50	67	0	0	chihuahua	326	67	0	stimuli\chihuahua\chihuahua_01b.jpg	0	-1	0	0	chihuahua_01b.jpg	0	0	0	204.211628117901	204.26160717464	0.0499790567391756
19644	50	68	0	0	toothpick	1681	68	0	stimuli\toothpick\toothpick_11s.jpg	10	-1	0	0	toothpick_11s.jpg	0	0	0	204.311626703804	204.361606248161	0.049979544357484
19744	50	69	0	0	videogame	1762	69	0	stimuli\videogame\videogame_09s.jpg	8	-1	0	0	videogame_09s.jpg	0	0	0	204.411624070659	204.461599714059	0.0499756434001029
19844	50	70	0	0	awning	44	70	0	stimuli\awning\awning_11s.jpg	10	-1	0	0	awning_11s.jpg	0	0	0	204.511633140382	204.561619999035	0.0499868586521188
19944	50	71	0	0	soda	1490	71	0	stimuli\soda\soda_06s.jpg	5	-1	0	0	soda_06s.jpg	0	0	0	204.611636846292	204.661616390649	0.049979544357484
20044	50	72	0	0	antenna	27	72	0	stimuli\antenna\antenna_09s.jpg	8	-1	0	0	antenna_09s.jpg	0	0	0	204.711641527439	204.761622534656	0.0499810072160471
20144	50	73	0	0	crow	446	73	0	stimuli\crow\crow_10s.jpg	9	-1	0	0	crow_10s.jpg	0	0	0	204.811644989539	204.861622827228	0.0499778376888571
20244	50	74	0	0	wok	1830	74	0	stimuli\wok\wok_10s.jpg	9	-1	0	0	wok_10s.jpg	0	0	0	204.911644306871	204.961627264567	0.0499829576965567
20344	50	75	0	0	slug	1472	75	0	stimuli\slug\slug_12s.jpg	11	-1	0	0	slug_12s.jpg	0	0	0	205.011646306111	205.06162511904	0.0499788129291119
20444	50	76	0	0	fox	638	76	0	stimuli\fox\fox_05s.jpg	4	-1	0	0	fox_05s.jpg	0	0	0	205.111645623443	205.16162833733	0.049982713886493
20544	50	77	0	0	shovel	1432	77	0	stimuli\shovel\shovel_07n.jpg	6	-1	0	0	shovel_07n.jpg	0	0	0	205.211654449358	205.261632287047	0.0499778376888571
20644	50	78	0	0	curtain	465	78	0	stimuli\curtain\curtain_08s.jpg	7	-1	0	0	curtain_08s.jpg	0	0	0	205.311648159066	205.361636480577	0.049988321510682
20744	50	79	0	0	nacho	1045	79	0	stimuli\nacho\nacho_01b.jpg	0	-1	0	0	nacho_01b.jpg	0	0	0	205.411655034501	205.461637504577	0.0499824700764293
20844	50	80	0	0	rooster	1330	80	0	stimuli\rooster\rooster_10s.jpg	9	-1	0	0	rooster_10s.jpg	0	0	0	205.511664104226	205.561648768589	0.0499846643633646
20944	50	81	0	0	floss	617	81	0	stimuli\floss\floss_07s.jpg	6	-1	0	0	floss_07s.jpg	0	0	0	205.611661714889	205.661642965917	0.0499812510279298
21044	50	82	0	0	raincoat	1279	82	0	stimuli\raincoat\raincoat_10s.jpg	9	-1	0	1	raincoat_10s.jpg	0	0	0	205.711669809374	205.761648378495	0.0499785691208672
21144	50	83	0	0	bassoon	86	83	0	stimuli\bassoon\bassoon_11s.jpg	10	-1	0	0	bassoon_11s.jpg	0	0	0	205.811666200991	205.861648671065	0.0499824700746103
21244	50	84	0	0	ferris_wheel	579	84	0	stimuli\ferris_wheel\ferris_wheel_11s.jpg	10	-1	0	0	ferris_wheel_11s.jpg	0	0	0	205.911665762133	205.961658716029	0.0499929538964352
21344	50	85	0	0	envelope	558	85	0	stimuli\envelope\envelope_05s.jpg	4	-1	0	0	envelope_05s.jpg	0	0	0	206.011675319476	206.06166095908	0.0499856396036193
21444	50	86	0	0	slipper	1468	86	0	stimuli\slipper\slipper_07s.jpg	6	-1	0	0	slipper_07s.jpg	0	0	0	206.111678050145	206.161661495462	0.0499834453166841
21544	50	87	0	0	cornucopia	416	87	0	stimuli\cornucopia\cornucopia_10s.jpg	9	-1	0	0	cornucopia_10s.jpg	0	0	0	206.211683218913	206.261663007082	0.0499797881693667
21644	50	88	0	0	mattress	985	88	0	stimuli\mattress\mattress_06s.jpg	5	-1	0	0	mattress_06s.jpg	0	0	0	206.311681561006	206.361665493941	0.0499839329349925
21744	50	89	0	0	cellphone	293	89	0	stimuli\cellphone\cellphone_12s.jpg	11	-1	0	0	cellphone_12s.jpg	0	0	0	206.411685266916	206.461665786514	0.0499805195977387
21844	50	90	0	0	wetsuit	1803	90	0	stimuli\wetsuit\wetsuit_08s.jpg	7	-1	0	0	wetsuit_08s.jpg	0	0	0	206.511692142352	206.561666810514	0.0499746681616671
21944	50	91	0	0	eel	545	91	0	stimuli\eel\eel_02s.jpg	1	-1	0	0	eel_02s.jpg	0	0	0	206.61168463301	206.661670760233	0.0499861272237467
22044	50	92	0	0	yolk	1850	92	0	stimuli\yolk\yolk_09s.jpg	8	-1	0	0	yolk_09s.jpg	0	0	0	206.711696140832	206.761677879478	0.0499817386462382
22144	50	93	0	0	yak	1845	93	0	stimuli\yak\yak_09s.jpg	8	-1	0	0	yak_09s.jpg	0	0	0	206.811697408642	206.861675002523	0.0499775938806124
22244	50	94	0	0	bazooka	98	94	0	stimuli\bazooka\bazooka_08s.jpg	7	-1	0	0	bazooka_08s.jpg	0	0	0	206.911693068829	206.961678220812	0.049985151983492
22344	50	95	0	0	lasagna	898	95	0	stimuli\lasagna\lasagna_01b.jpg	0	-1	0	0	lasagna_01b.jpg	0	0	0	207.011698237597	207.061681682912	0.0499834453148651
22444	50	96	0	0	letter_opener	919	96	0	stimuli\letter_opener\letter_opener_08s.jpg	7	-1	0	0	letter_opener_08s.jpg	0	0	0	207.111699017787	207.161683438342	0.0499844205551199
22544	50	97	0	0	bull	214	97	0	stimuli\bull\bull_06s.jpg	5	-1	0	0	bull_06s.jpg	0	0	0	207.211711013229	207.261692020447	0.0499810072178661
22644	50	98	0	0	pelican	1140	98	0	stimuli\pelican\pelican_06s.jpg	5	-1	0	0	pelican_06s.jpg	0	0	0	207.311707404844	207.361692313019	0.0499849081752473
22744	50	99	0	0	rolling_pin	1328	99	0	stimuli\rolling_pin\rolling_pin_11s.jpg	10	-1	0	0	rolling_pin_11s.jpg	0	0	0	207.411708185036	207.461695775117	0.0499875900804909
22844	50	100	0	0	air_mattress	5	100	0	stimuli\air_mattress\air_mattress_03s.jpg	2	-1	0	0	air_mattress_03s.jpg	0	0	0	207.511715060473	207.561693141972	0.0499780814989208
22944	50	101	0	0	egg	546	101	0	stimuli\egg\egg_09s.jpg	8	-1	0	0	egg_09s.jpg	0	0	0	207.611713158756	207.661694409782	0.0499812510261108
23044	50	102	0	0	vegetable	1754	102	0	stimuli\vegetable\vegetable_11s.jpg	10	-1	0	0	vegetable_11s.jpg	0	0	0	207.711724178958	207.761703967126	0.0499797881675477
23144	50	103	0	0	dish	489	103	0	stimuli\dish\dish_10s.jpg	9	-1	0	0	dish_10s.jpg	0	0	0	207.811714475329	207.861706697797	0.0499922224680631
23244	50	104	0	0	bowtie	180	104	0	stimuli\bowtie\bowtie_11s.jpg	10	-1	0	0	bowtie_11s.jpg	0	0	0	207.91172768982	207.961712110373	0.0499844205533009
23344	50	105	0	0	leash	907	105	0	stimuli\leash\leash_03s.jpg	2	-1	0	0	leash_03s.jpg	0	0	0	208.01172871382	208.061710696276	0.0499819824563019
23444	50	106	0	0	walker1	1773	106	0	stimuli\walker1\walker1_07s.jpg	6	-1	0	0	walker1_07s.jpg	0	0	0	208.111732419729	208.161715865044	0.0499834453148651
23544	50	107	0	0	cape	266	107	0	stimuli\cape\cape_09s.jpg	8	-1	0	0	cape_09s.jpg	0	0	0	208.211730274203	208.261715913806	0.0499856396036193
23644	50	108	0	0	grain	698	108	0	stimuli\grain\grain_10s.jpg	9	-1	0	0	grain_10s.jpg	0	0	0	208.31173495535	208.361719132095	0.0499841767450562
23744	50	109	0	0	groundhog	718	109	0	stimuli\groundhog\groundhog_02s.jpg	1	-1	0	0	groundhog_02s.jpg	0	0	0	208.411743293645	208.461725763722	0.0499824700764293
23844	50	110	0	0	balloon	60	110	0	stimuli\balloon\balloon_06s.jpg	5	-1	0	0	balloon_06s.jpg	0	0	0	208.511746755745	208.561725568674	0.0499788129291119
23944	50	111	0	0	briefcase	200	111	0	stimuli\briefcase\briefcase_08s.jpg	7	-1	0	0	briefcase_08s.jpg	0	0	0	208.611741684501	208.661725861246	0.0499841767450562
24044	50	112	0	0	chandelier	305	112	0	stimuli\chandelier\chandelier_12s.jpg	11	-1	0	0	chandelier_12s.jpg	0	0	0	208.711747584699	208.761728835725	0.0499812510261108
24144	50	113	0	0	birdhouse	131	113	0	stimuli\birdhouse\birdhouse_12s.jpg	11	-1	0	0	birdhouse_12s.jpg	0	0	0	208.811746170602	208.861735467352	0.0499892967491178
24244	50	114	0	0	pinecone	1183	114	0	stimuli\pinecone\pinecone_01b.jpg	0	-1	0	0	pinecone_01b.jpg	0	0	0	208.91175012032	208.961731858966	0.0499817386462382
24344	50	115	0	0	chest2	320	115	0	stimuli\chest2\chest2_08s.jpg	7	-1	0	0	chest2_08s.jpg	0	0	0	209.011758214805	209.06174166012	0.0499834453148651
24444	50	116	0	0	ratchet	1286	116	0	stimuli\ratchet\ratchet_03s.jpg	2	-1	0	0	ratchet_03s.jpg	0	0	0	209.111758507377	209.161737807926	0.0499793005492393
24544	50	117	0	0	muffin	1035	117	0	stimuli\muffin\muffin_08n.jpg	7	-1	0	0	muffin_08n.jpg	0	0	0	209.211762457096	209.261748828128	0.0499863710319914
24644	50	118	0	0	sailboat	1347	118	0	stimuli\sailboat\sailboat_09s.jpg	8	-1	0	0	sailboat_09s.jpg	0	0	0	209.311761530618	209.361744975933	0.0499834453148651
24744	50	119	0	0	dolly	501	119	0	stimuli\dolly\dolly_01s.jpg	0	-1	0	0	dolly_01s.jpg	0	0	0	209.411762067	209.461748438032	0.0499863710319914
24844	50	120	0	0	tongs	1674	120	0	stimuli\tongs\tongs_09s.jpg	8	-1	0	0	tongs_09s.jpg	0	0	0	209.51176528529	209.561752631562	0.0499873462722462
24944	50	121	0	0	ottoman	1086	121	0	stimuli\ottoman\ottoman_04s.jpg	3	-1	0	0	ottoman_04s.jpg	0	0	0	209.611770210247	209.661751461274	0.0499812510261108
25044	50	122	0	0	fire	590	122	0	stimuli\fire\fire_05s.jpg	4	-1	0	0	fire_05s.jpg	0	0	0	209.711778548542	209.761761993857	0.0499834453148651
25144	50	123	0	0	map	970	123	0	stimuli\map\map_02s.jpg	1	-1	0	0	map_02s.jpg	0	0	0	209.811779328733	209.861766431195	0.0499871024621825
25244	50	124	0	0	badger	53	124	0	stimuli\badger\badger_10s.jpg	9	-1	0	0	badger_10s.jpg	0	0	0	209.911784253691	209.961765017099	0.0499807634078024
25344	50	125	0	0	pine_needle	1180	125	0	stimuli\pine_needle\pine_needle_07s.jpg	6	-1	0	0	pine_needle_07s.jpg	0	0	0	210.011784546263	210.061768723008	0.0499841767450562
25444	50	126	0	0	coaster	368	126	0	stimuli\coaster\coaster_08s.jpg	7	-1	0	0	coaster_08s.jpg	0	0	0	210.111789471221	210.16176828415	0.0499788129291119
25544	50	127	0	0	windshield	1820	127	0	stimuli\windshield\windshield_08s.jpg	7	-1	0	0	windshield_08s.jpg	0	0	0	210.211793908558	210.261772721487	0.0499788129291119
25644	50	128	0	0	fishhook	602	128	0	stimuli\fishhook\fishhook_04s.jpg	3	-1	0	0	fishhook_04s.jpg	0	0	0	210.31179420113	210.36177350168	0.0499793005492393
25744	50	129	0	0	cash_machine	279	129	0	stimuli\cash_machine\cash_machine_01b.jpg	0	-1	0	0	cash_machine_01b.jpg	0	0	0	210.411796200371	210.461779889496	0.0499836891249288
25844	50	130	0	0	crate	433	130	0	stimuli\crate\crate_05s.jpg	4	-1	0	0	crate_05s.jpg	0	0	0	210.511805270095	210.561781401117	0.0499761310220492
25944	50	131	0	0	butterfly	229	131	0	stimuli\butterfly\butterfly_07s.jpg	6	-1	0	0	butterfly_07s.jpg	0	0	0	210.611793859796	210.661782668927	0.0499888091308094
26044	50	132	0	0	shirt	1422	132	0	stimuli\shirt\shirt_11s.jpg	10	-1	0	0	shirt_11s.jpg	0	0	0	210.711806099049	210.761789056744	0.0499829576947377
26144	50	133	0	0	chopsticks	339	133	0	stimuli\chopsticks\chopsticks_10s.jpg	9	-1	0	0	chopsticks_10s.jpg	0	0	0	210.811809317338	210.861788617885	0.0499793005474203
26244	50	134	0	0	kneepad	878	134	0	stimuli\kneepad\kneepad_10s.jpg	9	-1	0	0	kneepad_10s.jpg	0	0	0	210.911805221333	210.96178647236	0.0499812510279298
26344	50	135	0	0	watering_can	1792	135	0	stimuli\watering_can\watering_can_10s.jpg	9	-1	0	0	watering_can_10s.jpg	0	0	0	211.011812096769	211.061791641128	0.049979544359303
26444	50	136	0	0	nut	1066	136	0	stimuli\nut\nut_02s.jpg	1	-1	0	0	nut_02s.jpg	0	0	0	211.111808976004	211.161792421319	0.0499834453148651
26544	50	137	0	0	panties	1107	137	0	stimuli\panties\panties_04s.jpg	3	-1	0	0	panties_04s.jpg	0	0	0	211.211819996206	211.261802466282	0.0499824700764293
26644	50	138	0	0	seismograph	1403	138	0	stimuli\seismograph\seismograph_10s.jpg	9	-1	0	0	seismograph_10s.jpg	0	0	0	211.311820288778	211.361801783614	0.0499814948361745
26744	50	139	0	0	webcam	1799	139	0	stimuli\webcam\webcam_07s.jpg	6	-1	0	0	webcam_07s.jpg	0	0	0	211.411823994687	211.461802563806	0.0499785691190482
26844	50	140	0	0	gyroscope	731	140	0	stimuli\gyroscope\gyroscope_07s.jpg	6	-1	0	0	gyroscope_07s.jpg	0	0	0	211.511822336781	211.561808464003	0.0499861272219277
26944	50	141	0	0	eyeliner	567	141	0	stimuli\eyeliner\eyeliner_05s.jpg	4	-1	0	0	eyeliner_05s.jpg	0	0	0	211.611828236977	211.661809731813	0.0499814948361745
27044	50	142	0	0	blimp	139	142	0	stimuli\blimp\blimp_10s.jpg	9	-1	0	0	blimp_10s.jpg	0	0	0	211.711834380983	211.761820995827	0.0499866148438741
27144	50	143	0	0	pepperoni	1153	143	0	stimuli\pepperoni\pepperoni_02s.jpg	1	-1	0	0	pepperoni_02s.jpg	0	0	0	211.811827846881	211.861816412202	0.0499885653207457
27244	50	144	0	0	bedpost	110	144	0	stimuli\bedpost\bedpost_10s.jpg	9	-1	0	0	bedpost_10s.jpg	0	0	0	211.911832284221	211.9618223124	0.0499900281793089
27344	50	145	0	0	cummerbund	459	145	0	stimuli\cummerbund\cummerbund_12s.jpg	11	-1	0	0	cummerbund_12s.jpg	0	0	0	212.011839159655	212.06182406783	0.0499849081752473
27444	50	146	0	0	steak	1544	146	0	stimuli\steak\steak_09s.jpg	8	-1	0	0	steak_09s.jpg	0	0	0	212.111838964609	212.161823872782	0.0499849081734283
27544	50	147	0	0	clasp	351	147	0	stimuli\clasp\clasp_10s.jpg	9	-1	0	0	clasp_10s.jpg	0	0	0	212.211843158137	212.261825140593	0.0499819824563019
27644	50	148	0	0	icemaker	821	148	0	stimuli\icemaker\icemaker_03s.jpg	2	-1	0	0	icemaker_03s.jpg	0	0	0	212.31184174404	212.361826896024	0.049985151983492
27744	50	149	0	0	lemon	914	149	0	stimuli\lemon\lemon_09s.jpg	8	-1	0	0	lemon_09s.jpg	0	0	0	212.411844718519	212.461829139074	0.0499844205551199
27844	50	150	0	0	fudge	647	150	0	stimuli\fudge\fudge_12s.jpg	11	-1	0	0	fudge_12s.jpg	0	0	0	212.511854763483	212.561834795461	0.0499800319776114
27944	50	151	0	0	blender	138	151	0	stimuli\blender\blender_06s.jpg	5	-1	0	0	blender_06s.jpg	0	0	0	212.611854812245	212.661835088033	0.0499802757876751
28044	50	152	0	0	container	398	152	0	stimuli\container\container_07s.jpg	6	-1	0	0	container_07s.jpg	0	0	0	212.7118621753	212.761854641578	0.0499924662781268
28144	50	153	0	0	wine	1823	153	0	stimuli\wine\wine_11s.jpg	10	-1	0	0	wine_11s.jpg	0	0	0	212.811861736443	212.861844937948	0.0499832015048014
28244	50	154	0	0	forklift	635	154	0	stimuli\forklift\forklift_09s.jpg	8	-1	0	0	forklift_09s.jpg	0	0	0	212.911859590917	212.961847668617	0.0499880777006183
28344	50	155	0	0	baton4	95	155	0	stimuli\baton4\baton4_08s.jpg	7	-1	0	0	baton4_08s.jpg	0	0	0	213.01186841683	213.061845766901	0.0499773500705487
28444	50	156	0	0	crouton	445	156	0	stimuli\crouton\crouton_06s.jpg	5	-1	0	0	crouton_06s.jpg	0	0	0	213.111865052257	213.161848497572	0.0499834453148651
28544	50	157	0	0	top_hat	1682	157	0	stimuli\top_hat\top_hat_08s.jpg	7	-1	0	0	top_hat_08s.jpg	0	0	0	213.211876072459	213.261856835867	0.0499807634078024
28644	50	158	0	0	desk	480	158	0	stimuli\desk\desk_10s.jpg	9	-1	0	0	desk_10s.jpg	0	0	0	213.311868806926	213.361853227481	0.0499844205551199
28744	50	159	0	0	sidecar	1442	159	0	stimuli\sidecar\sidecar_03s.jpg	2	-1	0	0	sidecar_03s.jpg	0	0	0	213.411873000456	213.461859615298	0.0499866148420551
28844	50	160	0	0	laser_pointer	899	160	0	stimuli\laser_pointer\laser_pointer_02s.jpg	1	-1	0	0	laser_pointer_02s.jpg	0	0	0	213.511880607321	213.561858201201	0.0499775938806124
28944	50	161	0	0	periscope	1155	161	0	stimuli\periscope\periscope_10s.jpg	9	-1	0	0	periscope_10s.jpg	0	0	0	213.611875779887	213.661863857587	0.0499880777006183
29044	50	162	0	0	showerhead	1436	162	0	stimuli\showerhead\showerhead_07s.jpg	6	-1	0	0	showerhead_07s.jpg	0	0	0	213.71188558104	213.761867563497	0.0499819824563019
29144	50	163	0	0	monkey	1017	163	0	stimuli\monkey\monkey_02s.jpg	1	-1	0	0	monkey_02s.jpg	0	0	0	213.811886848851	213.861869806547	0.0499829576965567
29244	50	164	0	0	gravestone	710	164	0	stimuli\gravestone\gravestone_11s.jpg	10	-1	0	0	gravestone_11s.jpg	0	0	0	213.911885678564	213.961875219124	0.0499895405591815
29344	50	165	0	0	steering_wheel	1546	165	0	stimuli\steering_wheel\steering_wheel_06s.jpg	5	-1	0	0	steering_wheel_06s.jpg	0	0	0	214.011890359712	214.061873561217	0.0499832015048014
29444	50	166	0	0	patty	1126	166	0	stimuli\patty\patty_07s.jpg	6	-1	0	0	patty_07s.jpg	0	0	0	214.111892115143	214.16189701572	0.0500049005768233
29544	50	167	0	0	fast_food	572	167	0	stimuli\fast_food\fast_food_07s.jpg	6	-1	0	0	fast_food_07s.jpg	0	0	0	214.211898259149	214.261884142563	0.049985883413683
29644	50	168	0	0	popsicle	1225	168	0	stimuli\popsicle\popsicle_10s.jpg	9	-1	0	0	popsicle_10s.jpg	0	0	0	214.31190074601	214.361883703705	0.0499829576947377
29744	50	169	0	0	basketball	83	169	0	stimuli\basketball\basketball_11s.jpg	10	-1	0	0	basketball_11s.jpg	0	0	0	214.411894699526	214.461885215325	0.0499905157994363
29844	50	170	0	0	tulip	1726	170	0	stimuli\tulip\tulip_10s.jpg	9	-1	0	0	tulip_10s.jpg	0	0	0	214.511902062583	214.561887458376	0.0499853957935557
29944	50	171	0	0	scissors	1379	171	0	stimuli\scissors\scissors_04s.jpg	3	-1	0	0	scissors_04s.jpg	0	0	0	214.611910157068	214.661890432855	0.0499802757876751
30044	50	172	0	0	thumb	1653	172	0	stimuli\thumb\thumb_03s.jpg	2	-1	0	0	thumb_03s.jpg	0	0	0	214.711908255351	214.761896089241	0.0499878338905546
30144	50	173	0	0	cooler	403	173	0	stimuli\cooler\cooler_01b.jpg	0	-1	0	0	cooler_01b.jpg	0	0	0	214.811916349836	214.861899551341	0.0499832015048014
30244	50	174	0	0	smoke_alarm	1473	174	0	stimuli\smoke_alarm\smoke_alarm_12s.jpg	11	-1	0	0	smoke_alarm_12s.jpg	0	0	0	214.911921030984	214.961900575343	0.049979544359303
30344	50	175	0	0	flatiron	613	175	0	stimuli\flatiron\flatiron_07s.jpg	6	-1	0	0	flatiron_07s.jpg	0	0	0	215.011920835936	215.061903793632	0.0499829576965567
30444	50	176	0	0	rickshaw	1310	176	0	stimuli\rickshaw\rickshaw_04s.jpg	3	-1	0	0	rickshaw_04s.jpg	0	0	0	215.111925273275	215.1618965281	0.0499712548244133
30544	50	177	0	0	aircraft_carrier	9	177	0	stimuli\aircraft_carrier\aircraft_carrier_09s.jpg	8	-1	0	0	aircraft_carrier_09s.jpg	0	0	0	215.211933611568	215.26190949878	0.0499758872119855
30644	50	178	0	0	egg_roll	547	178	0	stimuli\egg_roll\egg_roll_01b.jpg	0	-1	0	0	egg_roll_01b.jpg	0	0	0	215.311929027945	215.361908572304	0.049979544359303
30744	50	179	0	0	trough	1718	179	0	stimuli\trough\trough_06s.jpg	5	-1	0	0	trough_06s.jpg	0	0	0	215.411940048147	215.461918861076	0.0499788129291119
30844	50	180	0	0	needle	1055	180	0	stimuli\needle\needle_11s.jpg	10	-1	0	0	needle_11s.jpg	0	0	0	215.511931807378	215.56191866603	0.0499868586521188
30944	50	181	0	0	bagpipe	56	181	0	stimuli\bagpipe\bagpipe_01b.jpg	0	-1	0	0	bagpipe_01b.jpg	0	0	0	215.611937463764	215.661920909079	0.0499834453148651
31044	50	182	0	0	dumpster	533	182	0	stimuli\dumpster\dumpster_06s.jpg	5	-1	0	0	dumpster_06s.jpg	0	0	0	215.711942876342	215.761927053085	0.0499841767432372
31144	50	183	0	0	polar_bear	1211	183	0	stimuli\polar_bear\polar_bear_04s.jpg	3	-1	0	0	polar_bear_04s.jpg	0	0	0	215.811943656532	215.861920518983	0.0499768624504213
31244	50	184	0	0	leek	910	184	0	stimuli\leek\leek_06s.jpg	5	-1	0	0	leek_06s.jpg	0	0	0	215.9119488253	215.961931295376	0.0499824700764293
31344	50	185	0	0	cruise_ship	450	185	0	stimuli\cruise_ship\cruise_ship_09s.jpg	8	-1	0	0	cruise_ship_09s.jpg	0	0	0	216.011947655014	216.061933538425	0.0499858834118641
31444	50	186	0	0	glue	681	186	0	stimuli\glue\glue_04s.jpg	3	-1	0	0	glue_04s.jpg	0	0	0	216.1119533114	216.16193090528	0.0499775938806124
31544	50	187	0	0	stem	1547	187	0	stimuli\stem\stem_01b.jpg	0	-1	0	0	stem_01b.jpg	0	0	0	216.211958236358	216.261938268337	0.0499800319794304
31644	50	188	0	0	raccoon	1266	188	0	stimuli\raccoon\raccoon_06n.jpg	5	-1	0	0	raccoon_06n.jpg	0	0	0	216.311953652734	216.36193661043	0.0499829576965567
31744	50	189	0	0	trigger	1713	189	0	stimuli\trigger\trigger_06s.jpg	5	-1	0	0	trigger_06s.jpg	0	0	0	216.411957114833	216.461939097289	0.0499819824563019
31844	50	190	0	0	costume	419	190	0	stimuli\costume\costume_07s.jpg	6	-1	0	0	costume_07s.jpg	0	0	0	216.51196423408	216.5619403651	0.0499761310202302
31944	50	191	0	0	retainer	1303	191	0	stimuli\retainer\retainer_04s.jpg	3	-1	0	0	retainer_04s.jpg	0	0	0	216.611962819981	216.661950410064	0.0499875900823099
32044	50	192	0	0	hamburger	740	192	0	stimuli\hamburger\hamburger_03s.jpg	2	-1	0	0	hamburger_03s.jpg	0	0	0	216.711968720179	216.761948508347	0.0499797881675477
32144	50	193	0	0	cabbage	232	193	0	stimuli\cabbage\cabbage_02s.jpg	1	-1	0	0	cabbage_02s.jpg	0	0	0	216.81197047561	216.861953677115	0.0499832015048014
32244	50	194	0	0	headband	762	194	0	stimuli\headband\headband_09s.jpg	8	-1	0	0	headband_09s.jpg	0	0	0	216.911974425328	216.961959577311	0.049985151983492
32344	50	195	0	0	metal_detector	996	195	0	stimuli\metal_detector\metal_detector_04s.jpg	3	-1	0	0	metal_detector_04s.jpg	0	0	0	217.011973986471	217.061954506069	0.0499805195977387
32444	50	196	0	0	waterwheel	1794	196	0	stimuli\waterwheel\waterwheel_02s.jpg	1	-1	0	0	waterwheel_02s.jpg	0	0	0	217.111972816183	217.161952360542	0.049979544359303
32544	50	197	0	0	lemonade	915	197	0	stimuli\lemonade\lemonade_05s.jpg	4	-1	0	0	lemonade_05s.jpg	0	0	0	217.21201480023	217.261999708404	0.0499849081734283
32644	50	198	0	0	potpourri	1235	198	0	stimuli\potpourri\potpourri_05s.jpg	4	-1	0	0	potpourri_05s.jpg	0	0	0	217.312022163285	217.361965136175	0.0499429728897667
32744	50	199	0	0	whale	1804	199	0	stimuli\whale\whale_05s.jpg	4	-1	0	0	whale_05s.jpg	0	0	0	217.411992223442	217.46197323066	0.0499810072178661
32844	50	200	0	0	pepper2	1150	200	0	stimuli\pepper2\pepper2_01b.jpg	0	-1	0	0	pepper2_01b.jpg	0	0	0	217.51198690839	217.561969622275	0.049982713884674
32944	50	201	0	0	christmas_card	340	201	0	stimuli\christmas_card\christmas_card_10s.jpg	9	-1	0	0	christmas_card_10s.jpg	0	0	0	217.611985981912	217.661973084374	0.0499871024621825
33044	50	202	0	0	rudder	1339	202	0	stimuli\rudder\rudder_09s.jpg	8	-1	0	0	rudder_09s.jpg	0	0	0	217.711992369728	217.761981422669	0.0499890529408731
33144	50	203	0	0	tarp	1628	203	0	stimuli\tarp\tarp_01b.jpg	0	-1	0	0	tarp_01b.jpg	0	0	0	217.81199241849	217.861977814284	0.0499853957935557
33244	50	204	0	0	pillow	1176	204	0	stimuli\pillow\pillow_04s.jpg	3	-1	0	0	pillow_04s.jpg	0	0	0	217.912003926313	217.961986152579	0.0499822262663656
33344	50	205	0	0	slingshot	1467	205	0	stimuli\slingshot\slingshot_11s.jpg	10	-1	0	0	slingshot_11s.jpg	0	0	0	218.011998611259	218.061984007052	0.0499853957935557
33444	50	206	0	0	bow3	176	206	0	stimuli\bow3\bow3_04s.jpg	3	-1	0	0	bow3_04s.jpg	0	0	0	218.112003292408	218.16199039487	0.0499871024621825
33544	50	207	0	0	ferry	580	207	0	stimuli\ferry\ferry_08s.jpg	7	-1	0	0	ferry_08s.jpg	0	0	0	218.212009192604	218.261989956012	0.0499807634078024
33644	50	208	0	0	rope	1332	208	0	stimuli\rope\rope_08s.jpg	7	-1	0	0	rope_08s.jpg	0	0	0	218.312006803268	218.361991467633	0.0499846643651836
33744	50	209	0	0	fuse	652	209	0	stimuli\fuse\fuse_09s.jpg	8	-1	0	0	fuse_09s.jpg	0	0	0	218.412020992999	218.46199541735	0.0499744243516034
33844	50	210	0	0	barnacle	75	210	0	stimuli\barnacle\barnacle_01s.jpg	0	-1	0	0	barnacle_01s.jpg	0	0	0	218.512018116042	218.561994490874	0.0499763748321129
33944	50	211	0	0	mirror	1005	211	0	stimuli\mirror\mirror_05s.jpg	4	-1	0	0	mirror_05s.jpg	0	0	0	218.612017433376	218.662000147262	0.049982713886493
34044	50	212	0	0	violin	1764	212	0	stimuli\violin\violin_01b.jpg	0	-1	0	0	violin_01b.jpg	0	0	0	218.712018944996	218.76200385317	0.0499849081734283
34144	50	213	0	0	bat2	88	213	0	stimuli\bat2\bat2_10s.jpg	9	-1	0	0	bat2_10s.jpg	0	0	0	218.812026795671	218.862008778127	0.0499819824563019
34244	50	214	0	0	spaghetti	1503	214	0	stimuli\spaghetti\spaghetti_12s.jpg	11	-1	0	0	spaghetti_12s.jpg	0	0	0	218.912028794912	218.962012971657	0.0499841767450562
34344	50	215	0	0	soy_sauce	1500	215	0	stimuli\soy_sauce\soy_sauce_03s.jpg	2	-1	0	0	soy_sauce_03s.jpg	0	0	0	219.012030550342	219.062012776609	0.0499822262663656
34444	50	216	0	0	frisbee	643	216	0	stimuli\frisbee\frisbee_08s.jpg	7	-1	0	0	frisbee_08s.jpg	0	0	0	219.112030842914	219.162013312989	0.0499824700746103
34544	50	217	0	0	lion	933	217	0	stimuli\lion\lion_10s.jpg	9	-1	0	0	lion_10s.jpg	0	0	0	219.212037962159	219.26201579985	0.0499778376906761
34644	50	218	0	0	polygraph	1217	218	0	stimuli\polygraph\polygraph_09s.jpg	8	-1	0	0	polygraph_09s.jpg	0	0	0	219.312034597584	219.362020237188	0.0499856396036193
34744	50	219	0	0	pinball	1178	219	0	stimuli\pinball\pinball_03s.jpg	2	-1	0	0	pinball_03s.jpg	0	0	0	219.4120409854	219.462026625004	0.0499856396036193
34844	50	220	0	0	bowling_ball	179	220	0	stimuli\bowling_ball\bowling_ball_12s.jpg	11	-1	0	0	bowling_ball_12s.jpg	0	0	0	219.512048592267	219.562026917576	0.0499783253089845
34944	50	221	0	0	microwave	1000	221	0	stimuli\microwave\microwave_10s.jpg	9	-1	0	0	microwave_10s.jpg	0	0	0	219.612047665789	219.662033061582	0.0499853957935557
35044	50	222	0	0	spider	1513	222	0	stimuli\spider\spider_08s.jpg	7	-1	0	0	spider_08s.jpg	0	0	0	219.712053565987	219.762034329395	0.0499807634078024
35144	50	223	0	0	clipper2	357	223	0	stimuli\clipper2\clipper2_07s.jpg	6	-1	0	0	clipper2_07s.jpg	0	0	0	219.812054589987	219.862037060064	0.0499824700764293
35244	50	224	0	0	centrifuge	296	224	0	stimuli\centrifuge\centrifuge_05s.jpg	4	-1	0	0	centrifuge_05s.jpg	0	0	0	219.912061465424	219.962038815494	0.0499773500705487
35344	50	225	0	0	ski	1452	225	0	stimuli\ski\ski_08s.jpg	7	-1	0	0	ski_08s.jpg	0	0	0	220.012058588469	220.062043009022	0.0499844205533009
35444	50	226	0	0	wrench	1841	226	0	stimuli\wrench\wrench_09s.jpg	8	-1	0	0	wrench_09s.jpg	0	0	0	220.112062538186	220.162047202552	0.0499846643651836
35544	50	227	0	0	scrabble	1385	227	0	stimuli\scrabble\scrabble_03s.jpg	2	-1	0	0	scrabble_03s.jpg	0	0	0	220.212068194574	220.262042862736	0.0499746681616671
35644	50	228	0	0	coop	404	228	0	stimuli\coop\coop_03s.jpg	2	-1	0	0	coop_03s.jpg	0	0	0	220.31206287952	220.362046081025	0.0499832015048014
35744	50	229	0	0	chocolate	338	229	0	stimuli\chocolate\chocolate_02s.jpg	1	-1	0	0	chocolate_02s.jpg	0	0	0	220.41206658543	220.462051249793	0.0499846643633646
35844	50	230	0	0	chicken_wire	324	230	0	stimuli\chicken_wire\chicken_wire_05s.jpg	4	-1	0	0	chicken_wire_05s.jpg	0	0	0	220.51206712181	220.562051786175	0.0499846643651836
35944	50	231	0	0	defibrillator	477	231	0	stimuli\defibrillator\defibrillator_10s.jpg	9	-1	0	0	defibrillator_10s.jpg	0	0	0	220.612070340099	220.662053785416	0.0499834453166841
36044	50	232	0	0	gallows	653	232	0	stimuli\gallows\gallows_10s.jpg	9	-1	0	0	gallows_10s.jpg	0	0	0	220.712082579352	220.762057735134	0.0499751557817945
36144	50	233	0	0	bok_choy	156	233	0	stimuli\bok_choy\bok_choy_06s.jpg	5	-1	0	0	bok_choy_06s.jpg	0	0	0	220.812079214777	220.862058759136	0.049979544359303
36244	50	234	0	0	cilantro	347	234	0	stimuli\cilantro\cilantro_10s.jpg	9	-1	0	0	cilantro_10s.jpg	0	0	0	220.91208901593	220.962063927902	0.0499749119717308
36344	50	235	0	0	raft	1275	235	0	stimuli\raft\raft_09s.jpg	8	-1	0	0	raft_09s.jpg	0	0	0	221.012084188496	221.062064708094	0.0499805195977387
36444	50	236	0	0	bulletin_board	217	236	0	stimuli\bulletin_board\bulletin_board_06s.jpg	5	-1	0	0	bulletin_board_06s.jpg	0	0	0	221.1120827744	221.162073777818	0.0499910034177447
36544	50	237	0	0	exerciser	561	237	0	stimuli\exerciser\exerciser_02s.jpg	1	-1	0	0	exerciser_02s.jpg	0	0	0	221.212091356505	221.262075533248	0.0499841767432372
36644	50	238	0	0	mascara	978	238	0	stimuli\mascara\mascara_05s.jpg	4	-1	0	0	mascara_05s.jpg	0	0	0	221.312093599554	221.362080458206	0.0499868586521188
36744	50	239	0	0	crown	448	239	0	stimuli\crown\crown_03s.jpg	2	-1	0	0	crown_03s.jpg	0	0	0	221.412092673077	221.462077337441	0.0499846643633646
36844	50	240	0	0	brooch	202	240	0	stimuli\brooch\brooch_02s.jpg	1	-1	0	0	brooch_02s.jpg	0	0	0	221.512100767563	221.562081774779	0.0499810072160471
36944	50	241	0	0	arm	36	241	0	stimuli\arm\arm_03s.jpg	2	-1	0	0	arm_03s.jpg	0	0	0	221.612102522993	221.662081092112	0.0499785691190482
37044	50	242	0	0	button2	231	242	0	stimuli\button2\button2_04s.jpg	3	-1	0	0	button2_04s.jpg	0	0	0	221.712111105096	221.762086504688	0.0499753995918581
37144	50	243	0	0	hairnet	736	243	0	stimuli\hairnet\hairnet_10s.jpg	9	-1	0	0	hairnet_10s.jpg	0	0	0	221.812105302424	221.862092404886	0.0499871024621825
37244	50	244	0	0	pastry	1124	244	0	stimuli\pastry\pastry_02s.jpg	1	-1	0	0	pastry_02s.jpg	0	0	0	221.912115591198	221.962094891745	0.0499793005474203
37344	50	245	0	0	vase	1753	245	0	stimuli\vase\vase_10s.jpg	9	-1	0	0	vase_10s.jpg	0	0	0	222.0121141771	222.062092746221	0.0499785691208672
37444	50	246	0	0	splinter	1516	246	0	stimuli\splinter\splinter_06s.jpg	5	-1	0	0	splinter_06s.jpg	0	0	0	222.112112275385	222.162101084516	0.0499888091308094
37544	50	247	0	0	tuxedo	1738	247	0	stimuli\tuxedo\tuxedo_03s.jpg	2	-1	0	0	tuxedo_03s.jpg	0	0	0	222.21212012606	222.26209747613	0.0499773500705487
37644	50	248	0	0	glass	677	248	0	stimuli\glass\glass_06s.jpg	5	-1	0	0	glass_06s.jpg	0	0	0	222.312116030054	222.362100694419	0.0499846643651836
37744	50	249	0	0	uniform	1747	249	0	stimuli\uniform\uniform_01b.jpg	0	-1	0	0	uniform_01b.jpg	0	0	0	222.41212534359	222.462106350806	0.0499810072160471
37844	50	250	0	0	taffy	1615	250	0	stimuli\taffy\taffy_09s.jpg	8	-1	0	0	taffy_09s.jpg	0	0	0	222.51212563616	222.562105668139	0.0499800319794304
37944	50	251	0	0	sword	1602	251	0	stimuli\sword\sword_06s.jpg	5	-1	0	0	sword_06s.jpg	0	0	0	222.612127147782	222.662115956911	0.0499888091289904
38044	50	252	0	0	panther	1106	252	0	stimuli\panther\panther_07s.jpg	6	-1	0	0	panther_07s.jpg	0	0	0	222.712134754647	222.762112592336	0.0499778376888571
38144	50	253	0	0	windshield_wiper	1821	253	0	stimuli\windshield_wiper\windshield_wiper_10s.jpg	9	-1	0	0	windshield_wiper_10s.jpg	0	0	0	222.812133096741	222.862113860148	0.0499807634078024
38244	50	254	0	0	sauerkraut	1364	254	0	stimuli\sauerkraut\sauerkraut_11s.jpg	10	-1	0	0	sauerkraut_11s.jpg	0	0	0	222.912134364551	222.962123905112	0.0499895405610005
38344	50	255	0	0	parfait	1119	255	0	stimuli\parfait\parfait_12s.jpg	11	-1	0	0	parfait_12s.jpg	0	0	0	223.012141239988	223.062119565297	0.0499783253089845
38444	50	256	0	0	block	143	256	0	stimuli\block\block_09s.jpg	8	-1	0	0	block_09s.jpg	0	0	0	223.112136656364	223.162124490254	0.0499878338905546
38544	50	257	0	0	flag	605	257	0	stimuli\flag\flag_05s.jpg	4	-1	0	0	flag_05s.jpg	0	0	0	223.212153040382	223.262130390453	0.0499773500705487
38644	50	258	0	0	wall	1775	258	0	stimuli\wall\wall_12s.jpg	11	-1	0	0	wall_12s.jpg	0	0	0	223.312143824371	223.362127513496	0.0499836891249288
38744	50	259	0	0	hotdog	805	259	0	stimuli\hotdog\hotdog_04s.jpg	3	-1	0	0	hotdog_04s.jpg	0	0	0	223.41214679885	223.462134145122	0.0499873462722462
38844	50	260	0	0	doorknocker	510	260	0	stimuli\doorknocker\doorknocker_09s.jpg	8	-1	0	0	doorknocker_09s.jpg	0	0	0	223.512155380955	223.56213931389	0.0499839329349925
38944	50	261	0	0	playing_card	1199	261	0	stimuli\playing_card\playing_card_08s.jpg	7	-1	0	0	playing_card_08s.jpg	0	0	0	223.612154454479	223.662138143603	0.0499836891249288
39044	50	262	0	0	scone	1380	262	0	stimuli\scone\scone_10s.jpg	9	-1	0	0	scone_10s.jpg	0	0	0	223.71216474325	223.762137948555	0.0499732053049229
39144	50	263	0	0	photo_booth	1163	263	0	stimuli\photo_booth\photo_booth_10s.jpg	9	-1	0	0	photo_booth_10s.jpg	0	0	0	223.812156258671	223.862141410655	0.049985151983492
39244	50	264	0	0	belt	118	264	0	stimuli\belt\belt_04s.jpg	3	-1	0	0	belt_04s.jpg	0	0	0	223.912172398879	223.96214901752	0.0499766186403576
39344	50	265	0	0	juicer1	855	265	0	stimuli\juicer1\juicer1_04s.jpg	3	-1	0	0	juicer1_04s.jpg	0	0	0	224.012169278114	224.062151748189	0.0499824700746103
39444	50	266	0	0	toucan	1690	266	0	stimuli\toucan\toucan_11s.jpg	10	-1	0	0	toucan_11s.jpg	0	0	0	224.112172252593	224.162153259809	0.0499810072160471
39544	50	267	0	0	eggbeater	548	267	0	stimuli\eggbeater\eggbeater_01b.jpg	0	-1	0	0	eggbeater_01b.jpg	0	0	0	224.212176933741	224.262150870474	0.049973936733295
39644	50	268	0	0	chive	337	268	0	stimuli\chive\chive_05s.jpg	4	-1	0	0	chive_05s.jpg	0	0	0	224.312172106307	224.362155795432	0.0499836891249288
39744	50	269	0	0	wheat	1805	269	0	stimuli\wheat\wheat_10s.jpg	9	-1	0	0	wheat_10s.jpg	0	0	0	224.412174349358	224.462164377537	0.0499900281793089
39844	50	270	0	0	pistachio	1188	270	0	stimuli\pistachio\pistachio_02s.jpg	1	-1	0	0	pistachio_02s.jpg	0	0	0	224.512182687651	224.562164670107	0.0499819824563019
39944	50	271	0	0	ballot_box	61	271	0	stimuli\ballot_box\ballot_box_03s.jpg	2	-1	0	0	ballot_box_03s.jpg	0	0	0	224.612179079268	224.662162768393	0.0499836891249288
40044	50	272	0	0	locket	942	272	0	stimuli\locket\locket_10s.jpg	9	-1	0	0	locket_10s.jpg	0	0	0	224.712192049948	224.762172081926	0.0499800319776114
40144	50	273	0	0	paintbrush	1097	273	0	stimuli\paintbrush\paintbrush_08s.jpg	7	-1	0	0	paintbrush_08s.jpg	0	0	0	224.812185759656	224.862167742112	0.0499819824563019
40244	50	274	0	0	remote_control	1302	274	0	stimuli\remote_control\remote_control_07s.jpg	6	-1	0	0	remote_control_07s.jpg	0	0	0	224.912189221754	224.962177299456	0.0499880777024373
40344	50	275	0	0	visor	1766	275	0	stimuli\visor\visor_05s.jpg	4	-1	0	0	visor_05s.jpg	0	0	0	225.012193415283	225.062173447261	0.0499800319776114
40444	50	276	0	0	birdcage	130	276	0	stimuli\birdcage\birdcage_03s.jpg	2	-1	0	0	birdcage_03s.jpg	0	0	0	225.112195902142	225.162178128408	0.0499822262663656
40544	50	277	0	0	cheese	312	277	0	stimuli\cheese\cheese_08s.jpg	7	-1	0	0	cheese_08s.jpg	0	0	0	225.212198389003	225.262185247655	0.0499868586521188
40644	50	278	0	0	doorknob	509	278	0	stimuli\doorknob\doorknob_05s.jpg	4	-1	0	0	doorknob_05s.jpg	0	0	0	225.312204776819	225.362182614508	0.0499778376888571
40744	50	279	0	0	mold1	1012	279	0	stimuli\mold1\mold1_10s.jpg	9	-1	0	0	mold1_10s.jpg	0	0	0	225.412211896064	225.462186320417	0.0499744243534224
40844	50	280	0	0	limousine	931	280	0	stimuli\limousine\limousine_03s.jpg	2	-1	0	0	limousine_03s.jpg	0	0	0	225.512206093392	225.562187588228	0.0499814948361745
40944	50	281	0	0	license_plate	921	281	0	stimuli\license_plate\license_plate_01b.jpg	0	-1	0	0	license_plate_01b.jpg	0	0	0	225.612206629774	225.662192513186	0.0499858834118641
41044	50	282	0	0	hatchet	759	282	0	stimuli\hatchet\hatchet_10s.jpg	9	-1	0	0	hatchet_10s.jpg	0	0	0	225.712219600455	225.762193537188	0.049973936733295
41144	50	283	0	0	dolphin	502	283	0	stimuli\dolphin\dolphin_05s.jpg	4	-1	0	0	dolphin_05s.jpg	0	0	0	225.812214285401	225.862196755477	0.0499824700764293
41244	50	284	0	0	chips	335	284	0	stimuli\chips\chips_08s.jpg	7	-1	0	0	chips_08s.jpg	0	0	0	225.912220429407	225.96223044999	0.0500100205827039
41344	50	285	0	0	tack	1611	285	0	stimuli\tack\tack_12s.jpg	11	-1	0	0	tack_12s.jpg	0	0	0	226.012218040072	226.062201485387	0.0499834453148651
41444	50	286	0	0	cherry	316	286	0	stimuli\cherry\cherry_12s.jpg	11	-1	0	1	cherry_12s.jpg	0	0	0	226.112230279323	226.162206166535	0.0499758872119855
41544	50	287	0	0	plate	1197	287	0	stimuli\plate\plate_03s.jpg	2	-1	0	0	plate_03s.jpg	0	0	0	226.212231790943	226.262206702917	0.0499749119735498
41644	50	288	0	0	shawl	1411	288	0	stimuli\shawl\shawl_12s.jpg	11	-1	0	0	shawl_12s.jpg	0	0	0	226.312225500651	226.362217966929	0.0499924662781268
41744	50	289	0	0	altar	16	289	0	stimuli\altar\altar_08s.jpg	7	-1	0	0	altar_08s.jpg	0	0	0	226.412239202762	226.462211676637	0.0499724738747318
41844	50	290	0	0	duckling	526	290	0	stimuli\duckling\duckling_10s.jpg	9	-1	0	0	duckling_10s.jpg	0	0	0	226.51223218104	226.56222074636	0.0499885653207457
41944	50	291	0	0	shoelace	1426	291	0	stimuli\shoelace\shoelace_01b.jpg	0	-1	0	0	shoelace_01b.jpg	0	0	0	226.612243445052	226.662225427508	0.0499819824563019
42044	50	292	0	0	mat	982	292	0	stimuli\mat\mat_10s.jpg	9	-1	0	0	mat_10s.jpg	0	0	0	226.712239592856	226.762223038173	0.0499834453166841
42144	50	293	0	0	gold	687	293	0	stimuli\gold\gold_05s.jpg	4	-1	0	0	gold_05s.jpg	0	0	0	226.812240129238	226.862226500272	0.0499863710338104
42244	50	294	0	0	chickpea	325	294	0	stimuli\chickpea\chickpea_09s.jpg	8	-1	0	0	chickpea_09s.jpg	0	0	0	226.912244078958	226.962233863327	0.0499897843692452
42344	50	295	0	0	squeegee	1527	295	0	stimuli\squeegee\squeegee_12n.jpg	11	-1	0	0	squeegee_12n.jpg	0	0	0	227.012252417253	227.062236350186	0.0499839329331735
42444	50	296	0	0	checkers	311	296	0	stimuli\checkers\checkers_08s.jpg	7	-1	0	0	checkers_08s.jpg	0	0	0	227.112255147922	227.162239812285	0.0499846643633646
42544	50	297	0	0	carriage	276	297	0	stimuli\carriage\carriage_02s.jpg	1	-1	0	0	carriage_02s.jpg	0	0	0	227.212252270967	227.26223717914	0.0499849081734283
42644	50	298	0	0	valve	1751	298	0	stimuli\valve\valve_06s.jpg	5	-1	0	0	valve_06s.jpg	0	0	0	227.312255001636	227.362242347908	0.0499873462722462
42744	50	299	0	0	pig	1170	299	0	stimuli\pig\pig_09s.jpg	8	-1	0	0	pig_09s.jpg	0	0	0	227.412257976115	227.462239958571	0.0499819824563019
42844	50	300	0	0	mandolin	965	300	0	stimuli\mandolin\mandolin_11s.jpg	10	-1	0	0	mandolin_11s.jpg	0	0	0	227.512259000117	227.562248540677	0.0499895405591815
42944	50	301	0	0	barrette	77	301	0	stimuli\barrette\barrette_02s.jpg	1	-1	0	0	barrette_02s.jpg	0	0	0	227.612257829829	227.662247858008	0.0499900281793089
43044	50	302	0	0	bone	161	302	0	stimuli\bone\bone_06s.jpg	5	-1	0	0	bone_06s.jpg	0	0	0	227.712265192886	227.762253514396	0.049988321510682
43144	50	303	0	0	balance_beam	58	303	0	stimuli\balance_beam\balance_beam_03s.jpg	2	-1	0	0	balance_beam_03s.jpg	0	0	0	227.812273531181	227.862260633643	0.0499871024621825
43244	50	304	0	0	noodle	1061	304	0	stimuli\noodle\noodle_03s.jpg	2	-1	0	0	noodle_03s.jpg	0	0	0	227.912277237088	227.962261657643	0.0499844205551199
43344	50	305	0	0	yo-yo	1847	305	0	stimuli\yo-yo\yo-yo_02s.jpg	1	-1	0	0	yo-yo_02s.jpg	0	0	0	228.012276798232	228.062262437834	0.0499856396018004
43444	50	306	0	0	catapult	285	306	0	stimuli\catapult\catapult_11s.jpg	10	-1	0	0	catapult_11s.jpg	0	0	0	228.112282942238	228.16226931327	0.0499863710319914
43544	50	307	0	0	baton2	93	307	0	stimuli\baton2\baton2_08s.jpg	7	-1	0	0	baton2_08s.jpg	0	0	0	228.212285916718	228.262266680125	0.0499807634078024
43644	50	308	0	0	okra	1074	308	0	stimuli\okra\okra_11n.jpg	10	-1	0	0	okra_11n.jpg	0	0	0	228.312280845474	228.362272336512	0.049991491037872
57661	50	309	0	0	record_player	1296	0	1	stimuli\record_player\record_player_01b.jpg	0	-1	1	0	record_player_01b.jpg	0	0	0	242.329347043245	242.379318054262	0.0499710110161686
57761	50	310	0	0	stuffing	1575	1	1	stimuli\stuffing\stuffing_01b.jpg	0	-1	1	0	stuffing_01b.jpg	0	0	0	242.429345872959	242.479320784931	0.0499749119717308
57861	50	311	0	0	pocket	1205	2	1	stimuli\pocket\pocket_02s.jpg	1	-1	1	0	pocket_02s.jpg	0	0	0	242.529347140769	242.579326685129	0.049979544359303
57961	50	312	0	0	dresser	519	3	1	stimuli\dresser\dresser_05n.jpg	4	-1	1	0	dresser_05n.jpg	0	0	0	242.629347433342	242.679325027222	0.0499775938806124
58061	50	313	0	0	snow	1479	4	1	stimuli\snow\snow_01b.jpg	0	-1	1	0	snow_01b.jpg	0	0	0	242.729349920201	242.77932848932	0.0499785691190482
58161	50	314	0	0	starfish	1541	5	1	stimuli\starfish\starfish_04s.jpg	3	-1	1	0	starfish_04s.jpg	0	0	0	242.829352650871	242.879339753334	0.0499871024621825
58261	50	315	0	0	pasta	1123	6	1	stimuli\pasta\pasta_07s.jpg	6	-1	1	0	pasta_07s.jpg	0	0	0	242.929357088209	242.979339070665	0.0499819824563019
58361	50	316	0	0	doily	498	7	1	stimuli\doily\doily_02s.jpg	1	-1	1	0	doily_02s.jpg	0	0	0	243.029362256977	243.079343020385	0.0499807634078024
58461	50	317	0	0	dagger	469	8	1	stimuli\dagger\dagger_12s.jpg	11	-1	1	0	dagger_12s.jpg	0	0	0	243.129364012408	243.179345263434	0.0499812510261108
58561	50	318	0	0	minivan	1003	9	1	stimuli\minivan\minivan_07s.jpg	6	-1	1	0	minivan_07s.jpg	0	0	0	243.229365036408	243.279345556006	0.0499805195977387
58661	50	319	0	0	figurine	582	10	1	stimuli\figurine\figurine_01b.jpg	0	-1	1	0	figurine_01b.jpg	0	0	0	243.329374106132	243.379350724774	0.0499766186421766
58761	50	320	0	0	hail	732	11	1	stimuli\hail\hail_05s.jpg	4	-1	1	0	hail_05s.jpg	0	0	0	243.429364402502	243.479350285916	0.049985883413683
58861	50	321	0	0	spareribs	1505	12	1	stimuli\spareribs\spareribs_09s.jpg	8	-1	1	0	spareribs_09s.jpg	0	0	0	243.529367376983	243.579356673732	0.0499892967491178
58961	50	322	0	0	hydrant	814	13	1	stimuli\hydrant\hydrant_10s.jpg	9	-1	1	0	hydrant_10s.jpg	0	0	0	243.629374983848	243.679358185353	0.0499832015048014
59061	50	323	0	0	milk	1001	14	1	stimuli\milk\milk_02s.jpg	1	-1	1	0	milk_02s.jpg	0	0	0	243.7293747888	243.779357990305	0.0499832015048014
59161	50	324	0	0	teddy_bear	1635	15	1	stimuli\teddy_bear\teddy_bear_12s.jpg	11	-1	1	0	teddy_bear_12s.jpg	0	0	0	243.829380445188	243.87936608479	0.0499856396018004
59261	50	325	0	0	mistletoe	1007	16	1	stimuli\mistletoe\mistletoe_02s.jpg	1	-1	1	0	mistletoe_02s.jpg	0	0	0	243.929382688237	243.979360769737	0.0499780815007398
59361	50	326	0	0	rose	1334	17	1	stimuli\rose\rose_03s.jpg	2	-1	1	0	rose_03s.jpg	0	0	0	244.029384443667	244.079368132792	0.0499836891249288
59461	50	327	0	0	ice-cream_cone	817	18	1	stimuli\ice-cream_cone\ice-cream_cone_11s.jpg	10	-1	1	0	ice-cream_cone_11s.jpg	0	0	0	244.129391562914	244.179371351081	0.0499797881675477
59561	50	328	0	0	puck	1245	19	1	stimuli\puck\puck_03s.jpg	2	-1	1	0	puck_03s.jpg	0	0	0	244.229392343104	244.279374325561	0.0499819824563019
59661	50	329	0	0	walker2	1774	20	1	stimuli\walker2\walker2_08s.jpg	7	-1	1	0	walker2_08s.jpg	0	0	0	244.329402144258	244.37937851909	0.0499763748321129
59761	50	330	0	0	playpen	1200	21	1	stimuli\playpen\playpen_04s.jpg	3	-1	1	0	playpen_04s.jpg	0	0	0	244.429396829204	244.479375154515	0.0499783253108035
59861	50	331	0	0	sprouts	1524	22	1	stimuli\sprouts\sprouts_04s.jpg	3	-1	1	0	sprouts_04s.jpg	0	0	0	244.529398584635	244.579384711858	0.0499861272237467
59961	50	332	0	0	bird	128	23	1	stimuli\bird\bird_04s.jpg	3	-1	1	0	bird_04s.jpg	0	0	0	244.629403753403	244.679384273	0.0499805195977387
60061	50	333	0	0	triangle	1710	24	1	stimuli\triangle\triangle_08s.jpg	7	-1	1	0	triangle_08s.jpg	0	0	0	244.729405508833	244.779388710338	0.0499832015048014
60161	50	334	0	0	sloth	1471	25	1	stimuli\sloth\sloth_05s.jpg	4	-1	1	0	sloth_05s.jpg	0	0	0	244.829411409031	244.879393147678	0.0499817386462382
60261	50	335	0	0	puppet	1257	26	1	stimuli\puppet\puppet_05s.jpg	4	-1	1	0	puppet_05s.jpg	0	0	0	244.929411457793	244.979388807862	0.0499773500687297
60361	50	336	0	0	mousepad	1028	27	1	stimuli\mousepad\mousepad_01b.jpg	0	-1	1	0	mousepad_01b.jpg	0	0	0	245.029414676083	245.079399096636	0.0499844205533009
60461	50	337	0	0	cufflink	458	28	1	stimuli\cufflink\cufflink_08s.jpg	7	-1	1	0	cufflink_08s.jpg	0	0	0	245.129417650562	245.179399145398	0.0499814948361745
60561	50	338	0	0	gazelle	666	29	1	stimuli\gazelle\gazelle_12s.jpg	11	-1	1	0	gazelle_12s.jpg	0	0	0	245.229420381231	245.279402607497	0.0499822262663656
60661	50	339	0	0	surfboard	1587	30	1	stimuli\surfboard\surfboard_03s.jpg	2	-1	1	0	surfboard_03s.jpg	0	0	0	245.329424818568	245.379406801025	0.0499819824563019
60761	50	340	0	0	hairbrush	734	31	1	stimuli\hairbrush\hairbrush_06s.jpg	5	-1	1	0	hairbrush_06s.jpg	0	0	0	245.429425354951	245.479407581217	0.0499822262663656
60861	50	341	0	0	ruby	1338	32	1	stimuli\ruby\ruby_12s.jpg	11	-1	1	0	ruby_12s.jpg	0	0	0	245.52942930467	245.57940592331	0.0499766186403576
60961	50	342	0	0	walrus	1779	33	1	stimuli\walrus\walrus_02n.jpg	1	-1	1	0	walrus_02n.jpg	0	0	0	245.629426915333	245.679406459692	0.049979544359303
61061	50	343	0	0	peacock	1130	34	1	stimuli\peacock\peacock_08s.jpg	7	-1	1	0	peacock_08s.jpg	0	0	0	245.729432815529	245.77941114084	0.0499783253108035
61162	50	344	0	0	calamari	239	35	1	stimuli\calamari\calamari_02s.jpg	1	-1	1	0	calamari_02s.jpg	0	0	0	245.829555988237	245.87944824869	0.0498922604529071
61262	50	345	0	0	turf	1732	36	1	stimuli\turf\turf_05s.jpg	4	-1	1	0	turf_05s.jpg	0	0	0	245.929465095947	245.979447322212	0.0499822262645466
61361	50	346	0	0	kettle	868	37	1	stimuli\kettle\kettle_11s.jpg	10	-1	1	0	kettle_11s.jpg	0	0	0	246.02945197898	246.079432742386	0.0499807634059835
61462	50	347	0	0	blinder	141	38	1	stimuli\blinder\blinder_01b.jpg	0	-1	1	0	blinder_01b.jpg	0	0	0	246.129444469638	246.179424013997	0.049979544359303
61562	50	348	0	0	cigarette	344	39	1	stimuli\cigarette\cigarette_03s.jpg	2	-1	1	0	cigarette_03s.jpg	0	0	0	246.22944403078	246.279451857075	0.0500078262957686
61662	50	349	0	0	mongoose	1016	40	1	stimuli\mongoose\mongoose_12s.jpg	11	-1	1	0	mongoose_12s.jpg	0	0	0	246.329447492879	246.379428256287	0.0499807634078024
61762	50	350	0	0	ladder	886	41	1	stimuli\ladder\ladder_04s.jpg	3	-1	1	0	ladder_04s.jpg	0	0	0	246.42946095118	246.479432937434	0.0499719862546044
61862	50	351	0	0	roadsweeper	1316	42	1	stimuli\roadsweeper\roadsweeper_09s.jpg	8	-1	1	0	roadsweeper_09s.jpg	0	0	0	246.529456611366	246.579443957638	0.0499873462722462
61962	50	352	0	0	inkwell	830	43	1	stimuli\inkwell\inkwell_09s.jpg	8	-1	1	0	inkwell_09s.jpg	0	0	0	246.629462511562	246.679440105443	0.0499775938806124
62062	50	353	0	0	hammer	741	44	1	stimuli\hammer\hammer_02s.jpg	1	-1	1	0	hammer_02s.jpg	0	0	0	246.729461097466	246.779430158003	0.0499690605374781
62162	50	354	0	0	fire_hydrant	592	45	1	stimuli\fire_hydrant\fire_hydrant_05s.jpg	4	-1	1	0	fire_hydrant_05s.jpg	0	0	0	246.829458708129	246.879447029642	0.049988321512501
62262	50	355	0	0	wing	1827	46	1	stimuli\wing\wing_10s.jpg	9	-1	1	0	wing_10s.jpg	0	0	0	246.929467046424	246.979447809832	0.0499807634078024
62362	50	356	0	0	lock	940	47	1	stimuli\lock\lock_03s.jpg	2	-1	1	0	lock_03s.jpg	0	0	0	247.029472459002	247.079482235775	0.0500097767726402
62462	50	357	0	0	doorhandle	508	48	1	stimuli\doorhandle\doorhandle_01b.jpg	0	-1	1	0	doorhandle_01b.jpg	0	0	0	247.129470557285	247.179449370215	0.0499788129291119
62562	50	358	0	0	shark	1409	49	1	stimuli\shark\shark_01b.jpg	0	-1	1	0	shark_01b.jpg	0	0	0	247.229470849858	247.27948135806	0.0500105082028313
62662	50	359	0	0	cupcake	461	50	1	stimuli\cupcake\cupcake_09s.jpg	8	-1	1	0	cupcake_09s.jpg	0	0	0	247.329480651011	247.379457269652	0.0499766186403576
62762	50	360	0	0	lamp	891	51	1	stimuli\lamp\lamp_04s.jpg	3	-1	1	0	lamp_04s.jpg	0	0	0	247.429482162632	247.479459268892	0.049977106260485
62862	50	361	0	0	rust	1342	52	1	stimuli\rust\rust_08s.jpg	7	-1	1	0	rust_08s.jpg	0	0	0	247.529508055231	247.579465900519	0.0499578452872811
62962	50	362	0	0	toga	1669	53	1	stimuli\toga\toga_01b.jpg	0	-1	1	0	toga_01b.jpg	0	0	0	247.629483235394	247.679462779754	0.049979544359303
63062	50	363	0	0	wallet	1776	54	1	stimuli\wallet\wallet_03s.jpg	2	-1	1	0	wallet_03s.jpg	0	0	0	247.729484503207	247.779482577109	0.0499980739023158
63162	50	364	0	0	caviar	289	55	1	stimuli\caviar\caviar_09s.jpg	8	-1	1	0	caviar_09s.jpg	0	0	0	247.82949406055	247.879468484902	0.0499744243516034
63262	50	365	0	0	fireworks	598	56	1	stimuli\fireworks\fireworks_10s.jpg	9	-1	1	0	fireworks_10s.jpg	0	0	0	247.929493134072	247.979470484142	0.0499773500705487
63362	50	366	0	0	breadbox	195	57	1	stimuli\breadbox\breadbox_09s.jpg	8	-1	1	0	breadbox_09s.jpg	0	0	0	248.029501472367	248.079479797678	0.0499783253108035
63462	50	367	0	0	headscarf	768	58	1	stimuli\headscarf\headscarf_06s.jpg	5	-1	1	0	headscarf_06s.jpg	0	0	0	248.12949981446	248.179477895961	0.0499780815007398
63562	50	368	0	0	motherboard	1024	59	1	stimuli\motherboard\motherboard_05s.jpg	4	-1	1	0	motherboard_05s.jpg	0	0	0	248.229502057511	248.27948111425	0.0499790567391756
63662	50	369	0	0	snake	1477	60	1	stimuli\snake\snake_06s.jpg	5	-1	1	0	snake_06s.jpg	0	0	0	248.329502350083	248.379487258257	0.0499849081734283
63762	50	370	0	0	binder	126	61	1	stimuli\binder\binder_08s.jpg	7	-1	1	0	binder_08s.jpg	0	0	0	248.429507031231	248.479482430823	0.0499753995918581
63862	50	371	0	0	sweet_potato	1595	62	1	stimuli\sweet_potato\sweet_potato_02s.jpg	1	-1	1	0	sweet_potato_02s.jpg	0	0	0	248.52951024952	248.579495889124	0.0499856396036193
63962	50	372	0	0	tile	1660	63	1	stimuli\tile\tile_06s.jpg	5	-1	1	0	tile_06s.jpg	0	0	0	248.629511761141	248.679492524549	0.0499807634078024
64062	50	373	0	0	boxer_shorts	182	64	1	stimuli\boxer_shorts\boxer_shorts_08s.jpg	7	-1	1	0	boxer_shorts_08s.jpg	0	0	0	248.729511809903	248.779502813321	0.0499910034177447
64162	50	374	0	0	footbath	631	65	1	stimuli\footbath\footbath_01s.jpg	0	-1	1	0	footbath_01s.jpg	0	0	0	248.829514540572	248.879501155414	0.0499866148420551
64262	50	375	0	0	thread	1651	66	1	stimuli\thread\thread_04s.jpg	3	-1	1	0	thread_04s.jpg	0	0	0	248.92951897791	248.979503886085	0.0499849081752473
64362	50	376	0	0	bear	105	67	1	stimuli\bear\bear_09s.jpg	8	-1	1	0	bear_09s.jpg	0	0	0	249.029526340966	249.079503203417	0.0499768624504213
64462	50	377	0	0	basil	81	68	1	stimuli\basil\basil_05s.jpg	4	-1	1	0	basil_05s.jpg	0	0	0	249.129539311647	249.179504958847	0.0499656472002243
64562	50	378	0	0	pita	1189	69	1	stimuli\pita\pita_08s.jpg	7	-1	1	0	pita_08s.jpg	0	0	0	249.229524488012	249.279513540952	0.0499890529408731
64662	50	379	0	0	extinguisher	563	70	1	stimuli\extinguisher\extinguisher_09s.jpg	8	-1	1	0	extinguisher_09s.jpg	0	0	0	249.329535995834	249.37951797829	0.0499819824563019
64762	50	380	0	0	diaper	485	71	1	stimuli\diaper\diaper_06s.jpg	5	-1	1	0	diaper_06s.jpg	0	0	0	249.429535313166	249.479514613715	0.0499793005492393
64862	50	381	0	0	torpedo	1684	72	1	stimuli\torpedo\torpedo_11s.jpg	10	-1	1	0	torpedo_11s.jpg	0	0	0	249.529540481934	249.57952222058	0.0499817386462382
64962	50	382	0	0	potpie	1234	73	1	stimuli\potpie\potpie_09s.jpg	8	-1	1	0	potpie_09s.jpg	0	0	0	249.629562229768	249.679521537913	0.0499593081458443
65062	50	383	0	0	mosquito	1020	74	1	stimuli\mosquito\mosquito_11s.jpg	10	-1	1	0	mosquito_11s.jpg	0	0	0	249.729544968035	249.779520855245	0.0499758872101665
65162	50	384	0	0	duck	525	75	1	stimuli\duck\duck_12s.jpg	11	-1	1	0	duck_12s.jpg	0	0	0	249.829548186324	249.879532606878	0.0499844205533009
65262	50	385	0	0	snowsuit	1486	76	1	stimuli\snowsuit\snowsuit_06s.jpg	5	-1	1	0	snowsuit_06s.jpg	0	0	0	249.929549454135	249.979530948971	0.0499814948361745
65362	50	386	0	0	totem_pole	1689	77	1	stimuli\totem_pole\totem_pole_10s.jpg	9	-1	1	0	totem_pole_10s.jpg	0	0	0	250.029554135283	250.079530022495	0.0499758872119855
65462	50	387	0	0	bin	125	78	1	stimuli\bin\bin_01b.jpg	0	-1	1	0	bin_01b.jpg	0	0	0	250.129552721186	250.179548356989	0.0499956358034979
65562	50	388	0	0	reindeer	1301	79	1	stimuli\reindeer\reindeer_11s.jpg	10	-1	1	0	reindeer_11s.jpg	0	0	0	250.229575200448	250.279549137182	0.049973936733295
65662	50	389	0	0	spear	1510	80	1	stimuli\spear\spear_10s.jpg	9	-1	1	0	spear_10s.jpg	0	0	0	250.329568910156	250.379559425955	0.0499905157994363
65762	50	390	0	0	ruler	1341	81	1	stimuli\ruler\ruler_10s.jpg	9	-1	1	0	ruler_10s.jpg	0	0	0	250.429572616065	250.479551672803	0.0499790567373566
65862	50	391	0	0	cheeseburger	313	82	1	stimuli\cheeseburger\cheeseburger_10s.jpg	9	-1	1	0	cheeseburger_10s.jpg	0	0	0	250.52957924769	250.579553915853	0.0499746681634861
65962	50	392	0	0	rhinoceros	1306	83	1	stimuli\rhinoceros\rhinoceros_02s.jpg	1	-1	1	0	rhinoceros_02s.jpg	0	0	0	250.629574664066	250.679555427474	0.0499807634078024
66062	50	393	0	0	boot	169	84	1	stimuli\boot\boot_10s.jpg	9	-1	1	0	boot_10s.jpg	0	0	0	250.729581783313	250.779565228628	0.0499834453148651
66162	50	394	0	0	space_shuttle	1501	85	1	stimuli\space_shuttle\space_shuttle_07s.jpg	6	-1	1	0	space_shuttle_07s.jpg	0	0	0	250.829589633988	250.879568690727	0.0499790567391756
66262	50	395	0	0	chime	328	86	1	stimuli\chime\chime_04s.jpg	3	-1	1	0	chime_04s.jpg	0	0	0	250.929583587505	250.979565813772	0.0499822262663656
66362	50	396	0	0	fruit	645	87	1	stimuli\fruit\fruit_06s.jpg	5	-1	1	0	fruit_06s.jpg	0	0	0	251.02959168199	251.079573908257	0.0499822262663656
66462	50	397	0	0	lunchbox	950	88	1	stimuli\lunchbox\lunchbox_12s.jpg	11	-1	1	0	lunchbox_12s.jpg	0	0	0	251.129595631708	251.179581515122	0.049985883413683
66562	50	398	0	0	corkscrew	411	89	1	stimuli\corkscrew\corkscrew_08n.jpg	7	-1	1	0	corkscrew_08n.jpg	0	0	0	251.229597630949	251.279581563884	0.0499839329349925
66662	50	399	0	0	grass	705	90	1	stimuli\grass\grass_04s.jpg	3	-1	1	0	grass_04s.jpg	0	0	0	251.329599386379	251.37958746408	0.0499880777006183
66762	50	400	0	0	tee	1636	91	1	stimuli\tee\tee_12s.jpg	11	-1	1	0	tee_12s.jpg	0	0	0	251.429603579909	251.479580929978	0.0499773500687297
66862	50	401	0	0	water_cooler	1788	92	1	stimuli\water_cooler\water_cooler_05s.jpg	4	-1	1	0	water_cooler_05s.jpg	0	0	0	251.529599971524	251.579587073986	0.0499871024621825
66962	50	402	0	0	radio	1273	93	1	stimuli\radio\radio_11s.jpg	10	-1	1	0	radio_11s.jpg	0	0	0	251.629611723156	251.679588097986	0.0499763748302939
67062	50	403	0	0	orange_rind	1079	94	1	stimuli\orange_rind\orange_rind_04s.jpg	3	-1	1	0	orange_rind_04s.jpg	0	0	0	251.729604213813	251.779588634368	0.0499844205551199
67162	50	404	0	0	sofa_bed	1492	95	1	stimuli\sofa_bed\sofa_bed_09s.jpg	8	-1	1	0	sofa_bed_09s.jpg	0	0	0	251.829612552108	251.879589170749	0.0499766186403576
67262	50	405	0	0	dreidel	517	96	1	stimuli\dreidel\dreidel_08s.jpg	7	-1	1	0	dreidel_08s.jpg	0	0	0	251.929614063729	251.979592876658	0.0499788129291119
67362	50	406	0	0	saffron	1345	97	1	stimuli\saffron\saffron_05s.jpg	4	-1	1	0	saffron_05s.jpg	0	0	0	252.029618988687	252.079596094947	0.049977106260485
67462	50	407	0	0	cordon_bleu	408	98	1	stimuli\cordon_bleu\cordon_bleu_06s.jpg	5	-1	1	0	cordon_bleu_06s.jpg	0	0	0	252.129620012687	252.179596387519	0.0499763748321129
67562	50	408	0	0	pallet	1101	99	1	stimuli\pallet\pallet_12s.jpg	11	-1	1	0	pallet_12s.jpg	0	0	0	252.229620061449	252.279603750574	0.0499836891249288
67662	50	409	0	0	mashed_potato	979	100	1	stimuli\mashed_potato\mashed_potato_05s.jpg	4	-1	1	0	mashed_potato_05s.jpg	0	0	0	252.329624498789	252.379602580288	0.0499780814989208
67762	50	410	0	0	kangaroo	862	101	1	stimuli\kangaroo\kangaroo_04s.jpg	3	-1	1	0	kangaroo_04s.jpg	0	0	0	252.429625035169	252.479608724294	0.0499836891249288
67862	50	411	0	0	hairdryer	735	102	1	stimuli\hairdryer\hairdryer_04s.jpg	3	-1	1	0	hairdryer_04s.jpg	0	0	0	252.529634592513	252.579611211155	0.0499766186421766
67962	50	412	0	0	noose	1062	103	1	stimuli\noose\noose_11s.jpg	10	-1	1	0	noose_11s.jpg	0	0	0	252.629632446988	252.679614185634	0.0499817386462382
68062	50	413	0	0	scalpel	1374	104	1	stimuli\scalpel\scalpel_09s.jpg	8	-1	1	0	scalpel_09s.jpg	0	0	0	252.729633470988	252.779621792499	0.049988321510682
68162	50	414	0	0	gutter	729	105	1	stimuli\gutter\gutter_11s.jpg	10	-1	1	0	gutter_11s.jpg	0	0	0	252.829644003572	252.87962379174	0.0499797881675477
68262	50	415	0	0	birthday_cake	132	106	1	stimuli\birthday_cake\birthday_cake_04s.jpg	3	-1	1	0	birthday_cake_04s.jpg	0	0	0	252.929643564714	252.979622865263	0.0499793005492393
68362	50	416	0	0	test_tube	1645	107	1	stimuli\test_tube\test_tube_12s.jpg	11	-1	1	0	test_tube_12s.jpg	0	0	0	253.0296492211	253.079627790221	0.0499785691208672
68462	50	417	0	0	sock	1489	108	1	stimuli\sock\sock_12s.jpg	11	-1	1	0	sock_12s.jpg	0	0	0	253.129644881286	253.179625888504	0.0499810072178661
68562	50	418	0	0	hose	800	109	1	stimuli\hose\hose_01b.jpg	0	-1	1	0	hose_01b.jpg	0	0	0	253.229646636717	253.279630325842	0.0499836891249288
68662	50	419	0	0	paperweight	1117	110	1	stimuli\paperweight\paperweight_01b.jpg	0	-1	1	0	paperweight_01b.jpg	0	0	0	253.329659119778	253.379634031751	0.0499749119735498
68762	50	420	0	0	otter	1085	111	1	stimuli\otter\otter_10n.jpg	9	-1	1	0	otter_10n.jpg	0	0	0	253.429655023774	253.47963725004	0.0499822262663656
68862	50	421	0	0	megaphone	993	112	1	stimuli\megaphone\megaphone_03s.jpg	2	-1	1	0	megaphone_03s.jpg	0	0	0	253.529657998253	253.579642662617	0.0499846643633646
68962	50	422	0	0	ostrich	1084	113	1	stimuli\ostrich\ostrich_05s.jpg	4	-1	1	0	ostrich_05s.jpg	0	0	0	253.629661460353	253.67964222376	0.0499807634078024
69062	50	423	0	0	cake_mix	238	114	1	stimuli\cake_mix\cake_mix_12s.jpg	11	-1	1	0	cake_mix_12s.jpg	0	0	0	253.729664678642	253.779646173478	0.0499814948361745
69162	50	424	0	0	stair	1532	115	1	stimuli\stair\stair_12s.jpg	11	-1	1	0	stair_12s.jpg	0	0	0	253.829669359789	253.879649147959	0.0499797881693667
69262	50	425	0	0	sprinkler	1523	116	1	stimuli\sprinkler\sprinkler_02n.jpg	1	-1	1	0	sprinkler_02n.jpg	0	0	0	253.929664044736	253.979647490052	0.0499834453166841
69362	50	426	0	0	ring	1313	117	1	stimuli\ring\ring_06s.jpg	5	-1	1	0	ring_06s.jpg	0	0	0	254.029674333509	254.079656803586	0.0499824700764293
69462	50	427	0	0	almond	13	118	1	stimuli\almond\almond_09s.jpg	8	-1	1	0	almond_09s.jpg	0	0	0	254.12967560132	254.179656608538	0.0499810072178661
69562	50	428	0	0	clover	366	119	1	stimuli\clover\clover_07s.jpg	6	-1	1	0	clover_07s.jpg	0	0	0	254.229672724365	254.279662508734	0.0499897843692452
69662	50	429	0	0	mulberry	1037	120	1	stimuli\mulberry\mulberry_05s.jpg	4	-1	1	0	mulberry_05s.jpg	0	0	0	254.329682525518	254.379661826068	0.0499793005492393
69762	50	430	0	0	cleaver	354	121	1	stimuli\cleaver\cleaver_10s.jpg	9	-1	1	0	cleaver_10s.jpg	0	0	0	254.429680867612	254.479662850068	0.0499819824563019
69862	50	431	0	0	warthog	1781	122	1	stimuli\warthog\warthog_09s.jpg	8	-1	1	0	warthog_09s.jpg	0	0	0	254.529681647804	254.579668506456	0.0499868586521188
69962	50	432	0	0	dashboard	475	123	1	stimuli\dashboard\dashboard_01b.jpg	0	-1	1	0	dashboard_01b.jpg	0	0	0	254.62968681657	254.679667092358	0.0499802757876751
70062	50	433	0	0	corset	418	124	1	stimuli\corset\corset_01b.jpg	0	-1	1	0	corset_01b.jpg	0	0	0	254.729691741528	254.779675674463	0.0499839329349925
70162	50	434	0	0	marijuana	974	125	1	stimuli\marijuana\marijuana_02s.jpg	1	-1	1	0	marijuana_02s.jpg	0	0	0	254.829691302672	254.879672797508	0.0499814948361745
70262	50	435	0	0	pepper1	1149	126	1	stimuli\pepper1\pepper1_04s.jpg	3	-1	1	0	pepper1_04s.jpg	0	0	0	254.92969330191	254.979679429134	0.0499861272237467
70362	50	436	0	0	bobsled	155	127	1	stimuli\bobsled\bobsled_07s.jpg	6	-1	1	0	bobsled_07s.jpg	0	0	0	255.029706028783	255.079689961716	0.0499839329331735
70462	50	437	0	0	film	586	128	1	stimuli\film\film_10s.jpg	9	-1	1	0	film_10s.jpg	0	0	0	255.129699738489	255.179678795228	0.0499790567391756
70562	50	438	0	0	cheesecake	314	129	1	stimuli\cheesecake\cheesecake_07s.jpg	6	-1	1	0	cheesecake_07s.jpg	0	0	0	255.229701006301	255.279685914475	0.0499849081734283
70662	50	439	0	0	llama	938	130	1	stimuli\llama\llama_02s.jpg	1	-1	1	0	llama_02s.jpg	0	0	0	255.329710076025	255.379693033721	0.0499829576965567
70762	50	440	0	0	mold2	1013	131	1	stimuli\mold2\mold2_02s.jpg	1	-1	1	0	mold2_02s.jpg	0	0	0	255.429713781934	255.479689181526	0.0499753995918581
70862	50	441	0	0	clipboard	355	132	1	stimuli\clipboard\clipboard_04s.jpg	3	-1	1	0	clipboard_04s.jpg	0	0	0	255.529715537365	255.579697276011	0.0499817386462382
70962	50	442	0	0	accordion	2	133	1	stimuli\accordion\accordion_12s.jpg	11	-1	1	0	accordion_12s.jpg	0	0	0	255.629717048985	255.679696837153	0.0499797881675477
71062	50	443	0	0	shopping_basket	1427	134	1	stimuli\shopping_basket\shopping_basket_09s.jpg	8	-1	1	0	shopping_basket_09s.jpg	0	0	0	255.729715878699	255.779701030682	0.049985151983492
71162	50	444	0	0	cigarette_butt	345	135	1	stimuli\cigarette_butt\cigarette_butt_02s.jpg	1	-1	1	0	cigarette_butt_02s.jpg	0	0	0	255.829725436042	255.879698641345	0.0499732053031039
71262	50	445	0	0	machine_gun	954	136	1	stimuli\machine_gun\machine_gun_06s.jpg	5	-1	1	0	machine_gun_06s.jpg	0	0	0	255.929724021946	255.979703810113	0.0499797881675477
71362	50	446	0	0	turntable	1735	137	1	stimuli\turntable\turntable_11s.jpg	10	-1	1	0	turntable_11s.jpg	0	0	0	256.029732360239	256.079711416978	0.0499790567391756
71462	50	447	0	0	noisemaker	1060	138	1	stimuli\noisemaker\noisemaker_09s.jpg	8	-1	1	1	noisemaker_09s.jpg	0	0	0	256.129730702332	256.179713416219	0.049982713886493
71562	50	448	0	0	gavel	665	139	1	stimuli\gavel\gavel_10s.jpg	9	-1	1	0	gavel_10s.jpg	0	0	0	256.229733189193	256.279712245932	0.0499790567391756
71662	50	449	0	0	lettuce	920	140	1	stimuli\lettuce\lettuce_04n.jpg	3	-1	1	0	lettuce_04n.jpg	0	0	0	256.329758106554	256.379736188053	0.0499780814989208
71762	50	450	0	0	float	616	141	1	stimuli\float\float_04s.jpg	3	-1	1	0	float_04s.jpg	0	0	0	256.429742307679	256.479724046327	0.0499817386480572
71862	50	451	0	0	chicken1	322	142	1	stimuli\chicken1\chicken1_08s.jpg	7	-1	1	0	chicken1_08s.jpg	0	0	0	256.529763567893	256.579717512224	0.049953944331719
71962	50	452	0	0	calzone	243	143	1	stimuli\calzone\calzone_01s.jpg	0	-1	1	0	calzone_01s.jpg	0	0	0	256.629730702332	256.679709515261	0.0499788129291119
72062	50	453	0	0	potato	1231	144	1	stimuli\potato\potato_06n.jpg	5	-1	1	0	potato_06n.jpg	0	0	0	256.729731726335	256.779712977361	0.0499812510261108
72162	50	454	0	0	odometer	1071	145	1	stimuli\odometer\odometer_11s.jpg	10	-1	1	0	odometer_11s.jpg	0	0	0	256.829746403684	256.87971668327	0.0499702795859776
72262	50	455	0	0	cantaloupe	263	146	1	stimuli\cantaloupe\cantaloupe_04s.jpg	3	-1	1	0	cantaloupe_04s.jpg	0	0	0	256.929736943865	256.979719901559	0.0499829576947377
72362	50	456	0	0	peg	1139	147	1	stimuli\peg\peg_03s.jpg	2	-1	1	0	peg_03s.jpg	0	0	0	257.029748207877	257.079728727475	0.0499805195977387
72462	50	457	0	0	hook1	793	148	1	stimuli\hook1\hook1_01b.jpg	0	-1	1	0	hook1_01b.jpg	0	0	0	257.129741917584	257.179730239095	0.049988321510682
72562	50	458	0	0	spam	1504	149	1	stimuli\spam\spam_12s.jpg	11	-1	1	0	spam_12s.jpg	0	0	0	257.229749524449	257.279729068807	0.049979544357484
72662	50	459	0	0	pesto	1156	150	1	stimuli\pesto\pesto_07s.jpg	6	-1	1	0	pesto_07s.jpg	0	0	0	257.329792483733	257.379770077614	0.0499775938806124
72762	50	460	0	0	scarf	1377	151	1	stimuli\scarf\scarf_02s.jpg	1	-1	1	0	scarf_02s.jpg	0	0	0	257.429774490573	257.479767444469	0.0499929538964352
72862	50	461	0	0	chest1	319	152	1	stimuli\chest1\chest1_06s.jpg	5	-1	1	0	chest1_06s.jpg	0	0	0	257.529788436492	257.579754571312	0.0499661348203517
72962	50	462	0	0	hedge	773	153	1	stimuli\hedge\hedge_05s.jpg	4	-1	1	0	hedge_05s.jpg	0	0	0	257.62979287383	257.679741941965	0.0499490681359021
73062	50	463	0	0	wolf	1831	154	1	stimuli\wolf\wolf_09s.jpg	8	-1	1	0	wolf_09s.jpg	0	0	0	257.729762202558	257.779747598352	0.0499853957935557
73162	50	464	0	0	coffee_filter	379	155	1	stimuli\coffee_filter\coffee_filter_05s.jpg	4	-1	1	0	coffee_filter_05s.jpg	0	0	0	257.829763226558	257.879743989966	0.0499807634078024
73262	50	465	0	0	snowboard	1481	156	1	stimuli\snowboard\snowboard_12s.jpg	11	-1	1	0	snowboard_12s.jpg	0	0	0	257.929767176278	257.979772564475	0.0500053881969507
73362	50	466	0	0	dirt_bike	488	157	1	stimuli\dirt_bike\dirt_bike_03s.jpg	2	-1	1	0	dirt_bike_03s.jpg	0	0	0	258.029772832666	258.079757009409	0.0499841767432372
73462	50	467	0	0	dishrag	490	158	1	stimuli\dishrag\dishrag_03s.jpg	2	-1	1	0	dishrag_03s.jpg	0	0	0	258.129775319525	258.179756326743	0.0499810072178661
73562	50	468	0	0	beaver	107	159	1	stimuli\beaver\beaver_06s.jpg	5	-1	1	0	beaver_06s.jpg	0	0	0	258.229790484495	258.279754668836	0.0499641843416612
73662	50	469	0	0	tricycle	1711	160	1	stimuli\tricycle\tricycle_03s.jpg	2	-1	1	0	tricycle_03s.jpg	0	0	0	258.329782487534	258.379757643315	0.0499751557817945
73762	50	470	0	0	fly	621	161	1	stimuli\fly\fly_12s.jpg	11	-1	1	0	fly_12s.jpg	0	0	0	258.429780098197	258.47976500637	0.0499849081734283
73862	50	471	0	0	stomach	1560	162	1	stimuli\stomach\stomach_08s.jpg	7	-1	1	0	stomach_08s.jpg	0	0	0	258.529783316486	258.579769931328	0.0499866148420551
73962	50	472	0	0	pickax	1166	163	1	stimuli\pickax\pickax_08s.jpg	7	-1	1	0	pickax_08s.jpg	0	0	0	258.629785315727	258.679765591514	0.0499802757876751
74062	50	473	0	0	camcorder	244	164	1	stimuli\camcorder\camcorder_10s.jpg	9	-1	1	0	camcorder_10s.jpg	0	0	0	258.729789265444	258.779768078373	0.0499788129291119
74162	50	474	0	0	crystal1	453	165	1	stimuli\crystal1\crystal1_08s.jpg	7	-1	1	0	crystal1_08s.jpg	0	0	0	258.829797359929	258.879771784283	0.0499744243534224
74262	50	475	0	0	buggy	213	166	1	stimuli\buggy\buggy_06s.jpg	5	-1	1	0	buggy_06s.jpg	0	0	0	258.929797408691	258.979782316866	0.0499849081752473
74362	50	476	0	0	finger	588	167	1	stimuli\finger\finger_06s.jpg	5	-1	1	0	finger_06s.jpg	0	0	0	259.029797457453	259.079784559915	0.0499871024621825
74462	50	477	0	0	crucifix	449	168	1	stimuli\crucifix\crucifix_01b.jpg	0	-1	1	0	crucifix_01b.jpg	0	0	0	259.129797750025	259.179780951532	0.0499832015066204
74562	50	478	0	0	fungus	648	169	1	stimuli\fungus\fungus_03s.jpg	2	-1	1	0	fungus_03s.jpg	0	0	0	259.229821448338	259.279782463153	0.0499610148144711
74662	50	479	0	0	goldfish	688	170	1	stimuli\goldfish\goldfish_01b.jpg	0	-1	1	0	goldfish_01b.jpg	0	0	0	259.329804186604	259.379784218583	0.0499800319794304
74762	50	480	0	0	porthole	1227	171	1	stimuli\porthole\porthole_09s.jpg	8	-1	1	0	porthole_09s.jpg	0	0	0	259.429806673465	259.479799383551	0.0499927100863715
74862	50	481	0	0	moccasin	1010	172	1	stimuli\moccasin\moccasin_09s.jpg	8	-1	1	1	moccasin_09s.jpg	0	0	0	259.529815499378	259.579793580879	0.0499780815007398
74962	50	482	0	0	skirt	1457	173	1	stimuli\skirt\skirt_07s.jpg	6	-1	1	0	skirt_07s.jpg	0	0	0	259.629812622423	259.679795092499	0.0499824700764293
75062	50	483	0	0	t-shirt	1606	174	1	stimuli\t-shirt\t-shirt_04s.jpg	3	-1	1	0	t-shirt_04s.jpg	0	0	0	259.729835101685	259.779799286027	0.0499641843416612
75162	50	484	0	0	nightshirt	1058	175	1	stimuli\nightshirt\nightshirt_02s.jpg	1	-1	1	0	nightshirt_02s.jpg	0	0	0	259.829822472338	259.879802260506	0.0499797881675477
75262	50	485	0	0	thimble	1649	176	1	stimuli\thimble\thimble_01b.jpg	0	-1	1	0	thimble_01b.jpg	0	0	0	259.929823740149	259.979803284508	0.049979544359303
75362	50	486	0	0	christmas_tree	341	177	1	stimuli\christmas_tree\christmas_tree_10s.jpg	9	-1	1	0	christmas_tree_10s.jpg	0	0	0	260.02982647082	260.079813573282	0.0499871024621825
75462	50	487	0	0	mail	959	178	1	stimuli\mail\mail_12s.jpg	11	-1	1	0	mail_12s.jpg	0	0	0	260.12982676339	260.179809964897	0.0499832015066204
75562	50	488	0	0	bowl	177	179	1	stimuli\bowl\bowl_02s.jpg	1	-1	1	0	bowl_02s.jpg	0	0	0	260.229845341697	260.279813426996	0.0499680852990423
75662	50	489	0	0	blowgun	147	180	1	stimuli\blowgun\blowgun_02s.jpg	1	-1	1	0	blowgun_02s.jpg	0	0	0	260.329836613306	260.379810550039	0.049973936733295
75762	50	490	0	0	dollhouse	500	181	1	stimuli\dollhouse\dollhouse_02s.jpg	1	-1	1	0	dollhouse_02s.jpg	0	0	0	260.429832517302	260.47982400834	0.049991491037872
75862	50	491	0	0	bedpan	109	182	1	stimuli\bedpan\bedpan_05s.jpg	4	-1	1	0	bedpan_05s.jpg	0	0	0	260.529840855597	260.579824788532	0.0499839329349925
75962	50	492	0	0	bologna	158	183	1	stimuli\bologna\bologna_11s.jpg	10	-1	1	0	bologna_11s.jpg	0	0	0	260.629844073886	260.679824105864	0.0499800319776114
76062	50	493	0	0	knee	877	184	1	stimuli\knee\knee_02s.jpg	1	-1	1	0	knee_02s.jpg	0	0	0	260.729848755034	260.779830737491	0.0499819824563019
76162	50	494	0	0	filing_cabinet	585	185	1	stimuli\filing_cabinet\filing_cabinet_08s.jpg	7	-1	1	0	filing_cabinet_08s.jpg	0	0	0	260.829850510465	260.879830542443	0.0499800319776114
76262	50	495	0	0	elephant	554	186	1	stimuli\elephant\elephant_03n.jpg	2	-1	1	0	elephant_03n.jpg	0	0	0	260.929848608748	260.979830591205	0.0499819824563019
76362	50	496	0	0	mouse1	1026	187	1	stimuli\mouse1\mouse1_10s.jpg	9	-1	1	0	mouse1_10s.jpg	0	0	0	261.029856947043	261.079836979021	0.0499800319776114
76462	50	497	0	0	tostada	1688	188	1	stimuli\tostada\tostada_04s.jpg	3	-1	1	0	tostada_04s.jpg	0	0	0	261.129856264375	261.179843610647	0.0499873462722462
76562	50	498	0	0	pumpkin	1253	189	1	stimuli\pumpkin\pumpkin_08s.jpg	7	-1	1	0	pumpkin_08s.jpg	0	0	0	261.229856069327	261.27984414703	0.0499880777024373
76662	50	499	0	0	harp	755	190	1	stimuli\harp\harp_03s.jpg	2	-1	1	0	harp_03s.jpg	0	0	0	261.329860994285	261.379838831976	0.0499778376906761
76762	50	500	0	0	windowsill	1819	191	1	stimuli\windowsill\windowsill_06s.jpg	5	-1	1	0	windowsill_06s.jpg	0	0	0	261.429862993526	261.479850339798	0.0499873462722462
76862	50	501	0	0	pheasant	1160	192	1	stimuli\pheasant\pheasant_09s.jpg	8	-1	1	0	pheasant_09s.jpg	0	0	0	261.529868893724	261.579851119988	0.0499822262645466
76962	50	502	0	0	swab	1590	193	1	stimuli\swab\swab_06s.jpg	5	-1	1	0	swab_06s.jpg	0	0	0	261.62987479392	261.679850681132	0.0499758872119855
77062	50	503	0	0	macadamia	951	194	1	stimuli\macadamia\macadamia_08s.jpg	7	-1	1	0	macadamia_08s.jpg	0	0	0	261.729867772197	261.77985560609	0.0499878338923736
77162	50	504	0	0	dumbbell	530	195	1	stimuli\dumbbell\dumbbell_11s.jpg	10	-1	1	0	dumbbell_11s.jpg	0	0	0	261.829876110492	261.87985711771	0.0499810072178661
77262	50	505	0	0	jack	835	196	1	stimuli\jack\jack_01b.jpg	0	-1	1	0	jack_01b.jpg	0	0	0	261.929875184016	261.979858141711	0.0499829576947377
77362	50	506	0	0	water_bottle	1787	197	1	stimuli\water_bottle\water_bottle_11s.jpg	10	-1	1	0	water_bottle_11s.jpg	0	0	0	262.029875964206	262.079865260957	0.0499892967509368
77462	50	507	0	0	underwear	1745	198	1	stimuli\underwear\underwear_02s.jpg	1	-1	1	0	underwear_02s.jpg	0	0	0	262.129879670116	262.179862871621	0.0499832015048014
77562	50	508	0	0	trophy	1717	199	1	stimuli\trophy\trophy_10s.jpg	9	-1	1	0	trophy_10s.jpg	0	0	0	262.229894103655	262.279868771819	0.0499746681634861
77662	50	509	0	0	grinder	716	200	1	stimuli\grinder\grinder_04s.jpg	3	-1	1	0	grinder_04s.jpg	0	0	0	262.32989049527	262.379870039629	0.049979544359303
77762	50	510	0	0	leggings	912	201	1	stimuli\leggings\leggings_12s.jpg	11	-1	1	0	leggings_12s.jpg	0	0	0	262.429893225941	262.479872282678	0.0499790567373566
77862	50	511	0	0	mannequin	968	202	1	stimuli\mannequin\mannequin_06s.jpg	5	-1	1	0	mannequin_06s.jpg	0	0	0	262.529897907089	262.579877939066	0.0499800319776114
77962	50	512	0	0	duct_tape	528	203	1	stimuli\duct_tape\duct_tape_11s.jpg	10	-1	1	0	duct_tape_11s.jpg	0	0	0	262.629903075856	262.67987701259	0.049973936733295
78062	50	513	0	0	sunroof	1586	204	1	stimuli\sunroof\sunroof_04s.jpg	3	-1	1	0	sunroof_04s.jpg	0	0	0	262.729898248423	262.779879011829	0.0499807634059835
78162	50	514	0	0	jukebox	857	205	1	stimuli\jukebox\jukebox_11s.jpg	10	-1	1	0	jukebox_11s.jpg	0	0	0	262.829900979092	262.879885643455	0.0499846643633646
78262	50	515	0	0	shorts	1430	206	1	stimuli\shorts\shorts_09s.jpg	8	-1	1	0	shorts_09s.jpg	0	0	0	262.929907123098	262.979884473169	0.0499773500705487
78362	50	516	0	0	lid	923	207	1	stimuli\lid\lid_01b.jpg	0	-1	1	0	lid_01b.jpg	0	0	0	263.029909366149	263.079887447648	0.0499780814989208
78462	50	517	0	0	truck	1720	208	1	stimuli\truck\truck_12s.jpg	11	-1	1	0	truck_12s.jpg	0	0	0	263.129906489192	263.179891641177	0.0499851519853109
78562	50	518	0	0	detonator	482	209	1	stimuli\detonator\detonator_07s.jpg	6	-1	1	0	detonator_07s.jpg	0	0	0	263.22991287701	263.279891446129	0.0499785691190482
78662	50	519	0	0	magnet	956	210	1	stimuli\magnet\magnet_08s.jpg	7	-1	1	0	magnet_08s.jpg	0	0	0	263.329915120059	263.379895639657	0.0499805195977387
78762	50	520	0	0	light_switch	926	211	1	stimuli\light_switch\light_switch_05s.jpg	4	-1	1	0	light_switch_05s.jpg	0	0	0	263.42991760692	263.479901783663	0.0499841767432372
78862	50	521	0	0	funnel	649	212	1	stimuli\funnel\funnel_09s.jpg	8	-1	1	0	funnel_09s.jpg	0	0	0	263.529921800447	263.579901588615	0.0499797881675477
78962	50	522	0	0	lighter	928	213	1	stimuli\lighter\lighter_01s.jpg	0	-1	1	0	lighter_01s.jpg	0	0	0	263.629921605399	263.679902124997	0.0499805195977387
79062	50	523	0	0	fishnet_stockings	604	214	1	stimuli\fishnet_stockings\fishnet_stockings_11s.jpg	10	-1	1	0	fishnet_stockings_11s.jpg	0	0	0	263.729931162743	263.779908756624	0.0499775938806124
79162	50	524	0	0	cocktail	374	215	1	stimuli\cocktail\cocktail_04s.jpg	3	-1	1	0	cocktail_04s.jpg	0	0	0	263.829928773408	263.879910024434	0.0499812510261108
79262	50	525	0	0	marble	972	216	1	stimuli\marble\marble_01b.jpg	0	-1	1	0	marble_01b.jpg	0	0	0	263.929931260267	263.979917875109	0.0499866148420551
79362	50	526	0	0	camera1	246	217	1	stimuli\camera1\camera1_10s.jpg	9	-1	1	0	camera1_10s.jpg	0	0	0	264.029938135704	264.079917192443	0.0499790567391756
79462	50	527	0	0	ant	24	218	1	stimuli\ant\ant_05s.jpg	4	-1	1	0	ant_05s.jpg	0	0	0	264.129937940656	264.179916753585	0.0499788129291119
79562	50	528	0	0	pole	1213	219	1	stimuli\pole\pole_04s.jpg	3	-1	1	0	pole_04s.jpg	0	0	0	264.229945303712	264.279920703304	0.0499753995918581
79662	50	529	0	0	wax_paper	1796	220	1	stimuli\wax_paper\wax_paper_04s.jpg	3	-1	1	0	wax_paper_04s.jpg	0	0	0	264.329946083903	264.379922946353	0.0499768624504213
79762	50	530	0	0	football	629	221	1	stimuli\football\football_08s.jpg	7	-1	1	0	football_08s.jpg	0	0	0	264.429943694568	264.479927139882	0.0499834453148651
79862	50	531	0	0	water_fountain	1790	222	1	stimuli\water_fountain\water_fountain_01b.jpg	0	-1	1	0	water_fountain_01b.jpg	0	0	0	264.529947400475	264.579925238166	0.0499778376906761
79962	50	532	0	0	garbage	655	223	1	stimuli\garbage\garbage_07s.jpg	6	-1	1	0	garbage_07s.jpg	0	0	0	264.629952081623	264.679936014558	0.0499839329349925
80062	50	533	0	0	gem	670	224	1	stimuli\gem\gem_12s.jpg	11	-1	1	0	gem_12s.jpg	0	0	0	264.729953837053	264.779937526178	0.0499836891249288
80162	50	534	0	0	hole	785	225	1	stimuli\hole\hole_10s.jpg	9	-1	1	0	hole_10s.jpg	0	0	0	264.829959493441	264.879942207328	0.049982713886493
80262	50	535	0	0	tiger	1659	226	1	stimuli\tiger\tiger_03s.jpg	2	-1	1	0	tiger_03s.jpg	0	0	0	264.929963686969	264.979945181807	0.0499814948379935
80362	50	536	0	0	telephone_pole	1639	227	1	stimuli\telephone_pole\telephone_pole_05s.jpg	4	-1	1	0	telephone_pole_05s.jpg	0	0	0	265.029964223351	265.07994303628	0.0499788129291119
80462	50	537	0	0	racket	1270	228	1	stimuli\racket\racket_06s.jpg	5	-1	1	0	racket_06s.jpg	0	0	0	265.129964028303	265.179948205048	0.0499841767450562
80562	50	538	0	0	anklet	23	229	1	stimuli\anklet\anklet_06s.jpg	5	-1	1	0	anklet_06s.jpg	0	0	0	265.229965296114	265.279952886196	0.0499875900823099
80662	50	539	0	0	sawhorse	1367	230	1	stimuli\sawhorse\sawhorse_06s.jpg	5	-1	1	0	sawhorse_06s.jpg	0	0	0	265.329975584888	265.379950984479	0.0499753995918581
80762	50	540	0	0	torso	1685	231	1	stimuli\torso\torso_11s.jpg	10	-1	1	0	torso_11s.jpg	0	0	0	265.429978559367	265.479950301813	0.0499717424463597
80862	50	541	0	0	heater	772	232	1	stimuli\heater\heater_06s.jpg	5	-1	1	0	heater_06s.jpg	0	0	0	265.530010791021	265.579961322015	0.0499505309944652
80962	50	542	0	0	thermometer	1646	233	1	stimuli\thermometer\thermometer_03s.jpg	2	-1	1	0	thermometer_03s.jpg	0	0	0	265.629977925462	265.679960395537	0.0499824700746103
81062	50	543	0	0	bike	123	234	1	stimuli\bike\bike_11s.jpg	10	-1	1	0	bike_11s.jpg	0	0	0	265.729986751376	265.779965564305	0.0499788129291119
81162	50	544	0	0	leotard	918	235	1	stimuli\leotard\leotard_12s.jpg	11	-1	1	0	leotard_12s.jpg	0	0	0	265.829986312518	265.879969514024	0.0499832015066204
81262	50	545	0	0	recorder	1297	236	1	stimuli\recorder\recorder_06s.jpg	5	-1	1	0	recorder_06s.jpg	0	0	0	265.929984410803	265.979974682792	0.0499902719893726
81362	50	546	0	0	punch1	1254	237	1	stimuli\punch1\punch1_11s.jpg	10	-1	1	0	punch1_11s.jpg	0	0	0	266.0299878729	266.079973756314	0.049985883413683
81462	50	547	0	0	joystick	852	238	1	stimuli\joystick\joystick_02s.jpg	1	-1	1	1	joystick_02s.jpg	0	0	0	266.129990603571	266.179971854597	0.0499812510261108
81562	50	548	0	0	tab	1607	239	1	stimuli\tab\tab_04s.jpg	3	-1	1	0	tab_04s.jpg	0	0	0	266.22999406567	266.279974829076	0.0499807634059835
81662	50	549	0	0	octopus	1070	240	1	stimuli\octopus\octopus_10s.jpg	9	-1	1	0	octopus_10s.jpg	0	0	0	266.329997040149	266.379981704513	0.0499846643633646
81762	50	550	0	0	slide	1464	241	1	stimuli\slide\slide_04s.jpg	3	-1	1	0	slide_04s.jpg	0	0	0	266.430002940346	266.479983703754	0.0499807634078024
81862	50	551	0	0	weed	1802	242	1	stimuli\weed\weed_09s.jpg	8	-1	1	0	weed_09s.jpg	0	0	0	266.530003476728	266.579987165853	0.0499836891249288
81962	50	552	0	0	home_plate	787	243	1	stimuli\home_plate\home_plate_08s.jpg	7	-1	1	0	home_plate_08s.jpg	0	0	0	266.630007670256	266.679985995566	0.0499783253108035
82062	50	553	0	0	toy	1694	244	1	stimuli\toy\toy_11s.jpg	10	-1	1	0	toy_11s.jpg	0	0	0	266.730007231399	266.779991408142	0.0499841767432372
82162	50	554	0	0	boulder	172	245	1	stimuli\boulder\boulder_08s.jpg	7	-1	1	0	boulder_08s.jpg	0	0	0	266.830014838264	266.879994138813	0.0499793005492393
82262	50	555	0	0	ink	829	246	1	stimuli\ink\ink_01b.jpg	0	-1	1	0	ink_01b.jpg	0	0	0	266.930012936547	266.979993212335	0.0499802757876751
82362	50	556	0	0	snowplow	1484	247	1	stimuli\snowplow\snowplow_04s.jpg	3	-1	1	0	snowplow_04s.jpg	0	0	0	267.030014691978	267.079995699196	0.0499810072178661
82462	50	557	0	0	spark_plug	1506	248	1	stimuli\spark_plug\spark_plug_12s.jpg	11	-1	1	0	spark_plug_12s.jpg	0	0	0	267.130020104556	267.179998186055	0.0499780814989208
82562	50	558	0	0	chain	298	249	1	stimuli\chain\chain_09s.jpg	8	-1	1	0	chain_09s.jpg	0	0	0	267.230024298084	267.280008231019	0.0499839329349925
82662	50	559	0	0	jumpsuit	859	250	1	stimuli\jumpsuit\jumpsuit_10s.jpg	9	-1	1	0	jumpsuit_10s.jpg	0	0	0	267.330032392569	267.380005597874	0.0499732053049229
82762	50	560	0	0	firewood	597	251	1	stimuli\firewood\firewood_01b.jpg	0	-1	1	0	firewood_01b.jpg	0	0	0	267.430024395608	267.480014667597	0.0499902719893726
82862	50	561	0	0	coil	384	252	1	stimuli\coil\coil_06s.jpg	5	-1	1	0	coil_06s.jpg	0	0	0	267.530033221523	267.580013497311	0.0499802757876751
82962	50	562	0	0	file1	583	253	1	stimuli\file1\file1_02s.jpg	1	-1	1	0	file1_02s.jpg	0	0	0	267.630035464572	267.680014033691	0.0499785691190482
83062	50	563	0	0	fishing_pole	603	254	1	stimuli\fishing_pole\fishing_pole_06s.jpg	5	-1	1	0	fishing_pole_06s.jpg	0	0	0	267.730039901911	267.780017008172	0.049977106260485
83162	50	564	0	0	sail	1346	255	1	stimuli\sail\sail_07s.jpg	6	-1	1	0	sail_07s.jpg	0	0	0	267.830038731623	267.880017300742	0.0499785691190482
83262	50	565	0	0	petal	1158	256	1	stimuli\petal\petal_01b.jpg	0	-1	1	0	petal_01b.jpg	0	0	0	267.930075839473	267.980042705723	0.0499668662505428
83362	50	566	0	0	rocket	1320	257	1	stimuli\rocket\rocket_04s.jpg	3	-1	1	0	rocket_04s.jpg	0	0	0	268.03004736249	268.080031295425	0.0499839329349925
83462	50	567	0	0	jewel	849	258	1	stimuli\jewel\jewel_08s.jpg	7	-1	1	0	jewel_08s.jpg	0	0	0	268.130048386491	268.180030368947	0.0499819824563019
83562	50	568	0	0	seafood	1394	259	1	stimuli\seafood\seafood_03s.jpg	2	-1	1	0	seafood_03s.jpg	0	0	0	268.23005136097	268.280037488194	0.0499861272237467
83662	50	569	0	0	lightning_bug	929	260	1	stimuli\lightning_bug\lightning_bug_12s.jpg	11	-1	1	0	lightning_bug_12s.jpg	0	0	0	268.330059211647	268.380036317907	0.049977106260485
83762	50	570	0	0	telescope	1640	261	1	stimuli\telescope\telescope_04s.jpg	3	-1	1	0	telescope_04s.jpg	0	0	0	268.4300565785	268.480035879049	0.0499793005492393
83862	50	571	0	0	worm	1836	262	1	stimuli\worm\worm_07n.jpg	6	-1	1	0	worm_07n.jpg	0	0	0	268.53005809012	268.580038853528	0.0499807634078024
83962	50	572	0	0	cabinet	233	263	1	stimuli\cabinet\cabinet_04s.jpg	3	-1	1	0	cabinet_04s.jpg	0	0	0	268.630060089361	268.680049386112	0.0499892967509368
84062	50	573	0	0	lollipop	945	264	1	stimuli\lollipop\lollipop_05s.jpg	4	-1	1	0	lollipop_05s.jpg	0	0	0	268.730070621945	268.780045290107	0.0499746681616671
84162	50	574	0	0	diskette	493	265	1	stimuli\diskette\diskette_04s.jpg	3	-1	1	0	diskette_04s.jpg	0	0	0	268.830065063081	268.880046070299	0.0499810072178661
84262	50	575	0	0	springboard	1522	266	1	stimuli\springboard\springboard_11s.jpg	10	-1	1	0	springboard_11s.jpg	0	0	0	268.93006779375	268.980051482875	0.0499836891249288
84362	50	576	0	0	lime	930	267	1	stimuli\lime\lime_08s.jpg	7	-1	1	0	lime_08s.jpg	0	0	0	269.030074425376	269.080054701164	0.0499802757876751
84462	50	577	0	0	saxophone	1368	268	1	stimuli\saxophone\saxophone_11s.jpg	10	-1	1	0	saxophone_11s.jpg	0	0	0	269.130079837954	269.180055725166	0.0499758872119855
84562	50	578	0	0	crank	432	269	1	stimuli\crank\crank_10s.jpg	9	-1	1	0	crank_10s.jpg	0	0	0	269.230076229569	269.280059918694	0.0499836891249288
84662	50	579	0	0	wheel	1806	270	1	stimuli\wheel\wheel_05s.jpg	4	-1	1	0	wheel_05s.jpg	0	0	0	269.330083348816	269.380064112223	0.0499807634078024
84762	50	580	0	0	piecrust	1169	271	1	stimuli\piecrust\piecrust_05s.jpg	4	-1	1	0	piecrust_05s.jpg	0	0	0	269.430081690909	269.480063917175	0.0499822262663656
84862	50	581	0	0	caramel	270	272	1	stimuli\caramel\caramel_10s.jpg	9	-1	1	0	caramel_10s.jpg	0	0	0	269.530091248253	269.580070792612	0.049979544359303
84962	50	582	0	0	doorbell	507	273	1	stimuli\doorbell\doorbell_10s.jpg	9	-1	1	0	doorbell_10s.jpg	0	0	0	269.630089834156	269.680069134705	0.0499793005492393
85062	50	583	0	0	hood	791	274	1	stimuli\hood\hood_10s.jpg	9	-1	1	0	hood_10s.jpg	0	0	0	269.730091101967	269.780071621564	0.0499805195977387
85162	50	584	0	0	hula_hoop	810	275	1	stimuli\hula_hoop\hula_hoop_09s.jpg	8	-1	1	0	hula_hoop_09s.jpg	0	0	0	269.830093832636	269.880077277952	0.0499834453166841
85262	50	585	0	0	parrot	1121	276	1	stimuli\parrot\parrot_11s.jpg	10	-1	1	0	parrot_11s.jpg	0	0	0	269.930118018568	269.980080496241	0.0499624776730343
85362	50	586	0	0	gorilla	695	277	1	stimuli\gorilla\gorilla_12s.jpg	11	-1	1	0	gorilla_12s.jpg	0	0	0	270.030104170171	270.080086152628	0.0499819824563019
85462	50	587	0	0	tamale	1618	278	1	stimuli\tamale\tamale_03s.jpg	2	-1	1	0	tamale_03s.jpg	0	0	0	270.130104462743	270.180076692808	0.0499722300646681
85562	50	588	0	0	kebab	865	279	1	stimuli\kebab\kebab_08n.jpg	7	-1	1	0	kebab_08n.jpg	0	0	0	270.230105974364	270.280092345396	0.0499863710319914
85662	50	589	0	0	rag	1276	280	1	stimuli\rag\rag_02s.jpg	1	-1	1	0	rag_02s.jpg	0	0	0	270.330109924083	270.380092881778	0.0499829576947377
85762	50	590	0	0	goalpost	683	281	1	stimuli\goalpost\goalpost_03s.jpg	2	-1	1	0	goalpost_03s.jpg	0	0	0	270.430119481427	270.48009244292	0.0499729614930402
85862	50	591	0	0	seesaw	1402	282	1	stimuli\seesaw\seesaw_01b.jpg	0	-1	1	0	seesaw_01b.jpg	0	0	0	270.530111972084	270.580093710731	0.0499817386462382
85962	50	592	0	0	metronome	997	283	1	stimuli\metronome\metronome_01b.jpg	0	-1	1	0	metronome_01b.jpg	0	0	0	270.630118116091	270.680104730935	0.0499866148438741
86062	50	593	0	0	jalapeno	838	284	1	stimuli\jalapeno\jalapeno_01b.jpg	0	-1	1	0	jalapeno_01b.jpg	0	0	0	270.73012279724	270.780102829218	0.0499800319776114
86162	50	594	0	0	rocking_chair	1321	285	1	stimuli\rocking_chair\rocking_chair_12s.jpg	11	-1	1	0	rocking_chair_12s.jpg	0	0	0	270.830123089811	270.880103853218	0.0499807634078024
86262	50	595	0	0	doll	499	286	1	stimuli\doll\doll_12s.jpg	11	-1	1	0	doll_12s.jpg	0	0	0	270.930140936687	270.980110728655	0.0499697919676692
86362	50	596	0	0	sombrero	1495	287	1	stimuli\sombrero\sombrero_11s.jpg	10	-1	1	0	sombrero_11s.jpg	0	0	0	271.030129526389	271.080110777417	0.0499812510279298
86462	50	597	0	0	shell2	1418	288	1	stimuli\shell2\shell2_05s.jpg	4	-1	1	0	shell2_05s.jpg	0	0	0	271.130137133256	271.180149348125	0.0500122148696391
86562	50	598	0	0	gum	724	289	1	stimuli\gum\gum_10s.jpg	9	-1	1	0	gum_10s.jpg	0	0	0	271.230135475349	271.28011258161	0.049977106260485
86662	50	599	0	0	cot	420	290	1	stimuli\cot\cot_10s.jpg	9	-1	1	0	cot_10s.jpg	0	0	0	271.330133086012	271.380112874182	0.0499797881693667
86762	50	600	0	0	hay	761	291	1	stimuli\hay\hay_09s.jpg	8	-1	1	0	hay_09s.jpg	0	0	0	271.430172388151	271.480119261998	0.0499468738471478
86862	50	601	0	0	radiator	1272	292	1	stimuli\radiator\radiator_04s.jpg	3	-1	1	0	radiator_04s.jpg	0	0	0	271.530140254021	271.580123455526	0.0499832015048014
86962	50	602	0	0	eagle	537	293	1	stimuli\eagle\eagle_02s.jpg	1	-1	1	0	eagle_02s.jpg	0	0	0	271.630145422789	271.680138864305	0.0499934415165626
87062	50	603	0	0	tuba	1723	294	1	stimuli\tuba\tuba_09s.jpg	8	-1	1	0	tuba_09s.jpg	0	0	0	271.730142545832	271.780128916866	0.0499863710338104
87162	50	604	0	0	whisk	1811	295	1	stimuli\whisk\whisk_10s.jpg	9	-1	1	0	whisk_10s.jpg	0	0	0	271.83014844603	271.880127258959	0.0499788129291119
87262	50	605	0	0	shower_curtain	1435	296	1	stimuli\shower_curtain\shower_curtain_02s.jpg	1	-1	1	0	shower_curtain_02s.jpg	0	0	0	271.930143130976	271.980137791541	0.0499946605650621
87362	50	606	0	0	drumstick	523	297	1	stimuli\drumstick\drumstick_12s.jpg	11	-1	1	0	drumstick_12s.jpg	0	0	0	272.030157320705	272.080133451727	0.0499761310220492
87462	50	607	0	0	ginger	673	298	1	stimuli\ginger\ginger_04s.jpg	3	-1	1	0	ginger_04s.jpg	0	0	0	272.130156638039	272.180142277643	0.0499856396036193
87562	50	608	0	0	fishbowl	601	299	1	stimuli\fishbowl\fishbowl_02s.jpg	1	-1	1	0	fishbowl_02s.jpg	0	0	0	272.230162782045	272.280145008312	0.0499822262663656
87662	50	609	0	0	camel	245	300	1	stimuli\camel\camel_05s.jpg	4	-1	1	0	camel_05s.jpg	0	0	0	272.330165268906	272.380143838025	0.0499785691190482
87762	50	610	0	0	soda_fountain	1491	301	1	stimuli\soda_fountain\soda_fountain_03s.jpg	2	-1	1	0	soda_fountain_03s.jpg	0	0	0	272.430170193862	272.480152420128	0.0499822262663656
87862	50	611	0	0	satellite	1360	302	1	stimuli\satellite\satellite_04s.jpg	3	-1	1	0	satellite_04s.jpg	0	0	0	272.530170974054	272.580146617456	0.0499756434019218
87962	50	612	0	0	cork	409	303	1	stimuli\cork\cork_02s.jpg	1	-1	1	0	cork_02s.jpg	0	0	0	272.630171022816	272.680155443371	0.0499844205551199
88062	50	613	0	0	log	943	304	1	stimuli\log\log_02s.jpg	1	-1	1	0	log_02s.jpg	0	0	0	272.730177898253	272.780158661661	0.0499807634078024
88162	50	614	0	0	gas_mask	660	305	1	stimuli\gas_mask\gas_mask_08s.jpg	7	-1	1	0	gas_mask_08s.jpg	0	0	0	272.830177459395	272.880160417089	0.0499829576947377
88262	50	615	0	0	batter	96	306	1	stimuli\batter\batter_02s.jpg	1	-1	1	0	batter_02s.jpg	0	0	0	272.930184334831	272.980165585857	0.0499812510261108
88362	50	616	0	0	fruitcake	646	307	1	stimuli\fruitcake\fruitcake_11s.jpg	10	-1	1	0	fruitcake_11s.jpg	0	0	0	273.030207301714	273.080162708902	0.0499554071884631
88462	50	617	0	0	ketchup	867	308	1	stimuli\ketchup\ketchup_04s.jpg	3	-1	1	0	ketchup_04s.jpg	0	0	0	273.130184919974	273.180171778627	0.0499868586539378
102613	50	618	0	0	crowbar	447	0	2	stimuli\crowbar\crowbar_01b.jpg	0	-1	2	0	crowbar_01b.jpg	0	0	0	287.280587035462	287.330564873153	0.0499778376906761
102712	50	619	0	0	rearview_mirror	1293	1	2	stimuli\rearview_mirror\rearview_mirror_03s.jpg	2	-1	2	0	rearview_mirror_03s.jpg	0	0	0	287.380582695649	287.430564190485	0.0499814948361745
102812	50	620	0	0	bongo	162	2	2	stimuli\bongo\bongo_04s.jpg	3	-1	2	0	bongo_04s.jpg	0	0	0	287.480587620606	287.530571553541	0.0499839329349925
102913	50	621	0	0	ferret	578	3	2	stimuli\ferret\ferret_02s.jpg	1	-1	2	0	ferret_02s.jpg	0	0	0	287.580592301754	287.6305740404	0.0499817386462382
103013	50	622	0	0	record	1295	4	2	stimuli\record\record_03s.jpg	2	-1	2	0	record_03s.jpg	0	0	0	287.680591131468	287.730569700587	0.0499785691190482
103113	50	623	0	0	sandcastle	1355	5	2	stimuli\sandcastle\sandcastle_11s.jpg	10	-1	2	0	sandcastle_11s.jpg	0	0	0	287.780595812616	287.830573406496	0.0499775938806124
103213	50	624	0	0	bean	102	6	2	stimuli\bean\bean_09s.jpg	8	-1	2	0	bean_09s.jpg	0	0	0	287.880601956622	287.930579306692	0.0499773500705487
103313	50	625	0	0	breadstick	196	7	2	stimuli\breadstick\breadstick_12s.jpg	11	-1	2	0	breadstick_12s.jpg	0	0	0	287.980603712052	288.030580330695	0.0499766186421766
103413	50	626	0	0	moose	1018	8	2	stimuli\moose\moose_06s.jpg	5	-1	2	0	moose_06s.jpg	0	0	0	288.080603273194	288.13058818137	0.0499849081752473
103513	50	627	0	0	nightstand	1059	9	2	stimuli\nightstand\nightstand_03s.jpg	2	-1	2	0	nightstand_03s.jpg	0	0	0	288.180605272435	288.230779620817	0.0501743483819155
103613	50	628	0	0	cookie	400	10	2	stimuli\cookie\cookie_04s.jpg	3	-1	2	0	cookie_04s.jpg	0	0	0	288.280607515486	288.330589497942	0.0499819824563019
103713	50	629	0	0	gearshift	668	11	2	stimuli\gearshift\gearshift_11n.jpg	10	-1	2	0	gearshift_11n.jpg	0	0	0	288.380615366161	288.430599299096	0.0499839329349925
103813	50	630	0	0	coal	367	12	2	stimuli\coal\coal_08s.jpg	7	-1	2	0	coal_08s.jpg	0	0	0	288.480613220634	288.530592764993	0.049979544359303
103913	50	631	0	0	horse	798	13	2	stimuli\horse\horse_02s.jpg	1	-1	2	0	horse_02s.jpg	0	0	0	288.580615707495	288.630597446141	0.0499817386462382
104013	50	632	0	0	corkboard	410	14	2	stimuli\corkboard\corkboard_10s.jpg	9	-1	2	0	corkboard_10s.jpg	0	0	0	288.680621363881	288.730597982523	0.0499766186421766
104113	50	633	0	0	blowtorch	148	15	2	stimuli\blowtorch\blowtorch_01b.jpg	0	-1	2	0	blowtorch_01b.jpg	0	0	0	288.780618730736	288.830599494144	0.0499807634078024
104213	50	634	0	0	burner	224	16	2	stimuli\burner\burner_06s.jpg	5	-1	2	0	burner_06s.jpg	0	0	0	288.880629994748	288.930610026726	0.0499800319776114
104313	50	635	0	0	face	569	17	2	stimuli\face\face_11s.jpg	10	-1	2	0	face_11s.jpg	0	0	0	288.980634432086	289.030610319298	0.0499758872119855
104413	50	636	0	0	harness	754	18	2	stimuli\harness\harness_12s.jpg	11	-1	2	0	harness_12s.jpg	0	0	0	289.080628629414	289.130608661391	0.0499800319776114
104513	50	637	0	0	puddle	1247	19	2	stimuli\puddle\puddle_08s.jpg	7	-1	2	1	puddle_08s.jpg	0	0	0	289.180637455327	289.230612854921	0.0499753995936771
104613	50	638	0	0	rain_gauge	1278	20	2	stimuli\rain_gauge\rain_gauge_07s.jpg	6	-1	2	0	rain_gauge_07s.jpg	0	0	0	289.280634578372	289.330614366541	0.0499797881693667
104713	50	639	0	0	slot_machine	1470	21	2	stimuli\slot_machine\slot_machine_06s.jpg	5	-1	2	0	slot_machine_06s.jpg	0	0	0	289.380644135716	289.430627581032	0.0499834453166841
104813	50	640	0	0	cassette	283	22	2	stimuli\cassette\cassette_06s.jpg	5	-1	2	0	cassette_06s.jpg	0	0	0	289.480646134956	289.530623485027	0.0499773500705487
104913	50	641	0	0	tool	1676	23	2	stimuli\tool\tool_08s.jpg	7	-1	2	0	tool_08s.jpg	0	0	0	289.580643745621	289.630629141415	0.0499853957935557
105013	50	642	0	0	plunger	1204	24	2	stimuli\plunger\plunger_11s.jpg	10	-1	2	0	plunger_11s.jpg	0	0	0	289.680679146803	289.73062602065	0.0499468738471478
105113	50	643	0	0	alligator	12	25	2	stimuli\alligator\alligator_07s.jpg	6	-1	2	0	alligator_07s.jpg	0	0	0	289.780646037432	289.830628263699	0.0499822262663656
105213	50	644	0	0	scooter	1382	26	2	stimuli\scooter\scooter_05s.jpg	4	-1	2	0	scooter_05s.jpg	0	0	0	289.880646330004	289.930634895325	0.0499885653207457
105313	50	645	0	0	mint	1004	27	2	stimuli\mint\mint_06s.jpg	5	-1	2	0	mint_06s.jpg	0	0	0	289.980650279724	290.030628361223	0.0499780814989208
105413	50	646	0	0	bracket	189	28	2	stimuli\bracket\bracket_11s.jpg	10	-1	2	0	bracket_11s.jpg	0	0	0	290.080650816104	290.130637674756	0.0499868586521188
105513	50	647	0	0	spacesuit	1502	29	2	stimuli\spacesuit\spacesuit_02s.jpg	1	-1	2	0	spacesuit_02s.jpg	0	0	0	290.180656228682	290.230634066373	0.0499778376906761
105613	50	648	0	0	quilt	1264	30	2	stimuli\quilt\quilt_06s.jpg	5	-1	2	0	quilt_06s.jpg	0	0	0	290.280656765064	290.330640210379	0.0499834453148651
105713	50	649	0	0	hookah	795	31	2	stimuli\hookah\hookah_11s.jpg	10	-1	2	0	hookah_11s.jpg	0	0	0	290.380664859549	290.430641234379	0.0499763748302939
105813	50	650	0	0	gurney	728	32	2	stimuli\gurney\gurney_03s.jpg	2	-1	2	0	gurney_03s.jpg	0	0	0	290.480661982592	290.530673466033	0.050011483441267
105913	50	651	0	0	pulpit	1251	33	2	stimuli\pulpit\pulpit_03s.jpg	2	-1	2	0	pulpit_03s.jpg	0	0	0	290.580665200881	290.630651571915	0.0499863710338104
106013	50	652	0	0	syringe	1604	34	2	stimuli\syringe\syringe_10s.jpg	9	-1	2	0	syringe_10s.jpg	0	0	0	290.680667443932	290.730649426388	0.0499819824563019
106113	50	653	0	0	bottle	170	35	2	stimuli\bottle\bottle_12s.jpg	11	-1	2	0	bottle_12s.jpg	0	0	0	290.780668711743	290.830648499912	0.0499797881693667
106213	50	654	0	0	streetlight	1571	36	2	stimuli\streetlight\streetlight_10s.jpg	9	-1	2	0	streetlight_10s.jpg	0	0	0	290.880679244327	290.930656594397	0.0499773500705487
106313	50	655	0	0	basket	82	37	2	stimuli\basket\basket_08s.jpg	7	-1	2	0	basket_08s.jpg	0	0	0	290.980682706426	291.030659568876	0.0499768624504213
106413	50	656	0	0	parking_meter	1120	38	2	stimuli\parking_meter\parking_meter_01b.jpg	0	-1	2	0	parking_meter_01b.jpg	0	0	0	291.080686656143	291.130667907171	0.0499812510279298
106513	50	657	0	0	mousetrap	1029	39	2	stimuli\mousetrap\mousetrap_01b.jpg	0	-1	2	0	mousetrap_01b.jpg	0	0	0	291.180686461095	291.230662104497	0.0499756434019218
106613	50	658	0	0	gyro	730	40	2	stimuli\gyro\gyro_07s.jpg	6	-1	2	0	gyro_07s.jpg	0	0	0	291.280684803189	291.330663859928	0.0499790567391756
