onset	duration	eventnumber	blocksequencenumber	isteststim	object	objectnumber	presentationnumber	sequencenumber	stim	stimnumber	teststimnumber	withinsequencenumber	istarget	stimname	response	rt	correct	time_stimon	time_stimoff	stimdur
65187	50	0	0	0	ginger	673	0	0	stimuli\ginger\ginger_07s.jpg	6	-1	0	0	ginger_07s.jpg	1	0	0	112.585438871523	112.635417367565	0.0499784960411489
65287	50	1	0	0	belt_buckle	119	1	0	stimuli\belt_buckle\belt_buckle_04s.jpg	3	-1	0	0	belt_buckle_04s.jpg	0	0	0	112.685443894006	112.735417513875	0.0499736198689789
65387	50	2	0	0	asparagus	42	2	0	stimuli\asparagus\asparagus_12s.jpg	11	-1	0	0	asparagus_12s.jpg	0	0	0	112.785434044199	112.835416928865	0.0499828846659511
65487	50	3	0	0	television	1641	3	0	stimuli\television\television_01b.jpg	0	-1	0	0	television_01b.jpg	0	0	0	112.885434921831	112.935434385436	0.0499994636047632
65587	50	4	0	0	taillight	1617	4	0	stimuli\taillight\taillight_12s.jpg	11	-1	0	0	taillight_12s.jpg	0	0	0	112.985451891087	113.035436726175	0.049984835088253
65687	50	5	0	0	figurine	582	5	0	stimuli\figurine\figurine_07s.jpg	6	-1	0	0	figurine_07s.jpg	0	0	0	113.085461058188	113.135899622692	0.0504385645035654
65787	50	6	0	0	watering_can	1792	6	0	stimuli\watering_can\watering_can_07s.jpg	6	-1	0	0	watering_can_07s.jpg	0	0	0	113.18544462556	113.235428485321	0.0499838597606868
65887	50	7	0	0	bomb	160	7	0	stimuli\bomb\bomb_09s.jpg	8	-1	0	0	bomb_09s.jpg	0	0	0	113.285450135591	113.335433507804	0.0499833722133189
65987	50	8	0	0	aardvark	0	8	0	stimuli\aardvark\aardvark_02s.jpg	1	-1	0	0	aardvark_02s.jpg	0	0	0	113.38545198855	113.435433166567	0.0499811780173331
66087	50	9	0	0	mousetrap	1029	9	0	stimuli\mousetrap\mousetrap_06n.jpg	5	-1	0	0	mousetrap_06n.jpg	0	0	0	113.48545749858	113.535436969949	0.0499794713687152
66187	50	10	0	0	raspberry	1284	10	0	stimuli\raspberry\raspberry_04s.jpg	3	-1	0	0	raspberry_04s.jpg	0	0	0	113.585454475367	113.635462228674	0.0500077533069998
66287	50	11	0	0	clothes	361	11	0	stimuli\clothes\clothes_02s.jpg	1	-1	0	0	clothes_02s.jpg	0	0	0	113.685477539897	113.735455304384	0.0499777644872665
66387	50	12	0	0	doorbell	507	12	0	stimuli\doorbell\doorbell_03s.jpg	2	-1	0	0	doorbell_03s.jpg	0	0	0	113.785468421411	113.835459595313	0.0499911739025265
66487	50	13	0	0	eggshell	551	13	0	stimuli\eggshell\eggshell_07s.jpg	6	-1	0	1	eggshell_07s.jpg	0	0	0	113.885482952464	113.935461448273	0.0499784958083183
66587	50	14	0	0	sombrero	1495	14	0	stimuli\sombrero\sombrero_03s.jpg	2	-1	0	0	sombrero_03s.jpg	0	0	0	113.985482854769	114.035486219451	0.0500033646821976
66687	50	15	0	0	router	1336	15	0	stimuli\router\router_08s.jpg	7	-1	0	0	router_08s.jpg	0	0	0	114.085490559228	114.135469055269	0.0499784960411489
66787	50	16	0	0	lab_coat	885	16	0	stimuli\lab_coat\lab_coat_07s.jpg	6	-1	0	0	lab_coat_07s.jpg	0	0	0	114.18548851111	114.235470664455	0.0499821533448994
66887	50	17	0	0	handcuff	746	17	0	stimuli\handcuff\handcuff_01b.jpg	0	-1	0	0	handcuff_01b.jpg	0	0	0	114.285489876522	114.335473980289	0.0499841037672013
66987	50	18	0	0	penlight	1147	18	0	stimuli\penlight\penlight_01b.jpg	0	-1	0	0	penlight_01b.jpg	0	0	0	114.385492704809	114.435474126367	0.0499814215581864
67087	50	19	0	0	eggnog	549	19	0	stimuli\eggnog\eggnog_02s.jpg	1	-1	0	0	eggnog_02s.jpg	0	0	0	114.485498214839	114.53547671088	0.0499784960411489
67187	50	20	0	0	papaya	1111	20	0	stimuli\papaya\papaya_10n.jpg	9	-1	0	0	papaya_10n.jpg	1	0.692191807786003	1	114.585500555346	114.635483683785	0.049983128439635
67287	50	21	0	0	bolt	159	21	0	stimuli\bolt\bolt_02s.jpg	1	-1	0	0	bolt_02s.jpg	0	0	0	114.685504114954	114.735483830096	0.0499797151423991
67387	50	22	0	0	pincushion	1179	22	0	stimuli\pincushion\pincushion_08s.jpg	7	-1	0	0	pincushion_08s.jpg	0	0	0	114.785501823295	114.835486902157	0.0499850788619369
67487	50	23	0	0	jack	835	23	0	stimuli\jack\jack_01b.jpg	0	-1	0	0	jack_01b.jpg	0	0	0	114.885530739091	114.935513867298	0.0499831282068044
67587	50	24	0	0	toy	1694	24	0	stimuli\toy\toy_11s.jpg	10	-1	0	0	toy_11s.jpg	0	0	0	114.985531860497	115.03550938121	0.0499775207135826
67687	50	25	0	0	minivan	1003	25	0	stimuli\minivan\minivan_07s.jpg	6	-1	0	0	minivan_07s.jpg	0	0	0	115.085517622065	115.135513428599	0.0499958065338433
67787	50	26	0	0	horse	798	26	0	stimuli\horse\horse_08s.jpg	7	-1	0	0	horse_08s.jpg	0	0	0	115.185533859767	115.235496995738	0.0499631359707564
67887	50	27	0	0	grate	707	27	0	stimuli\grate\grate_07s.jpg	6	-1	0	0	grate_07s.jpg	0	0	0	115.285516208038	115.335500555346	0.0499843473080546
67987	50	28	0	0	step_stool	1548	28	0	stimuli\step_stool\step_stool_08s.jpg	7	-1	0	0	step_stool_08s.jpg	0	0	0	115.385519036092	115.435501676984	0.0499826408922672
68087	50	29	0	0	thorn	1650	29	0	stimuli\thorn\thorn_12s.jpg	11	-1	0	0	thorn_12s.jpg	0	0	0	115.485519182403	115.535498165991	0.0499789835885167
68187	50	30	0	0	hula_hoop	810	30	0	stimuli\hula_hoop\hula_hoop_05s.jpg	4	-1	0	0	hula_hoop_05s.jpg	0	0	0	115.585519328713	115.635503432248	0.0499841035343707
68287	50	31	0	0	windshield_wiper	1821	31	0	stimuli\windshield_wiper\windshield_wiper_01b.jpg	0	-1	0	0	windshield_wiper_01b.jpg	0	0	0	115.685523132095	115.735504066339	0.0499809342436492
68387	50	32	0	0	doily	498	32	0	stimuli\doily\doily_09s.jpg	8	-1	0	0	doily_09s.jpg	0	0	0	115.785523034632	115.835506894393	0.0499838597606868
68487	50	33	0	0	hot-water_bottle	802	33	0	stimuli\hot-water_bottle\hot-water_bottle_02s.jpg	1	-1	0	0	hot-water_bottle_02s.jpg	0	0	0	115.885530982865	115.935509235132	0.049978252267465
68587	50	34	0	0	cigar	343	34	0	stimuli\cigar\cigar_11s.jpg	10	-1	0	0	cigar_11s.jpg	0	0	0	115.9855284472	116.03551523271	0.0499867855105549
68687	50	35	0	0	candelabra	252	35	0	stimuli\candelabra\candelabra_11s.jpg	10	-1	0	0	candelabra_11s.jpg	0	0	0	116.085532250581	116.135512209497	0.049979958916083
68787	50	36	0	0	navel	1052	36	0	stimuli\navel\navel_09s.jpg	8	-1	0	0	navel_09s.jpg	0	0	0	116.185536053963	116.235521620605	0.0499855666421354
68887	50	37	0	0	moose	1018	37	0	stimuli\moose\moose_02s.jpg	1	-1	0	0	moose_02s.jpg	0	0	0	116.285539857578	116.33552201069	0.0499821531120688
68987	50	38	0	0	showerhead	1436	38	0	stimuli\showerhead\showerhead_06s.jpg	5	-1	0	0	showerhead_06s.jpg	0	0	0	116.385544148507	116.435546781635	0.0500026331283152
69087	50	39	0	0	strainer	1566	39	0	stimuli\strainer\strainer_06s.jpg	5	-1	0	0	strainer_06s.jpg	0	0	0	116.485571357654	116.535529373679	0.0499580160249025
69187	50	40	0	0	cornucopia	416	40	0	stimuli\cornucopia\cornucopia_12s.jpg	11	-1	0	0	cornucopia_12s.jpg	0	0	0	116.585548829753	116.635541222757	0.0499923930037767
69287	50	41	0	0	oilcan	1073	41	0	stimuli\oilcan\oilcan_12s.jpg	11	-1	0	0	oilcan_12s.jpg	0	0	0	116.685568724526	116.735536736669	0.0499680121429265
69387	50	42	0	0	fishhook	602	42	0	stimuli\fishhook\fishhook_04s.jpg	3	-1	0	0	fishhook_04s.jpg	0	0	0	116.78554473375	116.83552201069	0.0499772769398987
69487	50	43	0	0	coffee	377	43	0	stimuli\coffee\coffee_02s.jpg	1	-1	0	0	coffee_02s.jpg	0	0	0	116.885547074256	116.935528739821	0.049981665564701
69587	50	44	0	0	mistletoe	1007	44	0	stimuli\mistletoe\mistletoe_08s.jpg	7	-1	0	0	mistletoe_08s.jpg	0	0	0	116.98554331949	117.035525716608	0.0499823971185833
69687	50	45	0	0	silicone	1444	45	0	stimuli\silicone\silicone_01b.jpg	0	-1	0	0	silicone_01b.jpg	0	0	0	117.085549073527	117.135531226639	0.0499821531120688
69787	50	46	0	0	polisher	1215	46	0	stimuli\polisher\polisher_10s.jpg	9	-1	0	0	polisher_10s.jpg	0	0	0	117.185555071104	117.235531372949	0.0499763018451631
69887	50	47	0	0	gauze	664	47	0	stimuli\gauze\gauze_05s.jpg	4	-1	0	0	gauze_05s.jpg	0	0	0	117.285554973641	117.335536151659	0.0499811780173331
69987	50	48	0	0	sled	1460	48	0	stimuli\sled\sled_01b.jpg	0	-1	0	0	sled_01b.jpg	0	0	0	117.385561702773	117.435544099659	0.0499823968857527
70087	50	49	0	0	pastry	1124	49	0	stimuli\pastry\pastry_09s.jpg	8	-1	0	0	pastry_09s.jpg	0	0	0	117.485562824411	117.535543758422	0.0499809340108186
70187	50	50	0	0	cigarette_butt	345	50	0	stimuli\cigarette_butt\cigarette_butt_01b.jpg	0	-1	0	0	cigarette_butt_01b.jpg	0	0	0	117.585562970722	117.635547561804	0.0499845910817385
70287	50	51	0	0	air_pump	6	51	0	stimuli\air_pump\air_pump_10s.jpg	9	-1	0	0	air_pump_10s.jpg	0	0	0	117.685569212073	117.735548439668	0.0499792275950313
70387	50	52	0	0	polo_shirt	1216	52	0	stimuli\polo_shirt\polo_shirt_06s.jpg	5	-1	0	0	polo_shirt_06s.jpg	0	0	0	117.785562775563	117.835548829753	0.0499860541895032
70487	50	53	0	0	honeycomb	789	53	0	stimuli\honeycomb\honeycomb_04s.jpg	3	-1	0	0	honeycomb_04s.jpg	0	0	0	117.885574868415	117.935554339783	0.0499794713687152
70587	50	54	0	0	mold1	1012	54	0	stimuli\mold1\mold1_01b.jpg	0	-1	0	0	mold1_01b.jpg	0	0	0	117.985572820529	118.035557899391	0.0499850788619369
70687	50	55	0	0	cassette	283	55	0	stimuli\cassette\cassette_12s.jpg	11	-1	0	0	cassette_12s.jpg	0	0	0	118.085579793435	118.135559752351	0.049979958916083
70787	50	56	0	0	stew	1551	56	0	stimuli\stew\stew_12s.jpg	11	-1	0	0	stew_12s.jpg	0	0	0	118.185581158847	118.23556160531	0.0499804464634508
70887	50	57	0	0	crouton	445	57	0	stimuli\crouton\crouton_01b.jpg	0	-1	0	0	crouton_01b.jpg	0	0	0	118.285579110729	118.335559557192	0.0499804464634508
70987	50	58	0	0	juicer1	855	58	0	stimuli\juicer1\juicer1_06s.jpg	5	-1	0	0	juicer1_06s.jpg	0	0	0	118.385619973298	118.435594324488	0.0499743511900306
71087	50	59	0	0	hay	761	59	0	stimuli\hay\hay_07s.jpg	6	-1	0	0	hay_07s.jpg	0	0	0	118.485600858694	118.535570577485	0.0499697187915444
71187	50	60	0	0	test_tube	1645	60	0	stimuli\test_tube\test_tube_05s.jpg	4	-1	0	0	test_tube_05s.jpg	0	0	0	118.585588082904	118.635568529367	0.0499804464634508
71287	50	61	0	0	cow	426	61	0	stimuli\cow\cow_01b.jpg	0	-1	0	0	cow_01b.jpg	0	0	0	118.685589448316	118.735572089208	0.0499826408922672
71387	50	62	0	0	wallpaper	1777	62	0	stimuli\wallpaper\wallpaper_05s.jpg	4	-1	0	0	wallpaper_05s.jpg	0	0	0	118.785589350853	118.835572723066	0.0499833722133189
71487	50	63	0	0	webcam	1799	63	0	stimuli\webcam\webcam_03s.jpg	2	-1	0	0	webcam_03s.jpg	0	0	0	118.885596079985	118.935577257769	0.0499811777845025
71587	50	64	0	0	sock	1489	64	0	stimuli\sock\sock_01b.jpg	0	-1	0	0	sock_01b.jpg	0	0	0	118.985593544319	119.035576428985	0.0499828846659511
71687	50	65	0	0	starfish	1541	65	0	stimuli\starfish\starfish_01b.jpg	0	-1	0	0	starfish_01b.jpg	0	0	0	119.085599298123	119.135588521836	0.0499892237130553
71787	50	66	0	0	dryer	524	66	0	stimuli\dryer\dryer_05s.jpg	4	-1	0	0	dryer_05s.jpg	0	0	0	119.185607002582	119.235589887248	0.0499828846659511
71887	50	67	0	0	pulpit	1251	67	0	stimuli\pulpit\pulpit_03s.jpg	2	-1	0	0	pulpit_03s.jpg	0	0	0	119.285609587096	119.335583938286	0.0499743511900306
71987	50	68	0	0	bark	74	68	0	stimuli\bark\bark_12s.jpg	11	-1	0	0	bark_12s.jpg	0	0	0	119.385606076103	119.435590911191	0.049984835088253
72087	50	69	0	0	dial	483	69	0	stimuli\dial\dial_05s.jpg	4	-1	0	0	dial_05s.jpg	0	0	0	119.485612317687	119.535594227025	0.0499819093383849
72187	50	70	0	0	ramp	1283	70	0	stimuli\ramp\ramp_11s.jpg	10	-1	0	0	ramp_11s.jpg	0	0	0	119.585610269569	119.635594373336	0.0499841037672013
72287	50	71	0	0	mulch	1038	71	0	stimuli\mulch\mulch_08s.jpg	7	-1	0	0	mulch_08s.jpg	0	0	0	119.685629920801	119.735610367265	0.0499804464634508
72387	50	72	0	0	loom	946	72	0	stimuli\loom\loom_08s.jpg	7	-1	0	0	loom_08s.jpg	0	0	0	119.785626409808	119.835610269569	0.0499838597606868
72487	50	73	0	0	rooster	1330	73	0	stimuli\rooster\rooster_02s.jpg	1	-1	0	0	rooster_02s.jpg	0	0	0	119.885631919838	119.935612122528	0.0499802026897669
72587	50	74	0	0	mullet	1039	74	0	stimuli\mullet\mullet_11s.jpg	10	-1	0	0	mullet_11s.jpg	0	0	0	119.985634991899	120.035615194589	0.0499802026897669
72687	50	75	0	0	flagpole	606	75	0	stimuli\flagpole\flagpole_06s.jpg	5	-1	0	0	flagpole_06s.jpg	0	0	0	120.085636601085	120.135624361923	0.0499877608381212
72787	50	76	0	0	lightbulb	927	76	0	stimuli\lightbulb\lightbulb_02s.jpg	1	-1	0	0	lightbulb_02s.jpg	0	0	0	120.185641867341	120.235622801352	0.0499809340108186
72887	50	77	0	0	water_filter	1789	77	0	stimuli\water_filter\water_filter_07s.jpg	6	-1	0	0	water_filter_07s.jpg	0	0	0	120.285645670723	120.335628555389	0.0499828846659511
72987	50	78	0	0	bouquet	173	78	0	stimuli\bouquet\bouquet_07s.jpg	6	-1	0	0	bouquet_07s.jpg	0	0	0	120.385649230331	120.43563113967	0.0499819093383849
73087	50	79	0	0	turf	1732	79	0	stimuli\turf\turf_04s.jpg	3	-1	0	0	turf_04s.jpg	0	0	0	120.485652546166	120.535634455504	0.0499819093383849
73187	50	80	0	0	desk	480	80	0	stimuli\desk\desk_12s.jpg	11	-1	0	0	desk_12s.jpg	0	0	0	120.585650985828	120.635635089362	0.0499841035343707
73287	50	81	0	0	flour	618	81	0	stimuli\flour\flour_08s.jpg	7	-1	0	0	flour_08s.jpg	0	0	0	120.685678438749	120.735658397665	0.049979958916083
73387	50	82	0	0	whiteboard	1813	82	0	stimuli\whiteboard\whiteboard_06s.jpg	5	-1	0	0	whiteboard_06s.jpg	0	0	0	120.785683217458	120.835639283061	0.0499560656026006
73487	50	83	0	0	phone_booth	1162	83	0	stimuli\phone_booth\phone_booth_04s.jpg	3	-1	0	0	phone_booth_04s.jpg	0	0	0	120.885661420878	120.93564357399	0.0499821531120688
73587	50	84	0	0	windowsill	1819	84	0	stimuli\windowsill\windowsill_08s.jpg	7	-1	0	0	windowsill_08s.jpg	0	0	0	120.985664249165	121.035648352699	0.0499841035343707
73687	50	85	0	0	clothespin	363	85	0	stimuli\clothespin\clothespin_11s.jpg	10	-1	0	0	clothespin_11s.jpg	0	0	0	121.085666833445	121.135647767456	0.0499809340108186
73787	50	86	0	0	birdcage	130	86	0	stimuli\birdcage\birdcage_10s.jpg	9	-1	0	0	birdcage_10s.jpg	0	0	0	121.185663322685	121.23564742622	0.0499841035343707
73887	50	87	0	0	snowshoe	1485	87	0	stimuli\snowshoe\snowshoe_06s.jpg	5	-1	0	0	snowshoe_06s.jpg	0	0	0	121.285671026912	121.335650254507	0.0499792275950313
73987	50	88	0	0	dishrag	490	88	0	stimuli\dishrag\dishrag_02s.jpg	1	-1	0	0	dishrag_02s.jpg	0	0	0	121.385668491246	121.435651619686	0.049983128439635
74087	50	89	0	0	headlight	765	89	0	stimuli\headlight\headlight_05s.jpg	4	-1	0	0	headlight_05s.jpg	0	0	0	121.485678146128	121.535654204199	0.0499760580714792
74187	50	90	0	0	ladybug	888	90	0	stimuli\ladybug\ladybug_01b.jpg	0	-1	0	0	ladybug_01b.jpg	0	0	0	121.58567414782	121.635657763807	0.0499836159870028
74287	50	91	0	0	sleeping_bag	1462	91	0	stimuli\sleeping_bag\sleeping_bag_07s.jpg	6	-1	0	0	sleeping_bag_07s.jpg	0	0	0	121.68567965785	121.735661810962	0.0499821531120688
74387	50	92	0	0	paperclip	1116	92	0	stimuli\paperclip\paperclip_01s.jpg	0	-1	0	0	paperclip_01s.jpg	0	0	0	121.785681754583	121.8356617135	0.049979958916083
74487	50	93	0	0	apron	33	93	0	stimuli\apron\apron_12s.jpg	11	-1	0	0	apron_12s.jpg	0	0	0	121.88568994659	121.935667954851	0.0499780082609504
74587	50	94	0	0	raincoat	1279	94	0	stimuli\raincoat\raincoat_12s.jpg	11	-1	0	0	raincoat_12s.jpg	0	0	0	121.985687654698	122.035671758465	0.0499841037672013
74687	50	95	0	0	hinge	779	95	0	stimuli\hinge\hinge_09s.jpg	8	-1	0	0	hinge_09s.jpg	0	0	0	122.085693164961	122.135673123645	0.0499799586832523
74787	50	96	0	0	green_beans	712	96	0	stimuli\green_beans\green_beans_03s.jpg	2	-1	0	0	green_beans_03s.jpg	0	0	0	122.185695261694	122.235675951932	0.0499806902371347
74887	50	97	0	0	milk	1001	97	0	stimuli\milk\milk_04s.jpg	3	-1	0	0	milk_04s.jpg	0	0	0	122.285702722147	122.335679023992	0.0499763018451631
74987	50	98	0	0	cinnamon	348	98	0	stimuli\cinnamon\cinnamon_01b.jpg	0	-1	0	0	cinnamon_01b.jpg	0	0	0	122.385699211387	122.435681120725	0.0499819093383849
75087	50	99	0	0	painting	1098	99	0	stimuli\painting\painting_02s.jpg	1	-1	0	0	painting_02s.jpg	0	0	0	122.485700089019	122.535683461232	0.0499833722133189
75187	50	100	0	0	perfume	1154	100	0	stimuli\perfume\perfume_06s.jpg	5	-1	0	0	perfume_06s.jpg	0	0	0	122.585698772455	122.63568994659	0.0499911741353571
75287	50	101	0	0	soda_fountain	1491	101	0	stimuli\soda_fountain\soda_fountain_04s.jpg	3	-1	0	0	soda_fountain_04s.jpg	0	0	0	122.685710377758	122.735690824222	0.0499804464634508
75387	50	102	0	0	dresser	519	102	0	stimuli\dresser\dresser_04s.jpg	3	-1	0	0	dresser_04s.jpg	0	0	0	122.785707842093	122.835692677181	0.049984835088253
75487	50	103	0	0	bow1	174	103	0	stimuli\bow1\bow1_01b.jpg	0	-1	0	0	bow1_01b.jpg	0	0	0	122.885714327451	122.935696480563	0.0499821531120688
75587	50	104	0	0	brooch	202	104	0	stimuli\brooch\brooch_03s.jpg	2	-1	0	0	brooch_03s.jpg	0	0	0	122.985714229988	123.035701503046	0.0499872730579227
75687	50	105	0	0	roof_rack	1329	105	0	stimuli\roof_rack\roof_rack_01b.jpg	0	-1	0	0	roof_rack_01b.jpg	0	0	0	123.085720715346	123.135698723607	0.0499780082609504
75787	50	106	0	0	lime	930	106	0	stimuli\lime\lime_09s.jpg	8	-1	0	0	lime_09s.jpg	0	0	0	123.18572110543	123.235700820573	0.0499797151423991
75887	50	107	0	0	cracker	429	107	0	stimuli\cracker\cracker_05s.jpg	4	-1	0	0	cracker_05s.jpg	0	0	0	123.285722714616	123.335725591518	0.0500028769019991
75987	50	108	0	0	cufflink	458	108	0	stimuli\cufflink\cufflink_07s.jpg	6	-1	0	0	cufflink_07s.jpg	0	0	0	123.385725055123	123.435706964461	0.0499819093383849
76087	50	109	0	0	sheath	1413	109	0	stimuli\sheath\sheath_05s.jpg	4	-1	0	0	sheath_05s.jpg	0	0	0	123.485729833832	123.535709792748	0.049979958916083
76187	50	110	0	0	snowmobile	1483	110	0	stimuli\snowmobile\snowmobile_05s.jpg	4	-1	0	0	snowmobile_05s.jpg	0	0	0	123.585732174339	123.635709451279	0.0499772769398987
76287	50	111	0	0	gun	727	111	0	stimuli\gun\gun_09s.jpg	8	-1	0	0	gun_09s.jpg	0	0	0	123.685728419805	123.735711304238	0.0499828844331205
76387	50	112	0	0	chalk	302	112	0	stimuli\chalk\chalk_03s.jpg	2	-1	0	0	chalk_03s.jpg	0	0	0	123.785729053663	123.835716326721	0.0499872730579227
76487	50	113	0	0	sundial	1583	113	0	stimuli\sundial\sundial_11s.jpg	10	-1	0	0	sundial_11s.jpg	0	0	0	123.885736514116	123.93571817968	0.049981665564701
76587	50	114	0	0	catfish	287	114	0	stimuli\catfish\catfish_07s.jpg	6	-1	0	0	catfish_07s.jpg	0	0	0	123.98573446623	124.03571759467	0.049983128439635
76687	50	115	0	0	tape	1622	115	0	stimuli\tape\tape_04s.jpg	3	-1	0	0	tape_04s.jpg	0	0	0	124.085740220034	124.135722617153	0.0499823971185833
76787	50	116	0	0	cobra	371	116	0	stimuli\cobra\cobra_04s.jpg	3	-1	0	0	cobra_04s.jpg	0	0	0	124.185795223573	124.235752020497	0.0499567969236523
76887	50	117	0	0	panther	1106	117	0	stimuli\panther\panther_06s.jpg	5	-1	0	0	panther_06s.jpg	0	0	0	124.285768550821	124.335736806737	0.0499682559166104
76987	50	118	0	0	rifle	1311	118	0	stimuli\rifle\rifle_07n.jpg	6	-1	0	0	rifle_07n.jpg	0	0	0	124.385753580835	124.43573890347	0.0499853226356208
77087	50	119	0	0	bow2	175	119	0	stimuli\bow2\bow2_08s.jpg	7	-1	0	0	bow2_08s.jpg	0	0	0	124.485754214693	124.535735880258	0.049981665564701
77187	50	120	0	0	map	970	120	0	stimuli\map\map_12s.jpg	11	-1	0	0	map_12s.jpg	0	0	0	124.585743389558	124.635730906622	0.0499875170644373
77287	50	121	0	0	tapestry	1625	121	0	stimuli\tapestry\tapestry_04s.jpg	3	-1	0	0	tapestry_04s.jpg	0	0	0	124.685748412041	124.735725932755	0.0499775207135826
77387	50	122	0	0	eyedropper	566	122	0	stimuli\eyedropper\eyedropper_03s.jpg	2	-1	0	0	eyedropper_03s.jpg	0	0	0	124.785745145055	124.835759237176	0.0500140921212733
77487	50	123	0	0	faucet	573	123	0	stimuli\faucet\faucet_03s.jpg	2	-1	0	0	faucet_03s.jpg	0	0	0	124.885783081874	124.935770111158	0.0499870292842388
77587	50	124	0	0	fishnet_stockings	604	124	0	stimuli\fishnet_stockings\fishnet_stockings_08s.jpg	7	-1	0	0	fishnet_stockings_08s.jpg	0	0	0	124.985764942365	125.035748558352	0.0499836159870028
77687	50	125	0	0	air_mattress	5	125	0	stimuli\air_mattress\air_mattress_04s.jpg	3	-1	0	0	air_mattress_04s.jpg	0	0	0	125.085784105817	125.135747241788	0.0499631359707564
77787	50	126	0	0	turtle	1736	126	0	stimuli\turtle\turtle_11s.jpg	10	-1	0	0	turtle_11s.jpg	0	0	0	125.185767429182	125.235750313848	0.0499828846659511
77887	50	127	0	0	flip_flop	614	127	0	stimuli\flip_flop\flip_flop_04s.jpg	3	-1	0	0	flip_flop_04s.jpg	0	0	0	125.285777327837	125.33575411723	0.0499767893925309
77987	50	128	0	0	sheet	1415	128	0	stimuli\sheet\sheet_01b.jpg	0	-1	0	0	sheet_01b.jpg	0	0	0	125.38577284175	125.435758408159	0.0499855664093047
78087	50	129	0	0	penholder	1146	129	0	stimuli\penholder\penholder_05s.jpg	4	-1	0	0	penholder_05s.jpg	0	0	0	125.485778595787	125.535757335601	0.0499787398148328
78187	50	130	0	0	bib	122	130	0	stimuli\bib\bib_01n.jpg	0	-1	0	0	bib_01n.jpg	0	0	0	125.585790688638	125.635761382757	0.0499706941191107
78287	50	131	0	0	flask	612	131	0	stimuli\flask\flask_06s.jpg	5	-1	0	0	flask_06s.jpg	0	0	0	125.685785958776	125.735764454817	0.0499784960411489
78387	50	132	0	0	bank	69	132	0	stimuli\bank\bank_04s.jpg	3	-1	0	0	bank_04s.jpg	0	0	0	125.78578220401	125.835766307777	0.0499841037672013
78487	50	133	0	0	mop	1019	133	0	stimuli\mop\mop_11s.jpg	10	-1	0	0	mop_11s.jpg	0	0	0	125.885790152242	125.93577084248	0.0499806902371347
78587	50	134	0	0	spaghetti	1503	134	0	stimuli\spaghetti\spaghetti_06s.jpg	5	-1	0	0	spaghetti_06s.jpg	0	0	0	125.985786641482	126.035770013696	0.0499833722133189
78687	50	135	0	0	bonnet	163	135	0	stimuli\bonnet\bonnet_03s.jpg	2	-1	0	0	bonnet_03s.jpg	0	0	0	126.085795808583	126.135774304625	0.0499784960411489
78787	50	136	0	0	headscarf	768	136	0	stimuli\headscarf\headscarf_02s.jpg	1	-1	0	0	headscarf_02s.jpg	0	0	0	126.185790347401	126.23577835178	0.0499880043789744
78887	50	137	0	0	sewing_kit	1406	137	0	stimuli\sewing_kit\sewing_kit_05s.jpg	4	-1	0	0	sewing_kit_05s.jpg	0	0	0	126.28580048983	126.335779229645	0.0499787398148328
78987	50	138	0	0	calculator	240	138	0	stimuli\calculator\calculator_06s.jpg	5	-1	0	0	calculator_06s.jpg	0	0	0	126.385797710391	126.4357832768	0.0499855664093047
79087	50	139	0	0	tulip	1726	139	0	stimuli\tulip\tulip_06s.jpg	5	-1	0	0	tulip_06s.jpg	0	0	0	126.485804683296	126.53578220401	0.0499775207135826
79187	50	140	0	0	jeans	842	140	0	stimuli\jeans\jeans_06s.jpg	5	-1	0	0	jeans_06s.jpg	0	0	0	126.585805804934	126.635786007391	0.0499802024569362
79287	50	141	0	0	headset	769	141	0	stimuli\headset\headset_01b.jpg	0	-1	0	0	headset_01b.jpg	0	0	0	126.685803025495	126.73578420328	0.0499811777845025
79387	50	142	0	0	coffee_table	381	142	0	stimuli\coffee_table\coffee_table_12s.jpg	11	-1	0	0	coffee_table_12s.jpg	0	0	0	126.785804390674	126.835788738215	0.0499843475408852
79487	50	143	0	0	elephant	554	143	0	stimuli\elephant\elephant_04n.jpg	3	-1	0	0	elephant_04n.jpg	0	0	0	126.885811119806	126.935794735793	0.0499836159870028
79587	50	144	0	0	gate	662	144	0	stimuli\gate\gate_04s.jpg	3	-1	0	0	gate_04s.jpg	0	0	0	126.985808584141	127.035792687908	0.0499841037672013
79687	50	145	0	0	tongue	1675	145	0	stimuli\tongue\tongue_09s.jpg	8	-1	0	0	tongue_09s.jpg	0	0	0	127.085815313505	127.135794784641	0.0499794711358845
79787	50	146	0	0	corkboard	410	146	0	stimuli\corkboard\corkboard_04s.jpg	3	-1	0	0	corkboard_04s.jpg	0	0	0	127.185811071191	127.235796150053	0.0499850788619369
79887	50	147	0	0	casserole	282	147	0	stimuli\casserole\casserole_11s.jpg	10	-1	0	0	casserole_11s.jpg	0	0	0	127.285819263197	127.335800197208	0.0499809340108186
79987	50	148	0	0	fern	577	148	0	stimuli\fern\fern_01b.jpg	0	-1	0	0	fern_01b.jpg	0	0	0	127.38582428568	127.435807170114	0.0499828844331205
80087	50	149	0	0	lid	923	149	0	stimuli\lid\lid_10s.jpg	9	-1	0	0	lid_10s.jpg	0	0	0	127.485831258586	127.535810242174	0.0499789835885167
80187	50	150	0	0	knife	879	150	0	stimuli\knife\knife_09s.jpg	8	-1	0	0	knife_09s.jpg	0	0	0	127.58582872292	127.635813558009	0.049984835088253
80287	50	151	0	0	bulletproof_vest	218	151	0	stimuli\bulletproof_vest\bulletproof_vest_03s.jpg	2	-1	0	0	bulletproof_vest_03s.jpg	0	0	0	127.685835695826	127.735815410968	0.0499797151423991
80387	50	152	0	0	rattle	1287	152	0	stimuli\rattle\rattle_03s.jpg	2	-1	0	0	rattle_03s.jpg	0	0	0	127.78583364794	127.835817751475	0.0499841035343707
80487	50	153	0	0	stamp2	1536	153	0	stimuli\stamp2\stamp2_05s.jpg	4	-1	0	0	stamp2_05s.jpg	0	0	0	127.885840377072	127.935821311083	0.0499809340108186
80587	50	154	0	0	cloak	358	154	0	stimuli\cloak\cloak_07s.jpg	6	-1	0	0	cloak_07s.jpg	0	0	0	127.985840035602	128.035821944941	0.0499819093383849
80687	50	155	0	0	butter	228	155	0	stimuli\butter\butter_12s.jpg	11	-1	0	0	butter_12s.jpg	0	0	0	128.085847983835	128.135828430299	0.0499804464634508
80787	50	156	0	0	cane	258	156	0	stimuli\cane\cane_12s.jpg	11	-1	0	0	cane_12s.jpg	0	0	0	128.185839352896	128.23582321289	0.0499838599935174
80887	50	157	0	0	macadamia	951	157	0	stimuli\macadamia\macadamia_05s.jpg	4	-1	0	0	macadamia_05s.jpg	0	0	0	128.285845350707	128.335856273305	0.0500109225977212
80987	50	158	0	0	seaplane	1398	158	0	stimuli\seaplane\seaplane_06s.jpg	5	-1	0	0	seaplane_06s.jpg	0	0	0	128.385877192253	128.435856175842	0.0499789835885167
81087	50	159	0	0	forklift	635	159	0	stimuli\forklift\forklift_06n.jpg	5	-1	0	0	forklift_06n.jpg	0	0	0	128.485859540524	128.535840230761	0.0499806902371347
81187	50	160	0	0	flypaper	622	160	0	stimuli\flypaper\flypaper_03s.jpg	2	-1	0	0	flypaper_03s.jpg	0	0	0	128.585862368578	128.635841352167	0.0499789835885167
81287	50	161	0	0	pasta	1123	161	0	stimuli\pasta\pasta_07s.jpg	6	-1	0	0	pasta_07s.jpg	0	0	0	128.68585788249	128.735844180454	0.0499862979631871
81387	50	162	0	0	license_plate	921	162	0	stimuli\license_plate\license_plate_09s.jpg	8	-1	0	0	license_plate_09s.jpg	0	0	0	128.785862904973	128.835844814312	0.0499819093383849
81487	50	163	0	0	banana_split	65	163	0	stimuli\banana_split\banana_split_01b.jpg	0	-1	0	0	banana_split_01b.jpg	0	0	0	128.88587402273	128.93585129967	0.0499772769398987
81587	50	164	0	0	piggy_bank	1172	164	0	stimuli\piggy_bank\piggy_bank_02s.jpg	1	-1	0	0	piggy_bank_02s.jpg	0	0	0	128.985868805088	129.035851202207	0.0499823971185833
81687	50	165	0	0	clasp	351	165	0	stimuli\clasp\clasp_03s.jpg	2	-1	0	0	clasp_03s.jpg	0	0	0	129.085873827571	129.135879874229	0.0500060466583818
81787	50	166	0	0	holster	786	166	0	stimuli\holster\holster_08s.jpg	7	-1	0	0	holster_08s.jpg	0	0	0	129.185895185452	129.235879288986	0.0499841035343707
81887	50	167	0	0	bongo	162	167	0	stimuli\bongo\bongo_03s.jpg	2	-1	0	0	bongo_03s.jpg	0	0	0	129.285886798287	129.335888700094	0.0500019018072635
81987	50	168	0	0	rosary	1333	168	0	stimuli\rosary\rosary_08s.jpg	7	-1	0	0	rosary_08s.jpg	0	0	0	129.385911081685	129.435882263351	0.0499711816664785
82087	50	169	0	0	bedpost	110	169	0	stimuli\bedpost\bedpost_12s.jpg	11	-1	0	0	bedpost_12s.jpg	0	0	0	129.485904645175	129.535870706895	0.0499660617206246
82187	50	170	0	0	gel	669	170	0	stimuli\gel\gel_11s.jpg	10	-1	0	0	gel_11s.jpg	0	0	0	129.585888212314	129.635865001706	0.0499767893925309
82287	50	171	0	0	dollhouse	500	171	0	stimuli\dollhouse\dollhouse_06s.jpg	5	-1	0	0	dollhouse_06s.jpg	0	0	0	129.685876899632	129.735858565196	0.049981665564701
82387	50	172	0	0	money	1015	172	0	stimuli\money\money_10s.jpg	9	-1	0	0	money_10s.jpg	0	0	0	129.785869731568	129.835857492406	0.0499877608381212
82487	50	173	0	0	dogfood	496	173	0	stimuli\dogfood\dogfood_09s.jpg	8	-1	0	0	dogfood_09s.jpg	0	0	0	129.885914738989	129.935895185452	0.0499804464634508
82587	50	174	0	0	gyro	730	174	0	stimuli\gyro\gyro_06s.jpg	5	-1	0	0	gyro_06s.jpg	0	0	0	129.985893429955	130.03589874506	0.0500053151044995
82687	50	175	0	0	breathalyzer	198	175	0	stimuli\breathalyzer\breathalyzer_06s.jpg	5	-1	0	0	breathalyzer_06s.jpg	0	0	0	130.085922589526	130.135898647364	0.0499760578386486
82787	50	176	0	0	ketchup	867	176	0	stimuli\ketchup\ketchup_09s.jpg	8	-1	0	0	ketchup_09s.jpg	0	0	0	130.18590761954	130.235902206972	0.0499945874325931
82887	50	177	0	0	hammock	742	177	0	stimuli\hammock\hammock_11s.jpg	10	-1	0	0	hammock_11s.jpg	0	0	0	130.285924345022	130.335891869618	0.0499675245955586
82987	50	178	0	0	celery	291	178	0	stimuli\celery\celery_06s.jpg	5	-1	0	0	celery_06s.jpg	0	0	0	130.385935950326	130.435892747249	0.0499567969236523
83087	50	179	0	0	hairspray	738	179	0	stimuli\hairspray\hairspray_02s.jpg	1	-1	0	0	hairspray_02s.jpg	0	0	0	130.48593341466	130.53588996781	0.0499565531499684
83187	50	180	0	0	hail	732	180	0	stimuli\hail\hail_02s.jpg	1	-1	0	0	hail_02s.jpg	0	0	0	130.585914787604	130.635894502746	0.0499797151423991
83287	50	181	0	0	football	629	181	0	stimuli\football\football_06s.jpg	5	-1	0	0	football_06s.jpg	0	0	0	130.68591103307	130.735892942408	0.0499819093383849
83387	50	182	0	0	bush	227	182	0	stimuli\bush\bush_12s.jpg	11	-1	0	0	bush_12s.jpg	0	0	0	130.785912398249	130.835900402861	0.0499880046118051
83487	50	183	0	0	machine_gun	954	183	0	stimuli\machine_gun\machine_gun_01b.jpg	0	-1	0	0	machine_gun_01b.jpg	0	0	0	130.885915714083	130.935897135874	0.0499814217910171
83587	50	184	0	0	radiator	1272	184	0	stimuli\radiator\radiator_04s.jpg	3	-1	0	0	radiator_04s.jpg	0	0	0	130.985914397519	131.035896306857	0.0499819093383849
83687	50	185	0	0	kaleidoscope	861	185	0	stimuli\kaleidoscope\kaleidoscope_11s.jpg	10	-1	0	0	kaleidoscope_11s.jpg	0	0	0	131.08592697815	131.135900598019	0.0499736198689789
83787	50	186	0	0	jug	853	186	0	stimuli\jug\jug_02s.jpg	1	-1	0	0	jug_02s.jpg	0	0	0	131.185921029188	131.23590074433	0.0499797151423991
83887	50	187	0	0	robe	1317	187	0	stimuli\robe\robe_04s.jpg	3	-1	0	0	robe_04s.jpg	0	0	0	131.285919712624	131.335902353283	0.0499826406594366
83987	50	188	0	0	juicer2	856	188	0	stimuli\juicer2\juicer2_01b.jpg	0	-1	0	0	juicer2_01b.jpg	0	0	0	131.385924247559	131.43590761954	0.0499833719804883
84087	50	189	0	0	ice_cream	818	189	0	stimuli\ice_cream\ice_cream_05s.jpg	4	-1	0	0	ice_cream_05s.jpg	0	0	0	131.485928294715	131.535907034529	0.0499787398148328
84187	50	190	0	0	brace	186	190	0	stimuli\brace\brace_12s.jpg	11	-1	0	0	brace_12s.jpg	0	0	0	131.5859299039	131.635917176958	0.0499872730579227
84287	50	191	0	0	chest2	320	191	0	stimuli\chest2\chest2_07s.jpg	6	-1	0	0	chest2_07s.jpg	0	0	0	131.68592005386	131.735922443215	0.0500023893546313
84387	50	192	0	0	nail	1046	192	0	stimuli\nail\nail_11s.jpg	10	-1	0	0	nail_11s.jpg	0	0	0	131.78594970121	131.835926734377	0.0499770331662148
84487	50	193	0	0	origami	1083	193	0	stimuli\origami\origami_02s.jpg	1	-1	0	0	origami_02s.jpg	0	0	0	131.885947896866	131.935925661586	0.0499777647200972
84587	50	194	0	0	puffin	1248	194	0	stimuli\puffin\puffin_06s.jpg	5	-1	0	0	puffin_06s.jpg	0	0	0	131.985947799403	132.035929952515	0.0499821531120688
84687	50	195	0	0	ready_meal	1292	195	0	stimuli\ready_meal\ready_meal_09s.jpg	8	-1	0	0	ready_meal_09s.jpg	0	0	0	132.085954040987	132.135932049248	0.0499780082609504
84787	50	196	0	0	pita	1189	196	0	stimuli\pita\pita_07s.jpg	6	-1	0	1	pita_07s.jpg	0	0	0	132.185955406399	132.235934389988	0.0499789835885167
84887	50	197	0	0	stir_fry	1557	197	0	stimuli\stir_fry\stir_fry_03s.jpg	2	-1	0	0	stir_fry_03s.jpg	0	0	0	132.285956527805	132.335942581994	0.0499860541895032
84987	50	198	0	0	shrimp	1438	198	0	stimuli\shrimp\shrimp_06n.jpg	5	-1	0	0	shrimp_06n.jpg	0	0	0	132.385960087413	132.435939071001	0.0499789835885167
85087	50	199	0	0	ukulele	1742	199	0	stimuli\ukulele\ukulele_12s.jpg	11	-1	0	0	ukulele_12s.jpg	1	0.309874720871449	1	132.485961696599	132.535942143062	0.0499804464634508
85187	50	200	0	0	chopsticks	339	200	0	stimuli\chopsticks\chopsticks_05s.jpg	4	-1	0	0	chopsticks_05s.jpg	0	0	0	132.585963549558	132.63596642646	0.0500028769019991
85287	50	201	0	0	sawhorse	1367	201	0	stimuli\sawhorse\sawhorse_01b.jpg	0	-1	0	0	sawhorse_01b.jpg	0	0	0	132.685966621619	132.735967548098	0.0500009264796972
85387	50	202	0	0	banana	63	202	0	stimuli\banana\banana_08s.jpg	7	-1	0	0	banana_08s.jpg	0	0	0	132.785983103095	132.835964524653	0.0499814215581864
85487	50	203	0	0	board_game	153	203	0	stimuli\board_game\board_game_11s.jpg	10	-1	0	0	board_game_11s.jpg	0	0	0	132.885986418929	132.935950286221	0.0499638672918081
85587	50	204	0	0	slime	1465	204	0	stimuli\slime\slime_08s.jpg	7	-1	0	0	slime_08s.jpg	0	0	0	132.985981932841	133.035952870734	0.0499709378927946
85687	50	205	0	0	printer	1240	205	0	stimuli\printer\printer_03s.jpg	2	-1	0	0	printer_03s.jpg	0	0	0	133.085969157051	133.135950091295	0.0499809342436492
85787	50	206	0	0	stake	1533	206	0	stimuli\stake\stake_11s.jpg	10	-1	0	0	stake_11s.jpg	0	0	0	133.185983200558	133.235950725153	0.0499675245955586
85887	50	207	0	0	nightshirt	1058	207	0	stimuli\nightshirt\nightshirt_04s.jpg	3	-1	0	0	nightshirt_04s.jpg	0	0	0	133.28596993722	133.335951846559	0.0499819093383849
85987	50	208	0	0	dough	513	208	0	stimuli\dough\dough_05s.jpg	4	-1	0	0	dough_05s.jpg	0	0	0	133.385988125578	133.435951261548	0.0499631359707564
86087	50	209	0	0	blowfish	146	209	0	stimuli\blowfish\blowfish_09s.jpg	8	-1	0	0	blowfish_09s.jpg	0	0	0	133.485970961396	133.535954333609	0.0499833722133189
86187	50	210	0	0	snowsuit	1486	210	0	stimuli\snowsuit\snowsuit_10s.jpg	9	-1	0	0	snowsuit_10s.jpg	0	0	0	133.586022551404	133.63596057496	0.0499380235560238
86287	50	211	0	0	roadsweeper	1316	211	0	stimuli\roadsweeper\roadsweeper_02s.jpg	1	-1	0	0	roadsweeper_02s.jpg	0	0	0	133.685981493909	133.735961940372	0.0499804464634508
86387	50	212	0	0	scissors	1379	212	0	stimuli\scissors\scissors_02s.jpg	1	-1	0	0	scissors_02s.jpg	0	0	0	133.785989685915	133.835977446754	0.0499877608381212
86487	50	213	0	0	chainsaw	299	213	0	stimuli\chainsaw\chainsaw_03s.jpg	2	-1	0	0	chainsaw_03s.jpg	0	0	0	133.885997390375	133.935978080612	0.0499806902371347
86587	50	214	0	0	screen2	1389	214	0	stimuli\screen2\screen2_05s.jpg	4	-1	0	0	screen2_05s.jpg	0	0	0	133.985998755554	134.03597871447	0.049979958916083
86687	50	215	0	0	skewer	1451	215	0	stimuli\skewer\skewer_12s.jpg	11	-1	0	0	skewer_12s.jpg	0	0	0	134.086008166661	134.135984468274	0.0499763016123325
86787	50	216	0	0	cage	236	216	0	stimuli\cage\cage_03s.jpg	2	-1	0	0	cage_03s.jpg	0	0	0	134.186000267277	134.235984370811	0.0499841035343707
86887	50	217	0	0	lemonade	915	217	0	stimuli\lemonade\lemonade_10s.jpg	9	-1	0	0	lemonade_10s.jpg	0	0	0	134.286003826885	134.335985004669	0.0499811777845025
86987	50	218	0	0	briefcase	200	218	0	stimuli\briefcase\briefcase_02s.jpg	1	-1	0	0	briefcase_02s.jpg	0	0	0	134.386001291219	134.435981006362	0.0499797151423991
87087	50	219	0	0	missile	1006	219	0	stimuli\missile\missile_09s.jpg	8	-1	0	0	missile_09s.jpg	0	0	0	134.486027281266	134.535983590642	0.0499563093762845
87187	50	220	0	0	palette	1100	220	0	stimuli\palette\palette_01b.jpg	0	-1	0	0	palette_01b.jpg	0	0	0	134.586033766624	134.636017870158	0.0499841035343707
87287	50	221	0	0	outfit	1087	221	0	stimuli\outfit\outfit_05s.jpg	4	-1	0	0	outfit_05s.jpg	0	0	0	134.686021966161	134.736018016469	0.0499960503075272
87387	50	222	0	0	pinball	1178	222	0	stimuli\pinball\pinball_04s.jpg	3	-1	0	0	pinball_04s.jpg	0	0	0	134.786041617393	134.836022063857	0.0499804464634508
87487	50	223	0	0	ashtray	41	223	0	stimuli\ashtray\ashtray_12s.jpg	11	-1	0	0	ashtray_12s.jpg	0	0	0	134.886048346525	134.936007093871	0.0499587473459542
87587	50	224	0	0	taxi	1630	224	0	stimuli\taxi\taxi_11s.jpg	10	-1	0	0	taxi_11s.jpg	0	0	0	134.986025818391	135.036008215509	0.0499823971185833
87687	50	225	0	0	nacho	1045	225	0	stimuli\nacho\nacho_01b.jpg	0	-1	0	0	nacho_01b.jpg	0	0	0	135.086028890451	135.136008849367	0.049979958916083
87787	50	226	0	0	raisin	1280	226	0	stimuli\raisin\raisin_01b.jpg	0	-1	0	0	raisin_01b.jpg	0	0	0	135.186028061435	135.236008751905	0.0499806904699653
87887	50	227	0	0	keg	866	227	0	stimuli\keg\keg_03s.jpg	2	-1	0	0	keg_03s.jpg	0	0	0	135.28603503434	135.33601865056	0.0499836162198335
87987	50	228	0	0	birdhouse	131	228	0	stimuli\birdhouse\birdhouse_05s.jpg	4	-1	0	0	birdhouse_05s.jpg	0	0	0	135.386051272275	135.436017821543	0.0499665492679924
88087	50	229	0	0	kitten	875	229	0	stimuli\kitten\kitten_12s.jpg	11	-1	0	0	kitten_12s.jpg	0	0	0	135.486039715586	135.536034790566	0.0499950749799609
88187	50	230	0	0	insole	831	230	0	stimuli\insole\insole_04s.jpg	3	-1	0	0	insole_04s.jpg	0	0	0	135.586065218085	135.636033717776	0.0499684996902943
88287	50	231	0	0	vase	1753	231	0	stimuli\vase\vase_08s.jpg	7	-1	0	0	vase_08s.jpg	0	0	0	135.686056587147	135.736037765164	0.0499811780173331
88387	50	232	0	0	rug	1340	232	0	stimuli\rug\rug_11s.jpg	10	-1	0	0	rug_11s.jpg	0	0	0	135.786042348715	135.83604839514	0.0500060464255512
88487	50	233	0	0	rose	1334	233	0	stimuli\rose\rose_10s.jpg	9	-1	0	0	rose_10s.jpg	0	0	0	135.886070289183	135.936033425387	0.0499631362035871
88587	50	234	0	0	clam	349	234	0	stimuli\clam\clam_10s.jpg	9	-1	0	0	clam_10s.jpg	0	0	0	135.986072386149	136.036031133495	0.0499587473459542
88687	50	235	0	0	horseshoe	799	235	0	stimuli\horseshoe\horseshoe_01b.jpg	0	-1	0	0	horseshoe_01b.jpg	0	0	0	136.086051808437	136.136032986455	0.0499811780173331
88787	50	236	0	0	bunkbed	222	236	0	stimuli\bunkbed\bunkbed_10s.jpg	9	-1	0	0	bunkbed_10s.jpg	0	0	0	136.186053173849	136.236036302289	0.049983128439635
88887	50	237	0	0	pillow	1176	237	0	stimuli\pillow\pillow_04s.jpg	3	-1	0	0	pillow_04s.jpg	0	0	0	136.28605917166	136.336044981843	0.0499858101829886
88987	50	238	0	0	toothpick	1681	238	0	stimuli\toothpick\toothpick_11s.jpg	10	-1	0	0	toothpick_11s.jpg	0	0	0	136.386059561744	136.43602708634	0.0499675245955586
89087	50	239	0	0	dessert	481	239	0	stimuli\dessert\dessert_08s.jpg	7	-1	0	0	dessert_08s.jpg	0	0	0	136.486051174579	136.53604746866	0.0499962940812111
89187	50	240	0	0	sonogram	1496	240	0	stimuli\sonogram\sonogram_01b.jpg	0	-1	0	0	sonogram_01b.jpg	0	0	0	136.586057659937	136.636037862627	0.0499802026897669
89287	50	241	0	0	sardine	1359	241	0	stimuli\sardine\sardine_01s.jpg	0	-1	0	0	sardine_01s.jpg	0	0	0	136.686060000444	136.736042641336	0.0499826408922672
89387	50	242	0	0	jewel	849	242	0	stimuli\jewel\jewel_02s.jpg	1	-1	0	0	jewel_02s.jpg	0	0	0	136.786065266933	136.836046932265	0.0499816653318703
89487	50	243	0	0	shower	1433	243	0	stimuli\shower\shower_09s.jpg	8	-1	0	0	shower_09s.jpg	0	0	0	136.88607053319	136.936050248099	0.0499797149095684
89587	50	244	0	0	airboat	8	244	0	stimuli\airboat\airboat_04s.jpg	3	-1	0	0	airboat_04s.jpg	0	0	0	136.986068728846	137.03606160963	0.0499928807839751
89687	50	245	0	0	speedometer	1512	245	0	stimuli\speedometer\speedometer_05s.jpg	4	-1	0	0	speedometer_05s.jpg	0	0	0	137.086075214203	137.136054441798	0.0499792275950313
89787	50	246	0	0	walker1	1773	246	0	stimuli\walker1\walker1_03s.jpg	2	-1	0	0	walker1_03s.jpg	0	0	0	137.186077310937	137.236053856555	0.049976545618847
89887	50	247	0	0	bag	54	247	0	stimuli\bag\bag_06s.jpg	5	-1	0	0	bag_06s.jpg	0	0	0	137.286078676349	137.336052783765	0.0499741074163467
89987	50	248	0	0	snorkel	1478	248	0	stimuli\snorkel\snorkel_08s.jpg	7	-1	0	0	snorkel_08s.jpg	0	0	0	137.386074190261	137.43606024445	0.0499860541895032
90087	50	249	0	0	closet	360	249	0	stimuli\closet\closet_10s.jpg	9	-1	0	0	closet_10s.jpg	0	0	0	137.486077993643	137.536060146755	0.0499821531120688
90187	50	250	0	0	cleaver	354	250	0	stimuli\cleaver\cleaver_01b.jpg	0	-1	0	0	cleaver_01b.jpg	0	0	0	137.58611398004	137.636098814895	0.0499848348554224
90287	50	251	0	0	helicopter	775	251	0	stimuli\helicopter\helicopter_12s.jpg	11	-1	0	0	helicopter_12s.jpg	0	0	0	137.686113394797	137.736094085034	0.0499806902371347
90387	50	252	0	0	soap	1487	252	0	stimuli\soap\soap_01b.jpg	0	-1	0	0	soap_01b.jpg	0	0	0	137.78608940402	137.836080821929	0.049991417909041
90487	50	253	0	0	laser_pointer	899	253	0	stimuli\laser_pointer\laser_pointer_03s.jpg	2	-1	0	0	laser_pointer_03s.jpg	0	0	0	137.88610320352	137.936083649984	0.0499804464634508
90587	50	254	0	0	hydrant	814	254	0	stimuli\hydrant\hydrant_06s.jpg	5	-1	0	0	hydrant_06s.jpg	0	0	0	137.986106031807	138.036086234497	0.0499802026897669
90687	50	255	0	0	fence	575	255	0	stimuli\fence\fence_04s.jpg	3	-1	0	0	fence_04s.jpg	0	0	0	138.08611105429	138.136087843683	0.0499767893925309
90787	50	256	0	0	noodle	1061	256	0	stimuli\noodle\noodle_09s.jpg	8	-1	0	0	noodle_09s.jpg	0	0	0	138.186109006172	138.236086770892	0.0499777647200972
90887	50	257	0	0	cauliflower	288	257	0	stimuli\cauliflower\cauliflower_03s.jpg	2	-1	0	0	cauliflower_03s.jpg	0	0	0	138.28611549153	138.336095450446	0.049979958916083
90987	50	258	0	0	rat	1285	258	0	stimuli\rat\rat_01b.jpg	0	-1	0	0	rat_01b.jpg	0	0	0	138.386116856942	138.436095352983	0.0499784960411489
91087	50	259	0	0	book	165	259	0	stimuli\book\book_09s.jpg	8	-1	0	0	book_09s.jpg	0	0	0	138.486115540378	138.536096961936	0.0499814215581864
91187	50	260	0	0	squirrel	1529	260	0	stimuli\squirrel\squirrel_03s.jpg	2	-1	0	0	squirrel_03s.jpg	0	0	0	138.586119831307	138.636103447294	0.0499836159870028
91287	50	261	0	0	shell3	1419	261	0	stimuli\shell3\shell3_04s.jpg	3	-1	0	0	shell3_04s.jpg	0	0	0	138.68611656432	138.736098961206	0.0499823968857527
91387	50	262	0	0	tarp	1628	262	0	stimuli\tarp\tarp_06s.jpg	5	-1	0	0	tarp_06s.jpg	0	0	0	138.786121830577	138.83610227704	0.0499804464634508
91487	50	263	0	0	iron	832	263	0	stimuli\iron\iron_03s.jpg	2	-1	0	0	iron_03s.jpg	0	0	0	138.886123439763	138.936105105327	0.049981665564701
91587	50	264	0	0	headband	762	264	0	stimuli\headband\headband_09s.jpg	8	-1	0	0	headband_09s.jpg	0	0	0	138.986131387996	139.036108177388	0.0499767893925309
91687	50	265	0	0	sickle	1441	265	0	stimuli\sickle\sickle_03s.jpg	2	-1	0	0	sickle_03s.jpg	0	0	0	139.086129339878	139.13610905502	0.0499797151423991
91787	50	266	0	0	antenna	27	266	0	stimuli\antenna\antenna_07s.jpg	6	-1	0	0	antenna_07s.jpg	0	0	0	139.186130217742	139.236114808824	0.0499845910817385
91887	50	267	0	0	kettle	868	267	0	stimuli\kettle\kettle_04n.jpg	3	-1	0	0	kettle_04n.jpg	0	0	0	139.286138409749	139.33611641801	0.0499780082609504
91987	50	268	0	0	pineapple	1182	268	0	stimuli\pineapple\pineapple_08s.jpg	7	-1	0	0	pineapple_08s.jpg	0	0	0	139.386138312053	139.436119002523	0.0499806904699653
92087	50	269	0	0	popsicle	1225	269	0	stimuli\popsicle\popsicle_09s.jpg	8	-1	0	0	popsicle_09s.jpg	0	0	0	139.486141384114	139.536120123928	0.0499787398148328
92187	50	270	0	0	clipper1	356	270	0	stimuli\clipper1\clipper1_01s.jpg	0	-1	0	0	clipper1_01s.jpg	0	0	0	139.586143237073	139.636123439763	0.0499802026897669
92287	50	271	0	0	napkin_ring	1051	271	0	stimuli\napkin_ring\napkin_ring_09s.jpg	8	-1	0	0	napkin_ring_09s.jpg	0	0	0	139.686148259556	139.736130900215	0.0499826406594366
92387	50	272	0	0	tablecloth	1609	272	0	stimuli\tablecloth\tablecloth_06s.jpg	5	-1	0	0	tablecloth_06s.jpg	0	0	0	139.786152062938	139.83612885233	0.0499767893925309
92487	50	273	0	0	saxophone	1368	273	0	stimuli\saxophone\saxophone_08s.jpg	7	-1	0	0	saxophone_08s.jpg	0	0	0	139.886150746373	139.936130461516	0.0499797151423991
92587	50	274	0	0	fungus	648	274	0	stimuli\fungus\fungus_02s.jpg	1	-1	0	0	fungus_02s.jpg	0	0	0	139.986152111785	140.036141823046	0.0499897112604231
92688	50	275	0	0	gas_mask	660	275	0	stimuli\gas_mask\gas_mask_02s.jpg	1	-1	0	0	gas_mask_02s.jpg	0	0	0	140.08617907716	140.136158548295	0.0499794711358845
92787	50	276	0	0	cardinal	274	276	0	stimuli\cardinal\cardinal_02s.jpg	1	-1	0	0	cardinal_02s.jpg	0	0	0	140.186164107174	140.236141384114	0.0499772769398987
92888	50	277	0	0	snail	1476	277	0	stimuli\snail\snail_01b.jpg	0	-1	0	0	snail_01b.jpg	0	0	0	140.286180344876	140.336144212401	0.0499638675246388
92987	50	278	0	0	nail_file	1048	278	0	stimuli\nail_file\nail_file_08s.jpg	7	-1	0	0	nail_file_08s.jpg	0	0	0	140.386151721701	140.436134118587	0.0499823968857527
93087	50	279	0	0	shell1	1417	279	0	stimuli\shell1\shell1_02s.jpg	1	-1	0	0	shell1_02s.jpg	0	0	0	140.486156744184	140.536134264898	0.0499775207135826
93187	50	280	0	0	shoe_polish	1424	280	0	stimuli\shoe_polish\shoe_polish_08s.jpg	7	-1	0	0	shoe_polish_08s.jpg	0	0	0	140.586158840917	140.636137336958	0.0499784960411489
93287	50	281	0	0	column	388	281	0	stimuli\column\column_09s.jpg	8	-1	0	0	column_09s.jpg	0	0	0	140.686158987228	140.736142115667	0.049983128439635
93387	50	282	0	0	bumper	219	282	0	stimuli\bumper\bumper_09s.jpg	8	-1	0	0	bumper_09s.jpg	0	0	0	140.786161571508	140.836162254214	0.0500006827060133
93488	50	283	0	0	steamroller	1545	283	0	stimuli\steamroller\steamroller_10s.jpg	9	-1	0	0	steamroller_10s.jpg	0	0	0	140.886198533	140.936179223238	0.0499806902371347
93588	50	284	0	0	mongoose	1016	284	0	stimuli\mongoose\mongoose_10s.jpg	9	-1	0	0	mongoose_10s.jpg	0	0	0	140.98620038596	141.036191316321	0.0499909303616732
93688	50	285	0	0	wall	1775	285	0	stimuli\wall\wall_05s.jpg	4	-1	0	0	wall_05s.jpg	0	0	0	141.086205408443	141.136169763515	0.0499643550720066
93788	50	286	0	0	helmet	776	286	0	stimuli\helmet\helmet_05s.jpg	4	-1	0	0	helmet_05s.jpg	0	0	0	141.186205554754	141.236183075467	0.0499775207135826
93888	50	287	0	0	dartboard	474	287	0	stimuli\dartboard\dartboard_08s.jpg	7	-1	0	0	dartboard_08s.jpg	0	0	0	141.286179857329	141.336158109363	0.0499782520346344
93988	50	288	0	0	bottle	170	288	0	stimuli\bottle\bottle_04s.jpg	3	-1	0	0	bottle_04s.jpg	0	0	0	141.386180247413	141.436159718549	0.0499794711358845
94088	50	289	0	0	spark_plug	1506	289	0	stimuli\spark_plug\spark_plug_04s.jpg	3	-1	0	0	spark_plug_04s.jpg	0	0	0	141.486181856599	141.536168398103	0.0499865415040404
94188	50	290	0	0	flan	609	290	0	stimuli\flan\flan_04s.jpg	3	-1	0	0	flan_04s.jpg	0	0	0	141.586188341724	141.636165618896	0.0499772771727294
94288	50	291	0	0	chalice	301	291	0	stimuli\chalice\chalice_03s.jpg	2	-1	0	0	chalice_03s.jpg	0	0	0	141.686193364207	141.7361713727	0.0499780084937811
94388	50	292	0	0	arrow	38	292	0	stimuli\arrow\arrow_04s.jpg	3	-1	0	0	arrow_04s.jpg	0	0	0	141.786198630696	141.836182734231	0.0499841035343707
94488	50	293	0	0	cruise_ship	450	293	0	stimuli\cruise_ship\cruise_ship_12s.jpg	11	-1	0	0	cruise_ship_12s.jpg	0	0	0	141.886204140726	141.936184343416	0.0499802026897669
94588	50	294	0	0	chin	330	294	0	stimuli\chin\chin_12s.jpg	11	-1	0	0	chin_12s.jpg	0	0	0	141.986201605061	142.036184245721	0.0499826406594366
94688	50	295	0	0	stalagmite	1534	295	0	stimuli\stalagmite\stalagmite_06s.jpg	5	-1	0	0	stalagmite_06s.jpg	0	0	0	142.086207358865	142.136186830234	0.0499794713687152
94788	50	296	0	0	french_horn	642	296	0	stimuli\french_horn\french_horn_03s.jpg	2	-1	0	0	french_horn_03s.jpg	0	0	0	142.186209455831	142.236195753561	0.0499862977303565
94888	50	297	0	0	tupperware	1729	297	0	stimuli\tupperware\tupperware_03s.jpg	2	-1	0	0	tupperware_03s.jpg	0	0	0	142.28621911048	142.336195899872	0.0499767893925309
94988	50	298	0	0	graffiti	697	298	0	stimuli\graffiti\graffiti_01b.jpg	0	-1	0	0	graffiti_01b.jpg	0	0	0	142.38621633104	142.436195802409	0.0499794713687152
95088	50	299	0	0	windshield	1820	299	0	stimuli\windshield\windshield_01b.jpg	0	-1	0	0	windshield_01b.jpg	0	0	0	142.486218428006	142.536198142916	0.0499797149095684
95188	50	300	0	0	eclair	544	300	0	stimuli\eclair\eclair_04s.jpg	3	-1	0	0	eclair_04s.jpg	0	0	0	142.586221012287	142.636205359828	0.0499843475408852
95288	50	301	0	0	mug	1036	301	0	stimuli\mug\mug_07s.jpg	6	-1	0	0	mug_07s.jpg	0	0	0	142.686224328121	142.736205262132	0.0499809340108186
95388	50	302	0	0	spur	1525	302	0	stimuli\spur\spur_10s.jpg	9	-1	0	0	spur_10s.jpg	0	0	0	142.786231057253	142.836207115091	0.0499760578386486
95488	50	303	0	0	aluminum_foil	17	303	0	stimuli\aluminum_foil\aluminum_foil_10s.jpg	9	-1	0	0	aluminum_foil_10s.jpg	0	0	0	142.886229984462	142.936210187152	0.0499802026897669
95588	50	304	0	0	tomato	1672	304	0	stimuli\tomato\tomato_04s.jpg	3	-1	0	0	tomato_04s.jpg	0	0	0	142.986229399219	143.03621082101	0.0499814217910171
95688	50	305	0	0	hourglass	807	305	0	stimuli\hourglass\hourglass_05s.jpg	4	-1	0	0	hourglass_05s.jpg	0	0	0	143.086235640803	143.136212186422	0.049976545618847
95788	50	306	0	0	melon	994	306	0	stimuli\melon\melon_05s.jpg	4	-1	0	0	melon_05s.jpg	0	0	0	143.186236274661	143.236217452679	0.0499811780173331
95888	50	307	0	0	keyhole	871	307	0	stimuli\keyhole\keyhole_02s.jpg	1	-1	0	0	keyhole_02s.jpg	0	0	0	143.286244466668	143.336246856023	0.0500023893546313
95988	50	308	0	0	checkbook	310	308	0	stimuli\checkbook\checkbook_04s.jpg	3	-1	0	0	checkbook_04s.jpg	0	0	0	143.386264605448	143.436242613709	0.0499780082609504
107021	50	309	0	0	hole	785	0	1	stimuli\hole\hole_01b.jpg	0	-1	1	0	hole_01b.jpg	1	0	0	154.419859107351	154.469847843517	0.0499887361656874
107121	50	310	0	0	turnstile	1734	1	1	stimuli\turnstile\turnstile_04s.jpg	3	-1	1	0	turnstile_04s.jpg	0	0	0	154.519863398513	154.569847745821	0.0499843473080546
107221	50	311	0	0	leotard	918	2	1	stimuli\leotard\leotard_08s.jpg	7	-1	1	0	leotard_08s.jpg	0	0	0	154.619866714347	154.669848867459	0.0499821531120688
107321	50	312	0	0	penguin	1145	3	1	stimuli\penguin\penguin_06s.jpg	5	-1	1	0	penguin_06s.jpg	0	0	0	154.71987173683	154.769853646168	0.0499819093383849
107421	50	313	0	0	pedometer	1137	4	1	stimuli\pedometer\pedometer_09s.jpg	8	-1	1	0	pedometer_09s.jpg	0	0	0	154.819899189752	154.869873540942	0.0499743511900306
107521	50	314	0	0	swizzle_stick	1601	5	1	stimuli\swizzle_stick\swizzle_stick_12s.jpg	11	-1	1	0	swizzle_stick_12s.jpg	0	0	0	154.91989153414	154.969869542401	0.0499780082609504
107621	50	315	0	0	bench	120	6	1	stimuli\bench\bench_01b.jpg	0	-1	1	0	bench_01b.jpg	0	0	0	155.019893874647	155.069872370688	0.0499784960411489
107721	50	316	0	0	soup	1499	7	1	stimuli\soup\soup_12s.jpg	11	-1	1	0	soup_12s.jpg	0	0	0	155.119895483833	155.169894215884	0.0499987320508808
107821	50	317	0	0	porcupine	1226	8	1	stimuli\porcupine\porcupine_02s.jpg	1	-1	1	0	porcupine_02s.jpg	0	0	0	155.21988660912	155.269870225107	0.0499836159870028
107921	50	318	0	0	gear	667	9	1	stimuli\gear\gear_04n.jpg	3	-1	1	0	gear_04n.jpg	0	0	0	155.31988309836	155.369870127644	0.0499870292842388
108021	50	319	0	0	baklava	57	10	1	stimuli\baklava\baklava_06s.jpg	5	-1	1	0	baklava_06s.jpg	0	0	0	155.41989445989	155.469896117691	0.0500016578007489
108121	50	320	0	0	coal	367	11	1	stimuli\coal\coal_08s.jpg	7	-1	1	0	coal_08s.jpg	0	0	0	155.519910697592	155.56989138783	0.0499806902371347
108221	50	321	0	0	wetsuit	1803	12	1	stimuli\wetsuit\wetsuit_05s.jpg	4	-1	1	0	wetsuit_05s.jpg	0	0	0	155.619912306545	155.669895678759	0.0499833722133189
108321	50	322	0	0	lizard	937	13	1	stimuli\lizard\lizard_08n.jpg	7	-1	1	0	lizard_08n.jpg	0	0	0	155.719907576684	155.7698933871	0.0499858104158193
108421	50	323	0	0	loveseat	947	14	1	stimuli\loveseat\loveseat_02s.jpg	1	-1	1	0	loveseat_02s.jpg	0	0	0	155.819910892518	155.869892801857	0.0499819093383849
108521	50	324	0	0	smoothie	1474	15	1	stimuli\smoothie\smoothie_02s.jpg	1	-1	1	0	smoothie_02s.jpg	0	0	0	155.919911282603	155.969896605238	0.0499853226356208
108621	50	325	0	0	crayon	435	16	1	stimuli\crayon\crayon_10s.jpg	9	-1	1	0	crayon_10s.jpg	0	0	0	156.019918743288	156.069896507775	0.0499777644872665
108721	50	326	0	0	shelf	1416	17	1	stimuli\shelf\shelf_05s.jpg	4	-1	1	0	shelf_05s.jpg	0	0	0	156.119916938944	156.169899336062	0.0499823971185833
108821	50	327	0	0	rabbit	1265	18	1	stimuli\rabbit\rabbit_04n.jpg	3	-1	1	0	rabbit_04n.jpg	0	0	0	156.219923424302	156.269899238367	0.0499758140649647
108921	50	328	0	0	gopher	694	19	1	stimuli\gopher\gopher_05s.jpg	4	-1	1	0	gopher_05s.jpg	0	0	0	156.319912599167	156.369894020958	0.0499814217910171
109021	50	329	0	0	sledgehammer	1461	20	1	stimuli\sledgehammer\sledgehammer_07s.jpg	6	-1	1	0	sledgehammer_07s.jpg	0	0	0	156.419917377876	156.46989246062	0.0499750827439129
109121	50	330	0	0	chain	298	21	1	stimuli\chain\chain_12s.jpg	11	-1	1	0	chain_12s.jpg	0	0	0	156.519908503164	156.569893825799	0.0499853226356208
109221	50	331	0	0	peanut	1131	22	1	stimuli\peanut\peanut_03s.jpg	2	-1	1	0	peanut_03s.jpg	0	0	0	156.6199142572	156.669889339712	0.0499750825110823
109321	50	332	0	0	bird	128	23	1	stimuli\bird\bird_12s.jpg	11	-1	1	0	bird_12s.jpg	0	0	0	156.719916841481	156.769901676569	0.049984835088253
109421	50	333	0	0	cheetah	315	24	1	stimuli\cheetah\cheetah_12s.jpg	11	-1	1	0	cheetah_12s.jpg	0	0	0	156.819917231565	156.869904017076	0.0499867855105549
109521	50	334	0	0	owl	1091	25	1	stimuli\owl\owl_02s.jpg	1	-1	1	0	owl_02s.jpg	0	0	0	156.919933225494	156.969907820458	0.0499745949637145
109621	50	335	0	0	potpourri	1235	26	1	stimuli\potpourri\potpourri_10s.jpg	9	-1	1	0	potpourri_10s.jpg	0	0	0	157.019921425031	157.069898458198	0.0499770331662148
109721	50	336	0	0	pogo_stick	1208	27	1	stimuli\pogo_stick\pogo_stick_09s.jpg	8	-1	1	0	pogo_stick_09s.jpg	0	0	0	157.119945952436	157.169890071265	0.0499441188294441
109821	50	337	0	0	crossbow	444	28	1	stimuli\crossbow\crossbow_05s.jpg	4	-1	1	0	crossbow_05s.jpg	0	0	0	157.219953412889	157.26993190893	0.0499784960411489
109921	50	338	0	0	jetski	848	29	1	stimuli\jetski\jetski_09s.jpg	8	-1	1	0	jetski_09s.jpg	0	0	0	157.319953559199	157.369917182717	0.0499636235181242
110021	50	339	0	0	tie	1658	30	1	stimuli\tie\tie_04s.jpg	3	-1	1	0	tie_04s.jpg	0	0	0	157.419942977838	157.469915866153	0.0499728883150965
110121	50	340	0	0	zucchini	1853	31	1	stimuli\zucchini\zucchini_10s.jpg	9	-1	1	0	zucchini_10s.jpg	0	0	0	157.519931177376	157.569913818268	0.0499826408922672
110221	50	341	0	0	hummus	812	32	1	stimuli\hummus\hummus_04s.jpg	3	-1	1	0	hummus_04s.jpg	0	0	0	157.619932542788	157.669942490291	0.0500099475029856
110321	50	342	0	0	seed	1401	33	1	stimuli\seed\seed_06s.jpg	5	-1	1	0	seed_06s.jpg	0	0	0	157.719943416771	157.769950682297	0.0500072655268013
110421	50	343	0	0	broom	203	34	1	stimuli\broom\broom_05s.jpg	4	-1	1	0	broom_05s.jpg	0	0	0	157.81996891927	157.869947659085	0.0499787398148328
110521	50	344	0	0	record	1295	35	1	stimuli\record\record_08s.jpg	7	-1	1	0	record_08s.jpg	0	0	0	157.919968334027	157.969935858622	0.0499675245955586
110621	50	345	0	0	trophy	1717	36	1	stimuli\trophy\trophy_08s.jpg	7	-1	1	0	trophy_08s.jpg	0	0	0	158.019940929953	158.069962336216	0.050021406263113
110721	50	346	0	0	van	1752	37	1	stimuli\van\van_01b.jpg	0	-1	1	0	van_01b.jpg	0	0	0	158.119976916118	158.169958094135	0.0499811780173331
110821	50	347	0	0	grape	702	38	1	stimuli\grape\grape_01b.jpg	0	-1	1	0	grape_01b.jpg	0	0	0	158.219982182374	158.26996799279	0.0499858104158193
110921	50	348	0	0	thermos	1647	39	1	stimuli\thermos\thermos_02s.jpg	1	-1	1	1	thermos_02s.jpg	0	0	0	158.320016462123	158.369950584602	0.0499341224785894
111021	50	349	0	0	knitting	880	40	1	stimuli\knitting\knitting_01b.jpg	0	-1	1	0	knitting_01b.jpg	0	0	0	158.419952973956	158.469948049169	0.0499950752127916
111121	50	350	0	0	duffel_bag	529	41	1	stimuli\duffel_bag\duffel_bag_04s.jpg	3	-1	1	0	duffel_bag_04s.jpg	0	0	0	158.519954826916	158.569951120997	0.0499962940812111
111221	50	351	0	0	water_cooler	1788	42	1	stimuli\water_cooler\water_cooler_10s.jpg	9	-1	1	0	water_cooler_10s.jpg	1	0.302786205429584	1	158.619970820844	158.669963214081	0.0499923932366073
111321	50	352	0	0	buoy	223	43	1	stimuli\buoy\buoy_01b.jpg	0	-1	1	0	buoy_01b.jpg	0	0	0	158.719971942483	158.769937516423	0.0499655739404261
111421	50	353	0	0	tee	1636	44	1	stimuli\tee\tee_06s.jpg	5	-1	1	0	tee_06s.jpg	0	0	0	158.819997932529	158.869975697016	0.0499777644872665
111521	50	354	0	0	dress	518	45	1	stimuli\dress\dress_07s.jpg	6	-1	1	0	dress_07s.jpg	0	0	0	158.920001492137	158.969981207279	0.0499797151423991
111621	50	355	0	0	fondue	626	46	1	stimuli\fondue\fondue_04n.jpg	3	-1	1	0	fondue_04n.jpg	0	0	0	159.020001638448	159.069983304013	0.049981665564701
111721	50	356	0	0	onion	1077	47	1	stimuli\onion\onion_11n.jpg	10	-1	1	0	onion_11n.jpg	0	0	0	159.120008367579	159.169971991098	0.0499636235181242
111821	50	357	0	0	salad	1348	48	1	stimuli\salad\salad_01b.jpg	0	-1	1	0	salad_01b.jpg	0	0	0	159.219980719499	159.269964091713	0.0499833722133189
111921	50	358	0	0	urinal	1748	49	1	stimuli\urinal\urinal_01b.jpg	0	-1	1	0	urinal_01b.jpg	0	0	0	159.320009635296	159.369973015273	0.049963379977271
112021	50	359	0	0	hatchet	759	50	1	stimuli\hatchet\hatchet_10s.jpg	9	-1	1	0	hatchet_10s.jpg	0	0	0	159.41999807884	159.469975599553	0.0499775207135826
112121	50	360	0	0	saucer	1363	51	1	stimuli\saucer\saucer_06s.jpg	5	-1	1	0	saucer_06s.jpg	0	0	0	159.519976038486	159.569958922919	0.0499828844331205
112221	50	361	0	0	window	1818	52	1	stimuli\window\window_04s.jpg	3	-1	1	0	window_04s.jpg	0	0	0	159.619979598094	159.669987351168	0.0500077530741692
112321	50	362	0	0	hawk	760	53	1	stimuli\hawk\hawk_02s.jpg	1	-1	1	0	hawk_02s.jpg	0	0	0	159.719988521421	159.769969699439	0.0499811780173331
112421	50	363	0	0	suit	1580	54	1	stimuli\suit\suit_05s.jpg	4	-1	1	0	suit_05s.jpg	0	0	0	159.819990130607	159.869975209469	0.0499850788619369
112521	50	364	0	0	bassinet	85	55	1	stimuli\bassinet\bassinet_08s.jpg	7	-1	1	0	bassinet_08s.jpg	0	0	0	159.919999785488	159.969983401475	0.0499836159870028
112621	50	365	0	0	shield	1420	56	1	stimuli\shield\shield_08n.jpg	7	-1	1	0	shield_08n.jpg	0	0	0	160.020004807971	160.069987936411	0.049983128439635
112721	50	366	0	0	photo_booth	1163	57	1	stimuli\photo_booth\photo_booth_03s.jpg	2	-1	1	0	photo_booth_03s.jpg	0	0	0	160.120006417157	160.169989545364	0.0499831282068044
112821	50	367	0	0	wolf	1831	58	1	stimuli\wolf\wolf_08n.jpg	7	-1	1	0	wolf_08n.jpg	0	0	0	160.220005831914	160.269991886104	0.0499860541895032
112921	50	368	0	0	blowgun	147	59	1	stimuli\blowgun\blowgun_10s.jpg	9	-1	1	0	blowgun_10s.jpg	0	0	0	160.320008903975	160.369993739063	0.049984835088253
113021	50	369	0	0	bookmark	166	60	1	stimuli\bookmark\bookmark_12s.jpg	11	-1	1	0	bookmark_12s.jpg	0	0	0	160.420015145559	160.469999249093	0.0499841035343707
113121	50	370	0	0	cork	409	61	1	stimuli\cork\cork_03s.jpg	2	-1	1	0	cork_03s.jpg	0	0	0	160.520011147019	160.56999915163	0.0499880046118051
113221	50	371	0	0	stump	1576	62	1	stimuli\stump\stump_01b.jpg	0	-1	1	0	stump_01b.jpg	0	0	0	160.620017632376	160.670003198786	0.0499855664093047
113321	50	372	0	0	satellite_dish	1361	63	1	stimuli\satellite_dish\satellite_dish_08s.jpg	7	-1	1	0	satellite_dish_08s.jpg	0	0	0	160.720051911892	160.770024556434	0.0499726445414126
113421	50	373	0	0	pheasant	1160	64	1	stimuli\pheasant\pheasant_06s.jpg	5	-1	1	0	pheasant_06s.jpg	0	0	0	160.820048401132	160.870029578917	0.0499811777845025
113521	50	374	0	0	metronome	997	65	1	stimuli\metronome\metronome_06s.jpg	5	-1	1	0	metronome_06s.jpg	0	0	0	160.920050254092	160.970030456781	0.0499802026897669
113621	50	375	0	0	marijuana	974	66	1	stimuli\marijuana\marijuana_10s.jpg	9	-1	1	0	marijuana_10s.jpg	0	0	0	161.020052350825	161.070018900093	0.0499665492679924
113721	50	376	0	0	grain	698	67	1	stimuli\grain\grain_10s.jpg	9	-1	1	0	grain_10s.jpg	0	0	0	161.120029335143	161.170017339755	0.0499880046118051
113821	50	377	0	0	grits	717	68	1	stimuli\grits\grits_03s.jpg	2	-1	1	0	grits_03s.jpg	0	0	0	161.220034845173	161.270015779417	0.0499809342436492
113921	50	378	0	0	bungee	221	69	1	stimuli\bungee\bungee_05s.jpg	4	-1	1	0	bungee_05s.jpg	0	0	0	161.32003767346	161.370018119924	0.0499804464634508
114021	50	379	0	0	motherboard	1024	70	1	stimuli\motherboard\motherboard_10s.jpg	9	-1	1	0	motherboard_10s.jpg	0	0	0	161.420035625342	161.470011195634	0.0499755702912807
114121	50	380	0	0	fencepost	576	71	1	stimuli\fencepost\fencepost_10s.jpg	9	-1	1	0	fencepost_10s.jpg	0	0	0	161.520030407934	161.570008660201	0.049978252267465
114221	50	381	0	0	firewood	597	72	1	stimuli\firewood\firewood_11s.jpg	10	-1	1	0	firewood_11s.jpg	0	0	0	161.620030310471	161.670017339755	0.0499870292842388
114321	50	382	0	0	seesaw	1402	73	1	stimuli\seesaw\seesaw_12s.jpg	11	-1	1	0	seesaw_12s.jpg	0	0	0	161.720034113852	161.770021143137	0.0499870292842388
114421	50	383	0	0	hairbrush	734	74	1	stimuli\hairbrush\hairbrush_01b.jpg	0	-1	1	1	hairbrush_01b.jpg	0	0	0	161.820038892562	161.87002323987	0.0499843473080546
114521	50	384	0	0	handle	748	75	1	stimuli\handle\handle_05s.jpg	4	-1	1	0	handle_05s.jpg	0	0	0	161.920043183491	161.970021923305	0.0499787398148328
114621	50	385	0	0	ruler	1341	76	1	stimuli\ruler\ruler_05s.jpg	4	-1	1	0	ruler_05s.jpg	0	0	0	162.020040404052	162.070025970694	0.0499855666421354
114721	50	386	0	0	crumb	451	77	1	stimuli\crumb\crumb_06s.jpg	5	-1	1	0	crumb_06s.jpg	1	0.29223705874756	1	162.120062493253	162.170044158818	0.049981665564701
114821	50	387	0	0	beer	113	78	1	stimuli\beer\beer_08s.jpg	7	-1	1	0	beer_08s.jpg	0	0	0	162.220057031838	162.270043086028	0.0499860541895032
114921	50	388	0	0	lava	903	79	1	stimuli\lava\lava_05s.jpg	4	-1	1	0	lava_05s.jpg	0	0	0	162.320061079226	162.370045670308	0.0499845910817385
115021	50	389	0	0	school_bus	1378	80	1	stimuli\school_bus\school_bus_12s.jpg	11	-1	1	0	school_bus_12s.jpg	0	0	0	162.420071465429	162.47004703572	0.0499755702912807
115121	50	390	0	0	bear	105	81	1	stimuli\bear\bear_10s.jpg	9	-1	1	0	bear_10s.jpg	0	0	0	162.520064297365	162.570049132453	0.049984835088253
115221	50	391	0	0	mosquito	1020	82	1	stimuli\mosquito\mosquito_07s.jpg	6	-1	1	0	mosquito_07s.jpg	0	0	0	162.620067613199	162.670047572115	0.049979958916083
115321	50	392	0	0	tricycle	1711	83	1	stimuli\tricycle\tricycle_05s.jpg	4	-1	1	0	tricycle_05s.jpg	0	0	0	162.720064102439	162.770046499325	0.0499823968857527
115421	50	393	0	0	chisel	336	84	1	stimuli\chisel\chisel_03s.jpg	2	-1	1	0	chisel_03s.jpg	0	0	0	162.820065711625	162.870050790487	0.0499850788619369
115521	50	394	0	0	camper	249	85	1	stimuli\camper\camper_12s.jpg	11	-1	1	0	camper_12s.jpg	0	0	0	162.920077560702	162.970051911892	0.0499743511900306
115621	50	395	0	0	trigger	1713	86	1	stimuli\trigger\trigger_05s.jpg	4	-1	1	0	trigger_05s.jpg	0	0	0	163.020070880186	163.070054008625	0.049983128439635
115721	50	396	0	0	doorknob	509	87	1	stimuli\doorknob\doorknob_01b.jpg	0	-1	1	0	doorknob_01b.jpg	0	0	0	163.12007712177	163.170059031108	0.0499819093383849
115821	50	397	0	0	mail	959	88	1	stimuli\mail\mail_05s.jpg	4	-1	1	0	mail_05s.jpg	0	0	0	163.220078243408	163.270062590716	0.0499843473080546
115921	50	398	0	0	camcorder	244	89	1	stimuli\camcorder\camcorder_09n.jpg	8	-1	1	0	camcorder_09n.jpg	0	0	0	163.320079852361	163.370061517926	0.049981665564701
116021	50	399	0	0	turkey	1733	90	1	stimuli\turkey\turkey_02s.jpg	1	-1	1	0	turkey_02s.jpg	0	0	0	163.420076341601	163.470062152017	0.0499858104158193
116121	50	400	0	0	saw	1366	91	1	stimuli\saw\saw_06s.jpg	5	-1	1	0	saw_06s.jpg	0	0	0	163.520079901209	163.570065223845	0.0499853226356208
116221	50	401	0	0	microscope	999	92	1	stimuli\microscope\microscope_02s.jpg	1	-1	1	0	microscope_02s.jpg	0	0	0	163.620083217043	163.67006975878	0.049986541736871
116321	50	402	0	0	cash_machine	279	93	1	stimuli\cash_machine\cash_machine_09s.jpg	8	-1	1	0	cash_machine_09s.jpg	0	0	0	163.720086289104	163.770067710662	0.0499814215581864
116421	50	403	0	0	razor	1290	94	1	stimuli\razor\razor_07s.jpg	6	-1	1	0	razor_07s.jpg	0	0	0	163.820094481111	163.870073952246	0.0499794711358845
116521	50	404	0	0	mouthpiece	1032	95	1	stimuli\mouthpiece\mouthpiece_05s.jpg	4	-1	1	0	mouthpiece_05s.jpg	0	0	0	163.920090238797	163.970074342331	0.0499841035343707
116621	50	405	0	0	nail_polish	1049	96	1	stimuli\nail_polish\nail_polish_06s.jpg	5	-1	1	0	nail_polish_06s.jpg	0	0	0	164.020092091756	164.070075951517	0.0499838597606868
116721	50	406	0	0	raft	1275	97	1	stimuli\raft\raft_07s.jpg	6	-1	1	0	raft_07s.jpg	0	0	0	164.120131491218	164.170090970118	0.0499594788998365
116821	50	407	0	0	finger	588	98	1	stimuli\finger\finger_05s.jpg	4	-1	1	0	finger_05s.jpg	0	0	0	164.220104574692	164.270084777381	0.0499802026897669
116921	50	408	0	0	snowboard	1481	99	1	stimuli\snowboard\snowboard_07s.jpg	6	-1	1	0	snowboard_07s.jpg	0	0	0	164.32010520855	164.370091506513	0.0499862979631871
117021	50	409	0	0	wallet	1776	100	1	stimuli\wallet\wallet_03s.jpg	2	-1	1	0	wallet_03s.jpg	0	0	0	164.420152897714	164.470117252786	0.0499643550720066
117121	50	410	0	0	dice	486	101	1	stimuli\dice\dice_11s.jpg	10	-1	1	0	dice_11s.jpg	0	0	0	164.520139390836	164.570120812394	0.0499814215581864
117221	50	411	0	0	avocado	43	102	1	stimuli\avocado\avocado_06s.jpg	5	-1	1	0	avocado_06s.jpg	0	0	0	164.620140268467	164.67011949583	0.0499792273622006
117321	50	412	0	0	gravy	711	103	1	stimuli\gravy\gravy_01s.jpg	0	-1	1	0	gravy_01s.jpg	0	0	0	164.720141633879	164.770119885914	0.0499782520346344
117421	50	413	0	0	doorstop	512	104	1	stimuli\doorstop\doorstop_01b.jpg	0	-1	1	0	doorstop_01b.jpg	0	0	0	164.820142511511	164.870126859052	0.0499843475408852
117521	50	414	0	0	airbag	7	105	1	stimuli\airbag\airbag_03s.jpg	2	-1	1	0	airbag_03s.jpg	0	0	0	164.920148509322	164.97012456716	0.0499760578386486
117621	50	415	0	0	polaroid	1212	106	1	stimuli\polaroid\polaroid_02s.jpg	1	-1	1	0	polaroid_02s.jpg	0	0	0	165.020147680305	165.070132759167	0.0499850788619369
117721	50	416	0	0	cornhusk	414	107	1	stimuli\cornhusk\cornhusk_04s.jpg	3	-1	1	0	cornhusk_04s.jpg	0	0	0	165.120161479805	165.170135343447	0.0499738636426628
117821	50	417	0	0	inhaler	828	108	1	stimuli\inhaler\inhaler_05s.jpg	4	-1	1	0	inhaler_05s.jpg	0	0	0	165.220155530842	165.270132564008	0.0499770331662148
117921	50	418	0	0	headphones	766	109	1	stimuli\headphones\headphones_11s.jpg	10	-1	1	0	headphones_11s.jpg	0	0	0	165.320156164933	165.370134904748	0.0499787398148328
118021	50	419	0	0	footbath	631	110	1	stimuli\footbath\footbath_06s.jpg	5	-1	1	0	footbath_06s.jpg	0	0	0	165.42014972819	165.470127980458	0.049978252267465
118121	50	420	0	0	sandpaper	1356	111	1	stimuli\sandpaper\sandpaper_03s.jpg	2	-1	1	0	sandpaper_03s.jpg	0	0	0	165.520148167852	165.570130564738	0.0499823968857527
118221	50	421	0	0	bus	226	112	1	stimuli\bus\bus_06n.jpg	5	-1	1	0	bus_06n.jpg	0	0	0	165.62015172746	165.670133149251	0.0499814217910171
118321	50	422	0	0	blackberry	135	113	1	stimuli\blackberry\blackberry_10s.jpg	9	-1	1	0	blackberry_10s.jpg	0	0	0	165.720141389873	165.770123299211	0.0499819093383849
118421	50	423	0	0	flamingo	608	114	1	stimuli\flamingo\flamingo_05s.jpg	4	-1	1	0	flamingo_05s.jpg	0	0	0	165.820146412356	165.870121738873	0.0499753265175968
118521	50	424	0	0	vacuum	1750	115	1	stimuli\vacuum\vacuum_07s.jpg	6	-1	1	0	vacuum_07s.jpg	0	0	0	165.920140463393	165.970132369082	0.0499919056892395
118621	50	425	0	0	wing	1827	116	1	stimuli\wing\wing_12s.jpg	11	-1	1	0	wing_12s.jpg	0	0	0	166.020150849828	166.070133246714	0.0499823968857527
118721	50	426	0	0	syrup	1605	117	1	stimuli\syrup\syrup_12s.jpg	11	-1	1	0	syrup_12s.jpg	0	0	0	166.12015172746	166.170136562549	0.049984835088253
118821	50	427	0	0	drum	522	118	1	stimuli\drum\drum_07s.jpg	6	-1	1	0	drum_07s.jpg	0	0	0	166.220154067967	166.270134758437	0.0499806904699653
118921	50	428	0	0	cushion	466	119	1	stimuli\cushion\cushion_07s.jpg	6	-1	1	0	cushion_07s.jpg	0	0	0	166.320155677153	166.370159041835	0.0500033646821976
119021	50	429	0	0	microwave	1000	120	1	stimuli\microwave\microwave_11s.jpg	10	-1	1	0	microwave_11s.jpg	0	0	0	166.420154604362	166.470151386224	0.0499967818614095
119121	50	430	0	0	abacus	1	121	1	stimuli\abacus\abacus_11s.jpg	10	-1	1	0	abacus_11s.jpg	0	0	0	166.520158895524	166.570139829535	0.0499809340108186
119221	50	431	0	0	quill	1263	122	1	stimuli\quill\quill_08s.jpg	7	-1	1	0	quill_08s.jpg	0	0	0	166.620166843757	166.670160212088	0.0499933683313429
119321	50	432	0	0	egg_roll	547	123	1	stimuli\egg_roll\egg_roll_02s.jpg	1	-1	1	0	egg_roll_02s.jpg	0	0	0	166.720167965163	166.770151093602	0.049983128439635
119421	50	433	0	0	canvas	264	124	1	stimuli\canvas\canvas_03s.jpg	2	-1	1	0	canvas_03s.jpg	0	0	0	166.820170305669	166.870153677883	0.0499833722133189
119521	50	434	0	0	bullet	216	125	1	stimuli\bullet\bullet_12n.jpg	11	-1	1	0	bullet_12n.jpg	0	0	0	166.920172402635	166.970181130804	0.0500087281689048
119621	50	435	0	0	door	506	126	1	stimuli\door\door_08s.jpg	7	-1	1	0	door_08s.jpg	0	0	0	167.0202025373	167.07018322777	0.0499806904699653
119721	50	436	0	0	sweatsuit	1593	127	1	stimuli\sweatsuit\sweatsuit_10s.jpg	9	-1	1	0	sweatsuit_10s.jpg	0	0	0	167.120209022658	167.170189469121	0.0499804464634508
119821	50	437	0	0	spool	1518	128	1	stimuli\spool\spool_01b.jpg	0	-1	1	0	spool_01b.jpg	0	0	0	167.220209412742	167.270176693564	0.0499672808218747
119921	50	438	0	0	cabinet	233	129	1	stimuli\cabinet\cabinet_07s.jpg	6	-1	1	0	cabinet_07s.jpg	0	0	0	167.320214678999	167.370194150368	0.0499794713687152
120021	50	439	0	0	pinecone	1183	130	1	stimuli\pinecone\pinecone_09s.jpg	8	-1	1	0	pinecone_09s.jpg	0	0	0	167.420212874888	167.470177961281	0.0499650863930583
120121	50	440	0	0	chimney	329	131	1	stimuli\chimney\chimney_11s.jpg	10	-1	1	0	chimney_11s.jpg	0	0	0	167.520216434496	167.570181521121	0.0499650866258889
120221	50	441	0	0	aloe	14	132	1	stimuli\aloe\aloe_12n.jpg	11	-1	1	0	aloe_12n.jpg	0	0	0	167.620226333151	167.67019995302	0.0499736198689789
120321	50	442	0	0	meat	987	133	1	stimuli\meat\meat_11s.jpg	10	-1	1	0	meat_11s.jpg	0	0	0	167.72022282239	167.7702025373	0.0499797149095684
120421	50	443	0	0	sail	1346	134	1	stimuli\sail\sail_07s.jpg	6	-1	1	0	sail_07s.jpg	0	0	0	167.820195418084	167.870191468392	0.0499960503075272
120521	50	444	0	0	hose	800	135	1	stimuli\hose\hose_12s.jpg	11	-1	1	0	hose_12s.jpg	0	0	0	167.920209705364	167.970194296679	0.0499845913145691
120621	50	445	0	0	shirt	1422	136	1	stimuli\shirt\shirt_12s.jpg	11	-1	1	0	shirt_12s.jpg	0	0	0	168.020213264972	168.070210778154	0.0499975131824613
120721	50	446	0	0	puck	1245	137	1	stimuli\puck\puck_04s.jpg	3	-1	1	0	puck_04s.jpg	0	0	0	168.12017293903	168.170214093989	0.0500411549583077
120822	50	447	0	0	stove2	1564	138	1	stimuli\stove2\stove2_09s.jpg	8	-1	1	0	stove2_09s.jpg	0	0	0	168.220243302407	168.270194491604	0.0499511891975999
120922	50	448	0	0	exerciser	561	139	1	stimuli\exerciser\exerciser_01b.jpg	0	-1	1	0	exerciser_01b.jpg	0	0	0	168.320236378117	168.37021438661	0.0499780084937811
121022	50	449	0	0	trombone	1716	140	1	stimuli\trombone\trombone_04s.jpg	3	-1	1	0	trombone_04s.jpg	0	0	0	168.420236524427	168.470210631844	0.0499741074163467
121121	50	450	0	0	harness	754	141	1	stimuli\harness\harness_12s.jpg	11	-1	1	0	harness_12s.jpg	0	0	0	168.520226430614	168.570207852405	0.0499814217910171
121222	50	451	0	0	cake_mix	238	142	1	stimuli\cake_mix\cake_mix_01b.jpg	0	-1	1	0	cake_mix_01b.jpg	0	0	0	168.620238279924	168.670211655786	0.0499733758624643
121321	50	452	0	0	snowman	1482	143	1	stimuli\snowman\snowman_01b.jpg	0	-1	1	0	snowman_01b.jpg	0	0	0	168.720219409093	168.770205706824	0.0499862977303565
121421	50	453	0	0	tinsel	1662	144	1	stimuli\tinsel\tinsel_01b.jpg	0	-1	1	0	tinsel_01b.jpg	0	0	0	168.820222724695	168.870206340915	0.0499836162198335
121521	50	454	0	0	bacon	51	145	1	stimuli\bacon\bacon_10s.jpg	9	-1	1	0	bacon_10s.jpg	0	0	0	168.920225796755	168.97021038807	0.0499845913145691
121621	50	455	0	0	plastic_film	1196	146	1	stimuli\plastic_film\plastic_film_07s.jpg	6	-1	1	0	plastic_film_07s.jpg	0	0	0	169.020225943066	169.070207852405	0.0499819093383849
121721	50	456	0	0	nose	1063	147	1	stimuli\nose\nose_01b.jpg	0	-1	1	0	nose_01b.jpg	0	0	0	169.120228527579	169.170210192911	0.0499816653318703
121822	50	457	0	0	dip	487	148	1	stimuli\dip\dip_04s.jpg	3	-1	1	0	dip_04s.jpg	0	0	0	169.220238426235	169.270221798215	0.0499833719804883
121922	50	458	0	0	awning	44	149	1	stimuli\awning\awning_10s.jpg	9	-1	1	0	awning_10s.jpg	0	0	0	169.320239060093	169.370225114049	0.0499860539566725
122022	50	459	0	0	banjo	68	150	1	stimuli\banjo\banjo_12s.jpg	11	-1	1	0	banjo_12s.jpg	0	0	0	169.420250665396	169.470260368893	0.050009703496471
122122	50	460	0	0	swimming_pool	1596	151	1	stimuli\swimming_pool\swimming_pool_05s.jpg	4	-1	1	0	swimming_pool_05s.jpg	0	0	0	169.520254956326	169.570253932383	0.0499989760573953
122222	50	461	0	0	fuse	652	152	1	stimuli\fuse\fuse_09s.jpg	8	-1	1	0	fuse_09s.jpg	0	0	0	169.620277045527	169.670255297795	0.049978252267465
122322	50	462	0	0	amplifier	20	153	1	stimuli\amplifier\amplifier_07s.jpg	6	-1	1	0	amplifier_07s.jpg	0	0	0	169.720278898487	169.770258369856	0.0499794713687152
122422	50	463	0	0	anvil	28	154	1	stimuli\anvil\anvil_08n.jpg	7	-1	1	0	anvil_08n.jpg	0	0	0	169.820253444836	169.870246569393	0.049993124557659
122522	50	464	0	0	axe	45	155	1	stimuli\axe\axe_09n.jpg	8	-1	1	0	axe_09n.jpg	0	0	0	169.920263343491	169.970247447025	0.0499841035343707
122622	50	465	0	0	pendulum	1144	156	1	stimuli\pendulum\pendulum_03s.jpg	2	-1	1	0	pendulum_03s.jpg	0	0	0	170.020265683997	170.070250031538	0.0499843475408852
122722	50	466	0	0	tennis_ball	1642	157	1	stimuli\tennis_ball\tennis_ball_12s.jpg	11	-1	1	0	tennis_ball_12s.jpg	0	0	0	170.120271925582	170.170250421623	0.0499784960411489
122822	50	467	0	0	wok	1830	158	1	stimuli\wok\wok_02s.jpg	1	-1	1	0	wok_02s.jpg	0	0	0	170.220268658595	170.270250567934	0.0499819093383849
122922	50	468	0	0	container	398	159	1	stimuli\container\container_06s.jpg	5	-1	1	0	container_06s.jpg	0	0	0	170.320266366703	170.370275095105	0.0500087284017354
123022	50	469	0	0	light_switch	926	160	1	stimuli\light_switch\light_switch_03s.jpg	2	-1	1	0	light_switch_03s.jpg	0	0	0	170.420273827156	170.470260125119	0.0499862979631871
123122	50	470	0	0	clove	365	161	1	stimuli\clove\clove_07s.jpg	6	-1	1	0	clove_07s.jpg	0	0	0	170.520279824967	170.570261246758	0.0499814217910171
123222	50	471	0	0	cardigan	273	162	1	stimuli\cardigan\cardigan_11s.jpg	10	-1	1	0	cardigan_11s.jpg	0	0	0	170.620283872122	170.67026578146	0.0499819093383849
123322	50	472	0	0	cereal	297	163	1	stimuli\cereal\cereal_02s.jpg	1	-1	1	0	cereal_02s.jpg	0	0	0	170.720270365244	170.770256906981	0.049986541736871
123422	50	473	0	0	tank2	1621	164	1	stimuli\tank2\tank2_01b.jpg	0	-1	1	0	tank2_01b.jpg	0	0	0	170.820285383845	170.870269975159	0.0499845913145691
123522	50	474	0	0	candle	253	165	1	stimuli\candle\candle_04n.jpg	3	-1	1	0	candle_04n.jpg	0	0	0	170.920287724352	170.970271584112	0.0499838597606868
123622	50	475	0	0	monkey	1017	166	1	stimuli\monkey\monkey_12s.jpg	11	-1	1	0	monkey_12s.jpg	0	0	0	171.020295916358	171.070267829578	0.0499719132203609
123722	50	476	0	0	straw2	1569	167	1	stimuli\straw2\straw2_09s.jpg	8	-1	1	0	straw2_09s.jpg	0	0	0	171.120314592263	171.17029820825	0.0499836159870028
123822	50	477	0	0	thread	1651	168	1	stimuli\thread\thread_05s.jpg	4	-1	1	0	thread_05s.jpg	0	0	0	171.220320833614	171.270280800294	0.049959966680035
123922	50	478	0	0	combination_lock	390	169	1	stimuli\combination_lock\combination_lock_01b.jpg	0	-1	1	0	combination_lock_01b.jpg	0	0	0	171.320319761056	171.370299963746	0.0499802026897669
124022	50	479	0	0	sausage	1365	170	1	stimuli\sausage\sausage_06s.jpg	5	-1	1	0	sausage_06s.jpg	0	0	0	171.420325027313	171.470303523354	0.0499784960411489
124122	50	480	0	0	appetizer	29	171	1	stimuli\appetizer\appetizer_04s.jpg	3	-1	1	0	appetizer_04s.jpg	0	0	0	171.520324198296	171.570306838956	0.0499826406594366
124222	50	481	0	0	orchid	1081	172	1	stimuli\orchid\orchid_11s.jpg	10	-1	1	0	orchid_11s.jpg	0	0	0	171.620327026583	171.670307960594	0.0499809340108186
124322	50	482	0	0	blouse	144	173	1	stimuli\blouse\blouse_03s.jpg	2	-1	1	0	blouse_03s.jpg	0	0	0	171.720312544145	171.770297623007	0.0499850788619369
124422	50	483	0	0	tongs	1674	174	1	stimuli\tongs\tongs_10s.jpg	9	-1	1	0	tongs_10s.jpg	0	0	0	171.820318785729	171.870315323584	0.049996537854895
124522	50	484	0	0	lettuce	920	175	1	stimuli\lettuce\lettuce_01b.jpg	0	-1	1	0	lettuce_01b.jpg	0	0	0	171.920335267205	171.970286456635	0.0499511894304305
124622	50	485	0	0	eye_patch	565	176	1	stimuli\eye_patch\eye_patch_04s.jpg	3	-1	1	0	eye_patch_04s.jpg	0	0	0	172.020304205827	172.070290503791	0.0499862979631871
124722	50	486	0	0	shoelace	1426	177	1	stimuli\shoelace\shoelace_01b.jpg	0	-1	1	0	shoelace_01b.jpg	0	0	0	172.120307034114	172.170292600524	0.0499855664093047
124822	50	487	0	0	polygraph	1217	178	1	stimuli\polygraph\polygraph_04s.jpg	3	-1	1	0	polygraph_04s.jpg	0	0	0	172.22030815552	172.270305668702	0.0499975131824613
124922	50	488	0	0	marshmallow	977	179	1	stimuli\marshmallow\marshmallow_01b.jpg	0	-1	1	0	marshmallow_01b.jpg	0	0	0	172.320323174354	172.370305083692	0.0499819093383849
125022	50	489	0	0	gazelle	666	180	1	stimuli\gazelle\gazelle_04s.jpg	3	-1	1	0	gazelle_04s.jpg	0	0	0	172.420323564438	172.470295965206	0.0499724007677287
125122	50	490	0	0	cougar	423	181	1	stimuli\cougar\cougar_08s.jpg	7	-1	1	0	cougar_08s.jpg	0	0	0	172.520313470624	172.57029879326	0.0499853226356208
125222	50	491	0	0	toilet	1670	182	1	stimuli\toilet\toilet_12s.jpg	11	-1	1	0	toilet_12s.jpg	0	0	0	172.620320199756	172.670299914898	0.0499797151423991
125322	50	492	0	0	crown	448	183	1	stimuli\crown\crown_01b.jpg	0	-1	1	0	crown_01b.jpg	0	0	0	172.720333511708	172.770337607712	0.0500040960032493
125422	50	493	0	0	hanger	751	184	1	stimuli\hanger\hanger_02s.jpg	1	-1	1	0	hanger_02s.jpg	0	0	0	172.820359014207	172.870325563708	0.049966549500823
125522	50	494	0	0	coin	385	185	1	stimuli\coin\coin_03s.jpg	2	-1	1	0	coin_03s.jpg	0	0	0	172.920361598721	172.970331561286	0.0499699625652283
125622	50	495	0	0	guinea_pig	722	186	1	stimuli\guinea_pig\guinea_pig_08s.jpg	7	-1	1	0	guinea_pig_08s.jpg	0	0	0	173.020346628735	173.070344385691	0.0499977569561452
125722	50	496	0	0	boot	169	187	1	stimuli\boot\boot_03s.jpg	2	-1	1	0	boot_03s.jpg	0	0	0	173.120368230389	173.170348432846	0.0499802024569362
125822	50	497	0	0	stair	1532	188	1	stimuli\stair\stair_04s.jpg	3	-1	1	0	stair_04s.jpg	0	0	0	173.220370327123	173.270351261133	0.0499809340108186
125922	50	498	0	0	goose	693	189	1	stimuli\goose\goose_02s.jpg	1	-1	1	0	goose_02s.jpg	0	0	0	173.320358039113	173.370356039843	0.0499980007298291
126022	50	499	0	0	guacamole	719	190	1	stimuli\guacamole\guacamole_03s.jpg	2	-1	1	0	guacamole_03s.jpg	0	0	0	173.420371107291	173.470350578427	0.0499794711358845
126122	50	500	0	0	slot_machine	1470	191	1	stimuli\slot_machine\slot_machine_11s.jpg	10	-1	1	0	slot_machine_11s.jpg	0	0	0	173.520371009596	173.570351456292	0.0499804466962814
126222	50	501	0	0	piecrust	1169	192	1	stimuli\piecrust\piecrust_07s.jpg	6	-1	1	0	piecrust_07s.jpg	0	0	0	173.620365060866	173.6703550159	0.049989955034107
126322	50	502	0	0	can	250	193	1	stimuli\can\can_05s.jpg	4	-1	1	0	can_05s.jpg	0	0	0	173.720348628005	173.770331756445	0.049983128439635
126422	50	503	0	0	paddle	1094	194	1	stimuli\paddle\paddle_06s.jpg	5	-1	1	0	paddle_06s.jpg	0	0	0	173.820349749411	173.870336535154	0.0499867857433856
126522	50	504	0	0	pocketknife	1207	195	1	stimuli\pocketknife\pocketknife_12s.jpg	11	-1	1	0	pocketknife_12s.jpg	0	0	0	173.9203550159	173.970367645146	0.0500126292463392
126622	50	505	0	0	dagger	469	196	1	stimuli\dagger\dagger_05s.jpg	4	-1	1	0	dagger_05s.jpg	0	0	0	174.02038417547	174.070363402832	0.0499792273622006
126722	50	506	0	0	ball	59	197	1	stimuli\ball\ball_10s.jpg	9	-1	1	0	ball_10s.jpg	0	0	0	174.120400656946	174.170378665207	0.0499780082609504
126822	50	507	0	0	cookie_cutter	401	198	1	stimuli\cookie_cutter\cookie_cutter_06s.jpg	5	-1	1	0	cookie_cutter_06s.jpg	0	0	0	174.220394220436	174.270359063055	0.0499648426193744
126922	50	508	0	0	dustpan	535	199	1	stimuli\dustpan\dustpan_06s.jpg	5	-1	1	0	dustpan_06s.jpg	0	0	0	174.320375105599	174.370362135116	0.0499870295170695
127022	50	509	0	0	octopus	1070	200	1	stimuli\octopus\octopus_08n.jpg	7	-1	1	0	octopus_08n.jpg	0	0	0	174.420385248261	174.470357892802	0.0499726445414126
127122	50	510	0	0	knitting_needle	881	201	1	stimuli\knitting_needle\knitting_needle_10s.jpg	9	-1	1	0	knitting_needle_10s.jpg	0	0	0	174.520376129774	174.570362427505	0.0499862977303565
127222	50	511	0	0	quiche	1262	202	1	stimuli\quiche\quiche_02s.jpg	1	-1	1	0	quiche_02s.jpg	0	0	0	174.620377494954	174.670370375738	0.0499928807839751
127322	50	512	0	0	puddle	1247	203	1	stimuli\puddle\puddle_04s.jpg	3	-1	1	0	puddle_04s.jpg	0	0	0	174.720407629851	174.770391489612	0.0499838597606868
127422	50	513	0	0	magnet	956	204	1	stimuli\magnet\magnet_09s.jpg	8	-1	1	0	magnet_09s.jpg	0	0	0	174.820387296146	174.870371155906	0.0499838597606868
127522	50	514	0	0	handlebar	749	205	1	stimuli\handlebar\handlebar_07s.jpg	6	-1	1	0	handlebar_07s.jpg	0	0	0	174.920392806176	174.970372765092	0.049979958916083
127622	50	515	0	0	wineglass	1826	206	1	stimuli\wineglass\wineglass_12s.jpg	11	-1	1	0	wineglass_12s.jpg	0	0	0	175.020394171588	175.070378519129	0.0499843475408852
127722	50	516	0	0	lantern	895	207	1	stimuli\lantern\lantern_12s.jpg	11	-1	1	0	lantern_12s.jpg	0	0	0	175.120397731196	175.170381103409	0.0499833722133189
127822	50	517	0	0	rolling_pin	1328	208	1	stimuli\rolling_pin\rolling_pin_12s.jpg	11	-1	1	0	rolling_pin_12s.jpg	0	0	0	175.220397877507	175.270382468821	0.0499845913145691
127922	50	518	0	0	guillotine	721	209	1	stimuli\guillotine\guillotine_07s.jpg	6	-1	1	0	guillotine_07s.jpg	0	0	0	175.320401924662	175.370388710173	0.0499867855105549
128022	50	519	0	0	trough	1718	210	1	stimuli\trough\trough_11s.jpg	10	-1	1	0	trough_11s.jpg	0	0	0	175.420403777622	175.470388125163	0.0499843475408852
128122	50	520	0	0	olive	1075	211	1	stimuli\olive\olive_02s.jpg	1	-1	1	0	olive_02s.jpg	0	0	0	175.520406118361	175.570390465669	0.0499843473080546
128222	50	521	0	0	pants	1108	212	1	stimuli\pants\pants_07s.jpg	6	-1	1	0	pants_07s.jpg	0	0	0	175.620410896838	175.670389636653	0.0499787398148328
128322	50	522	0	0	chili	327	213	1	stimuli\chili\chili_11s.jpg	10	-1	1	0	chili_11s.jpg	0	0	0	175.720406654757	175.770395146916	0.0499884921591729
128422	50	523	0	0	crystal1	453	214	1	stimuli\crystal1\crystal1_10s.jpg	9	-1	1	0	crystal1_10s.jpg	0	0	0	175.820438008523	175.870404801797	0.0499667932745069
128522	50	524	0	0	jackhammer	837	215	1	stimuli\jackhammer\jackhammer_08s.jpg	7	-1	1	0	jackhammer_08s.jpg	0	0	0	175.920442787232	175.970422258368	0.0499794711358845
128622	50	525	0	0	trunk	1722	216	1	stimuli\trunk\trunk_11s.jpg	10	-1	1	0	trunk_11s.jpg	0	0	0	176.020440007793	176.070423136232	0.049983128439635
128722	50	526	0	0	noisemaker	1060	217	1	stimuli\noisemaker\noisemaker_06s.jpg	5	-1	1	0	noisemaker_06s.jpg	0	0	0	176.120444298722	176.170415968169	0.049971669446677
128822	50	527	0	0	remote_control	1302	218	1	stimuli\remote_control\remote_control_02s.jpg	1	-1	1	0	remote_control_02s.jpg	0	0	0	176.220424940344	176.270410019206	0.0499850788619369
128922	50	528	0	0	medal	991	219	1	stimuli\medal\medal_08s.jpg	7	-1	1	0	medal_08s.jpg	0	0	0	176.320429231506	176.370413822588	0.0499845910817385
129022	50	529	0	0	shutter	1440	220	1	stimuli\shutter\shutter_12s.jpg	11	-1	1	0	shutter_12s.jpg	0	0	0	176.420430352911	176.470415675547	0.0499853226356208
129122	50	530	0	0	peanut_butter	1132	221	1	stimuli\peanut_butter\peanut_butter_06s.jpg	5	-1	1	0	peanut_butter_06s.jpg	0	0	0	176.520432205871	176.570416065631	0.0499838597606868
129222	50	531	0	0	tumbleweed	1727	222	1	stimuli\tumbleweed\tumbleweed_03s.jpg	2	-1	1	0	tumbleweed_03s.jpg	0	0	0	176.620438691229	176.670416455716	0.0499777644872665
129322	50	532	0	0	cornbread	413	223	1	stimuli\cornbread\cornbread_08s.jpg	7	-1	1	0	cornbread_08s.jpg	0	0	0	176.720432498492	176.7704168458	0.0499843473080546
129422	50	533	0	0	canister	259	224	1	stimuli\canister\canister_02s.jpg	1	-1	1	0	canister_02s.jpg	0	0	0	176.820436545648	176.87041918654	0.0499826408922672
129522	50	534	0	0	gravestone	710	225	1	stimuli\gravestone\gravestone_05s.jpg	4	-1	1	0	gravestone_05s.jpg	0	0	0	176.920448638732	176.970428353641	0.0499797149095684
129622	50	535	0	0	mold2	1013	226	1	stimuli\mold2\mold2_08s.jpg	7	-1	1	0	mold2_08s.jpg	0	0	0	177.020466583082	177.070449223742	0.0499826406594366
129722	50	536	0	0	batter	96	227	1	stimuli\batter\batter_12s.jpg	11	-1	1	1	batter_12s.jpg	0	0	0	177.120472093113	177.170454002451	0.0499819093383849
129822	50	537	0	0	alligator	12	228	1	stimuli\alligator\alligator_07s.jpg	6	-1	1	0	alligator_07s.jpg	0	0	0	177.220456635579	177.270458537387	0.0500019018072635
129922	50	538	0	0	wedding_cake	1800	229	1	stimuli\wedding_cake\wedding_cake_07s.jpg	6	-1	1	0	wedding_cake_07s.jpg	0	0	0	177.320453124819	177.370437228354	0.0499841035343707
130022	50	539	0	0	crystal_ball	455	230	1	stimuli\crystal_ball\crystal_ball_11s.jpg	10	-1	1	0	crystal_ball_11s.jpg	1	0.307492458960041	1	177.420455221552	177.470462487079	0.0500072655268013
130122	50	540	0	0	tuxedo	1738	231	1	stimuli\tuxedo\tuxedo_01b.jpg	0	-1	1	0	tuxedo_01b.jpg	0	0	0	177.520479261177	177.570444591343	0.0499653301667422
130222	50	541	0	0	brussels_sprouts	206	232	1	stimuli\brussels_sprouts\brussels_sprouts_03s.jpg	2	-1	1	0	brussels_sprouts_03s.jpg	0	0	0	177.620465510292	177.670474238694	0.0500087284017354
130322	50	542	0	0	cloud	364	233	1	stimuli\cloud\cloud_03s.jpg	2	-1	1	0	cloud_03s.jpg	0	0	0	177.720470289001	177.770466583082	0.0499962940812111
130422	50	543	0	0	paperweight	1117	234	1	stimuli\paperweight\paperweight_11s.jpg	10	-1	1	0	paperweight_11s.jpg	0	0	0	177.82047165418	177.870456245495	0.0499845913145691
130522	50	544	0	0	snack	1475	235	1	stimuli\snack\snack_09s.jpg	8	-1	1	0	snack_09s.jpg	0	0	0	177.920468630968	177.970452003181	0.0499833722133189
130622	50	545	0	0	mannequin	968	236	1	stimuli\mannequin\mannequin_11s.jpg	10	-1	1	0	mannequin_11s.jpg	0	0	0	178.020471946802	178.070455562789	0.0499836159870028
130722	50	546	0	0	shower_curtain	1435	237	1	stimuli\shower_curtain\shower_curtain_02s.jpg	1	-1	1	0	shower_curtain_02s.jpg	0	0	0	178.120480382582	178.170458147302	0.0499777647200972
130822	50	547	0	0	sandbag	1353	238	1	stimuli\sandbag\sandbag_06s.jpg	5	-1	1	0	sandbag_06s.jpg	0	0	0	178.220475652721	178.27046121913	0.0499855664093047
130922	50	548	0	0	ink	829	239	1	stimuli\ink\ink_05s.jpg	4	-1	1	0	ink_05s.jpg	0	0	0	178.320504568517	178.370462340768	0.0499577722512186
131022	50	549	0	0	leech	909	240	1	stimuli\leech\leech_04s.jpg	3	-1	1	0	leech_04s.jpg	0	0	0	178.420483503491	178.470469801221	0.0499862977303565
131122	50	550	0	0	slingshot	1467	241	1	stimuli\slingshot\slingshot_08s.jpg	7	-1	1	0	slingshot_08s.jpg	0	0	0	178.520487063099	178.57045970764	0.0499726445414126
131222	50	551	0	0	bottle_opener	171	242	1	stimuli\bottle_opener\bottle_opener_08s.jpg	7	-1	1	0	bottle_opener_08s.jpg	0	0	0	178.620473799761	178.670458878623	0.0499850788619369
131322	50	552	0	0	lemon	914	243	1	stimuli\lemon\lemon_07s.jpg	6	-1	1	0	lemon_07s.jpg	0	0	0	178.72047443362	178.770488525741	0.0500140921212733
131422	50	553	0	0	boxer_shorts	182	244	1	stimuli\boxer_shorts\boxer_shorts_04s.jpg	3	-1	1	0	boxer_shorts_04s.jpg	0	0	0	178.820495059947	178.870471605565	0.049976545618847
131522	50	554	0	0	bat2	88	245	1	stimuli\bat2\bat2_05s.jpg	4	-1	1	0	bat2_05s.jpg	0	0	0	178.920483991038	178.970468826126	0.049984835088253
131622	50	555	0	0	sundae	1582	246	1	stimuli\sundae\sundae_02s.jpg	1	-1	1	0	sundae_02s.jpg	0	0	0	179.020485112444	179.070485307602	0.0500001951586455
131722	50	556	0	0	sticker	1553	247	1	stimuli\sticker\sticker_12s.jpg	11	-1	1	0	sticker_12s.jpg	0	0	0	179.120489159832	179.170482528163	0.0499933683313429
131822	50	557	0	0	key	869	248	1	stimuli\key\key_09s.jpg	8	-1	1	0	key_09s.jpg	0	0	0	179.220486624166	179.270482186694	0.0499955625273287
131922	50	558	0	0	noose	1062	249	1	stimuli\noose\noose_11s.jpg	10	-1	1	0	noose_11s.jpg	0	0	0	179.320491159102	179.370478675934	0.0499875168316066
132022	50	559	0	0	cup	460	250	1	stimuli\cup\cup_02s.jpg	1	-1	1	0	cup_02s.jpg	0	0	0	179.420496181352	179.470482723089	0.049986541736871
132122	50	560	0	0	goalpost	683	251	1	stimuli\goalpost\goalpost_05s.jpg	4	-1	1	0	goalpost_05s.jpg	0	0	0	179.520493158139	179.570499448571	0.0500062904320657
132222	50	561	0	0	racket	1270	252	1	stimuli\racket\racket_08s.jpg	7	-1	1	0	racket_08s.jpg	0	0	0	179.620505738771	179.670480821515	0.0499750827439129
132322	50	562	0	0	flashlight	611	253	1	stimuli\flashlight\flashlight_08s.jpg	7	-1	1	0	flashlight_08s.jpg	0	0	0	179.720497839386	179.77048486867	0.0499870292842388
132422	50	563	0	0	taco	1613	254	1	stimuli\taco\taco_06n.jpg	5	-1	1	0	taco_06n.jpg	0	0	0	179.820506031392	179.870488672052	0.0499826406594366
132522	50	564	0	0	pie	1168	255	1	stimuli\pie\pie_07s.jpg	6	-1	1	0	pie_07s.jpg	0	0	0	179.92052153754	179.97050222801	0.0499806904699653
132622	50	565	0	0	stroller	1574	256	1	stimuli\stroller\stroller_07s.jpg	6	-1	1	0	stroller_07s.jpg	0	0	0	180.020518514328	180.0704828694	0.0499643550720066
132722	50	566	0	0	cement_mixer	294	257	1	stimuli\cement_mixer\cement_mixer_12s.jpg	11	-1	1	0	cement_mixer_12s.jpg	0	0	0	180.12054352928	180.170523488196	0.049979958916083
132822	50	567	0	0	torso	1685	258	1	stimuli\torso\torso_02s.jpg	1	-1	1	0	torso_02s.jpg	0	0	0	180.220530509949	180.270509493537	0.0499789835885167
132922	50	568	0	0	jar	840	259	1	stimuli\jar\jar_11s.jpg	10	-1	1	0	jar_11s.jpg	0	0	0	180.320547235198	180.370528900763	0.049981665564701
133022	50	569	0	0	wrench	1841	260	1	stimuli\wrench\wrench_05s.jpg	4	-1	1	0	wrench_05s.jpg	0	0	0	180.420536653837	180.470518806949	0.0499821531120688
133122	50	570	0	0	scalpel	1374	261	1	stimuli\scalpel\scalpel_04s.jpg	3	-1	1	0	scalpel_04s.jpg	0	0	0	180.520538263023	180.570521147456	0.0499828844331205
133222	50	571	0	0	prune	1244	262	1	stimuli\prune\prune_06s.jpg	5	-1	1	0	prune_06s.jpg	0	0	0	180.620565959718	180.670534703415	0.0499687436968088
133322	50	572	0	0	radio	1273	263	1	stimuli\radio\radio_02s.jpg	1	-1	1	0	radio_02s.jpg	0	0	0	180.720530753722	180.770515832584	0.0499850788619369
133422	50	573	0	0	lasagna	898	264	1	stimuli\lasagna\lasagna_02s.jpg	1	-1	1	0	lasagna_02s.jpg	0	0	0	180.820536507526	180.870515734889	0.0499792273622006
133522	50	574	0	0	tarantula	1626	265	1	stimuli\tarantula\tarantula_04s.jpg	3	-1	1	0	tarantula_04s.jpg	0	0	0	180.920540310908	180.970517587848	0.0499772769398987
133622	50	575	0	0	altar	16	266	1	stimuli\altar\altar_05s.jpg	4	-1	1	0	altar_05s.jpg	0	0	0	181.020536068594	181.070534800878	0.0499987322837114
133722	50	576	0	0	hook2	794	267	1	stimuli\hook2\hook2_03s.jpg	2	-1	1	0	hook2_03s.jpg	0	0	0	181.120552306296	181.170560059603	0.0500077533069998
133822	50	577	0	0	suspenders	1589	268	1	stimuli\suspenders\suspenders_01b.jpg	0	-1	1	0	suspenders_01b.jpg	0	0	0	181.220558791654	181.270552403992	0.0499936123378575
133922	50	578	0	0	beetle	115	269	1	stimuli\beetle\beetle_07n.jpg	6	-1	1	0	beetle_07n.jpg	0	0	0	181.320553330472	181.370528412983	0.0499750825110823
134022	50	579	0	0	jersey	846	270	1	stimuli\jersey\jersey_03s.jpg	2	-1	1	0	jersey_03s.jpg	0	0	0	181.420551526127	181.470531485043	0.049979958916083
134122	50	580	0	0	crab	428	271	1	stimuli\crab\crab_08s.jpg	7	-1	1	0	crab_08s.jpg	0	0	0	181.520560693461	181.570543821901	0.049983128439635
134222	50	581	0	0	candy_bar	256	272	1	stimuli\candy_bar\candy_bar_02s.jpg	1	-1	1	0	candy_bar_02s.jpg	0	0	0	181.620554256951	181.670536897611	0.0499826406594366
134322	50	582	0	0	washcloth	1783	273	1	stimuli\washcloth\washcloth_06s.jpg	5	-1	1	0	washcloth_06s.jpg	0	0	0	181.720555134583	181.770536800148	0.049981665564701
134422	50	583	0	0	stem	1547	274	1	stimuli\stem\stem_04s.jpg	3	-1	1	0	stem_04s.jpg	0	0	0	181.820576248458	181.870551818749	0.0499755702912807
134522	50	584	0	0	maple_syrup	971	275	1	stimuli\maple_syrup\maple_syrup_10s.jpg	9	-1	1	0	maple_syrup_10s.jpg	0	0	0	181.920572737698	181.970554647036	0.0499819093383849
134622	50	585	0	0	hubcap	809	276	1	stimuli\hubcap\hubcap_11s.jpg	10	-1	1	0	hubcap_11s.jpg	0	0	0	182.020574834431	182.070559425745	0.0499845913145691
134722	50	586	0	0	swimsuit	1597	277	1	stimuli\swimsuit\swimsuit_12s.jpg	11	-1	1	0	swimsuit_12s.jpg	0	0	0	182.120577906491	182.170575175667	0.0499972691759467
134822	50	587	0	0	wine_bottle	1824	278	1	stimuli\wine_bottle\wine_bottle_09s.jpg	8	-1	1	0	wine_bottle_09s.jpg	0	0	0	182.22057927167	182.270563862985	0.0499845913145691
134922	50	588	0	0	gingerbread_man	674	279	1	stimuli\gingerbread_man\gingerbread_man_03s.jpg	2	-1	1	0	gingerbread_man_03s.jpg	0	0	0	182.320587463677	182.370589365484	0.0500019018072635
135022	50	589	0	0	flyswatter	623	280	1	stimuli\flyswatter\flyswatter_02s.jpg	1	-1	1	0	flyswatter_02s.jpg	0	0	0	182.420601019636	182.470556841232	0.049955821596086
135122	50	590	0	0	granola	701	281	1	stimuli\granola\granola_01b.jpg	0	-1	1	0	granola_01b.jpg	0	0	0	182.520578735275	182.570562595269	0.0499838599935174
135222	50	591	0	0	nest	1056	282	1	stimuli\nest\nest_02s.jpg	1	-1	1	0	nest_02s.jpg	0	0	0	182.620578150265	182.670560059603	0.0499819093383849
135322	50	592	0	0	antelope	26	283	1	stimuli\antelope\antelope_08n.jpg	7	-1	1	0	antelope_08n.jpg	0	0	0	182.720576345921	182.770558743039	0.0499823971185833
135422	50	593	0	0	cookie	400	284	1	stimuli\cookie\cookie_07s.jpg	6	-1	1	0	cookie_07s.jpg	0	0	0	182.820579417981	182.870564009296	0.0499845913145691
135522	50	594	0	0	creme_brulee	439	285	1	stimuli\creme_brulee\creme_brulee_01b.jpg	0	-1	1	0	creme_brulee_01b.jpg	0	0	0	182.920580051839	182.970579027897	0.0499989760573953
135622	50	595	0	0	clay	352	286	1	stimuli\clay\clay_06s.jpg	5	-1	1	0	clay_06s.jpg	0	0	0	183.0205889754	183.070577467559	0.0499884921591729
135722	50	596	0	0	bee	111	287	1	stimuli\bee\bee_08s.jpg	7	-1	1	0	bee_08s.jpg	0	0	0	183.12059984915	183.170582733816	0.0499828846659511
135822	50	597	0	0	skin	1456	288	1	stimuli\skin\skin_03s.jpg	2	-1	1	0	skin_03s.jpg	0	0	0	183.220605115639	183.270590438275	0.0499853226356208
135922	50	598	0	0	hummingbird	811	289	1	stimuli\hummingbird\hummingbird_06s.jpg	5	-1	1	0	hummingbird_06s.jpg	0	0	0	183.320609894115	183.370593997883	0.0499841037672013
136022	50	599	0	0	pistachio	1188	290	1	stimuli\pistachio\pistachio_12s.jpg	11	-1	1	0	pistachio_12s.jpg	0	0	0	183.420605651801	183.470593168866	0.0499875170644373
136122	50	600	0	0	landmine	894	291	1	stimuli\landmine\landmine_11s.jpg	10	-1	1	0	landmine_11s.jpg	0	0	0	183.520614331588	183.570591364754	0.0499770331662148
136222	50	601	0	0	raccoon	1266	292	1	stimuli\raccoon\raccoon_12n.jpg	11	-1	1	0	raccoon_12n.jpg	0	0	0	183.620600824477	183.670586390886	0.0499855664093047
136322	50	602	0	0	bikini	124	293	1	stimuli\bikini\bikini_12s.jpg	11	-1	1	0	bikini_12s.jpg	0	0	0	183.720603652764	183.770586537197	0.0499828844331205
136422	50	603	0	0	peg	1139	294	1	stimuli\peg\peg_03s.jpg	2	-1	1	0	peg_03s.jpg	0	0	0	183.820596728474	183.870620085392	0.0500233569182456
136522	50	604	0	0	ladle	887	295	1	stimuli\ladle\ladle_10s.jpg	9	-1	1	0	ladle_10s.jpg	0	0	0	183.920642467216	183.97062120703	0.0499787398148328
136622	50	605	0	0	denture	478	296	1	stimuli\denture\denture_05s.jpg	4	-1	1	0	denture_05s.jpg	0	0	0	184.020629935432	184.070625985507	0.0499960500746965
136722	50	606	0	0	pickax	1166	297	1	stimuli\pickax\pickax_02s.jpg	1	-1	1	0	pickax_02s.jpg	0	0	0	184.120647879783	184.170630764216	0.0499828844331205
136822	50	607	0	0	cantaloupe	263	298	1	stimuli\cantaloupe\cantaloupe_07s.jpg	6	-1	1	0	cantaloupe_07s.jpg	0	0	0	184.220645100344	184.270631154301	0.0499860539566725
136922	50	608	0	0	stereo	1549	299	1	stimuli\stereo\stereo_11s.jpg	10	-1	1	0	stereo_11s.jpg	0	0	0	184.320655486546	184.37063300726	0.0499775207135826
137022	50	609	0	0	sandcastle	1355	300	1	stimuli\sandcastle\sandcastle_05s.jpg	4	-1	1	0	sandcastle_05s.jpg	0	0	0	184.420653194655	184.470619012602	0.0499658179469407
137122	50	610	0	0	muff	1034	301	1	stimuli\muff\muff_04s.jpg	3	-1	1	0	muff_04s.jpg	0	0	0	184.520638956223	184.570639638929	0.0500006827060133
137222	50	611	0	0	roll	1323	302	1	stimuli\roll\roll_11s.jpg	10	-1	1	0	roll_11s.jpg	0	0	0	184.620661532972	184.670625400497	0.0499638675246388
137322	50	612	0	0	wand	1780	303	1	stimuli\wand\wand_09s.jpg	8	-1	1	0	wand_09s.jpg	0	0	0	184.720661679283	184.770617013332	0.0499553340487182
137422	50	613	0	0	boat	154	304	1	stimuli\boat\boat_04s.jpg	3	-1	1	0	boat_04s.jpg	0	0	0	184.820637200959	184.870632763486	0.0499955625273287
137522	50	614	0	0	dumpling	532	305	1	stimuli\dumpling\dumpling_07s.jpg	6	-1	1	0	dumpling_07s.jpg	0	0	0	184.920648074709	184.970619012602	0.0499709378927946
137622	50	615	0	0	stockings	1559	306	1	stimuli\stockings\stockings_07s.jpg	6	-1	1	0	stockings_07s.jpg	0	0	0	185.020672358107	185.07062257221	0.0499502141028643
137722	50	616	0	0	tile	1660	307	1	stimuli\tile\tile_10s.jpg	9	-1	1	0	tile_10s.jpg	0	0	0	185.120646173134	185.170633689966	0.0499875168316066
137822	50	617	0	0	curry	464	308	1	stimuli\curry\curry_11s.jpg	10	-1	1	0	curry_11s.jpg	0	0	0	185.220643393695	185.270624083932	0.0499806902371347
146289	50	618	0	0	rice	1309	0	2	stimuli\rice\rice_05s.jpg	4	-1	2	0	rice_05s.jpg	0	0	0	193.687535535311	193.737511105603	0.0499755702912807
146389	50	619	0	0	shoehorn	1425	1	2	stimuli\shoehorn\shoehorn_12s.jpg	11	-1	2	0	shoehorn_12s.jpg	0	0	0	193.787540070014	193.837518566055	0.0499784960411489
146489	50	620	0	0	bowler_hat	178	2	2	stimuli\bowler_hat\bowler_hat_01b.jpg	0	-1	2	0	bowler_hat_01b.jpg	0	0	0	193.88753924123	193.937520662788	0.0499814215581864
146589	50	621	0	0	pipe2	1187	3	2	stimuli\pipe2\pipe2_03s.jpg	2	-1	2	0	pipe2_03s.jpg	0	0	0	193.987541337963	194.037524222396	0.0499828844331205
146689	50	622	0	0	souffle	1498	4	2	stimuli\souffle\souffle_02s.jpg	1	-1	2	0	souffle_02s.jpg	0	0	0	194.087546116672	194.137531926855	0.0499858101829886
146789	50	623	0	0	worm	1836	5	2	stimuli\worm\worm_06s.jpg	5	-1	2	0	worm_06s.jpg	0	0	0	194.187546750531	194.237528903643	0.0499821531120688
146889	50	624	0	0	yarn	1846	6	2	stimuli\yarn\yarn_02s.jpg	1	-1	2	0	yarn_02s.jpg	0	0	0	194.287564938655	194.337565865135	0.0500009264796972
146989	50	625	0	0	bread	194	7	2	stimuli\bread\bread_11s.jpg	10	-1	2	0	bread_11s.jpg	0	0	0	194.387588490732	194.437569668517	0.0499811777845025
147089	50	626	0	0	hoe	784	8	2	stimuli\hoe\hoe_06s.jpg	5	-1	2	0	hoe_06s.jpg	0	0	0	194.487585223513	194.537556161406	0.0499709378927946
147189	50	627	0	0	corsage	417	9	2	stimuli\corsage\corsage_01b.jpg	0	-1	2	0	corsage_01b.jpg	0	0	0	194.587561720284	194.637801092584	0.0502393722999841
147289	50	628	0	0	hedge	773	10	2	stimuli\hedge\hedge_12s.jpg	11	-1	2	0	hedge_12s.jpg	0	0	0	194.68757040007	194.737549871206	0.0499794711358845
147389	50	629	0	0	eggbeater	548	11	2	stimuli\eggbeater\eggbeater_08s.jpg	7	-1	2	0	eggbeater_08s.jpg	0	0	0	194.787586393999	194.837554406142	0.0499680121429265
147489	50	630	0	0	whisk	1811	12	2	stimuli\whisk\whisk_12s.jpg	11	-1	2	0	whisk_12s.jpg	0	0	0	194.887574105989	194.937558453297	0.0499843473080546
147589	50	631	0	0	mailbox	960	13	2	stimuli\mailbox\mailbox_09s.jpg	8	-1	2	0	mailbox_09s.jpg	0	0	0	194.987578640692	195.037556161406	0.0499775207135826
147689	50	632	0	0	plum	1203	14	2	stimuli\plum\plum_04s.jpg	3	-1	2	0	plum_04s.jpg	0	0	0	195.087585613597	195.13756240299	0.0499767893925309
147789	50	633	0	0	scale	1371	15	2	stimuli\scale\scale_01b.jpg	0	-1	2	0	scale_01b.jpg	0	0	0	195.187586979009	195.237573033199	0.0499860541895032
147889	50	634	0	0	cannon	260	16	2	stimuli\cannon\cannon_07s.jpg	6	-1	2	0	cannon_07s.jpg	0	0	0	195.287599559641	195.337572204182	0.0499726445414126
147989	50	635	0	0	generator	671	17	2	stimuli\generator\generator_05s.jpg	4	-1	2	0	generator_05s.jpg	0	0	0	195.387589953607	195.43756991229	0.0499799586832523
148089	50	636	0	0	baseball_bat	79	18	2	stimuli\baseball_bat\baseball_bat_09s.jpg	8	-1	2	0	baseball_bat_09s.jpg	0	0	0	195.487585955067	195.537597365212	0.050011410145089
148189	50	637	0	0	washing_machine	1784	19	2	stimuli\washing_machine\washing_machine_04s.jpg	3	-1	2	0	washing_machine_04s.jpg	0	0	0	195.587617065059	195.637598730624	0.049981665564701
148289	50	638	0	0	kimono	873	20	2	stimuli\kimono\kimono_03s.jpg	2	-1	2	0	kimono_03s.jpg	0	0	0	195.687601607526	195.737601315137	0.0499997076112777
148389	50	639	0	0	lumber	949	21	2	stimuli\lumber\lumber_05s.jpg	4	-1	2	0	lumber_05s.jpg	0	0	0	195.787605167134	195.837579030776	0.0499738636426628
148489	50	640	0	0	seatbelt	1399	22	2	stimuli\seatbelt\seatbelt_11s.jpg	10	-1	2	0	seatbelt_11s.jpg	0	0	0	195.887601168826	195.937581371516	0.0499802026897669
148589	50	641	0	0	sling	1466	23	2	stimuli\sling\sling_10s.jpg	9	-1	2	0	sling_10s.jpg	0	0	0	195.987606435083	196.037589563522	0.049983128439635
148689	50	642	0	0	lobster	939	24	2	stimuli\lobster\lobster_04s.jpg	3	-1	2	0	lobster_04s.jpg	0	0	0	196.087612920441	196.137590441154	0.0499775207135826
148789	50	643	0	0	buckle	210	25	2	stimuli\buckle\buckle_12s.jpg	11	-1	2	0	buckle_12s.jpg	0	0	0	196.187610872323	196.23758912459	0.049978252267465
148889	50	644	0	0	coil	384	26	2	stimuli\coil\coil_12s.jpg	11	-1	2	0	coil_12s.jpg	0	0	0	196.287616138579	196.337597072823	0.0499809342436492
148989	50	645	0	0	cart	278	27	2	stimuli\cart\cart_01b.jpg	0	-1	2	0	cart_01b.jpg	0	0	0	196.38761628489	196.437586979009	0.0499706941191107
149089	50	646	0	0	dishwasher	491	28	2	stimuli\dishwasher\dishwasher_07s.jpg	6	-1	2	0	dishwasher_07s.jpg	0	0	0	196.487607410178	196.537594683468	0.0499872732907534
149189	50	647	0	0	backpack	49	29	2	stimuli\backpack\backpack_10s.jpg	9	-1	2	0	backpack_10s.jpg	0	0	0	196.587609506911	196.637591660256	0.0499821533448994
149289	50	648	0	0	skull	1458	30	2	stimuli\skull\skull_06s.jpg	5	-1	2	0	skull_06s.jpg	0	0	0	196.687612091424	196.737591318786	0.0499792273622006
149389	50	649	0	0	thumbtack	1654	31	2	stimuli\thumbtack\thumbtack_04s.jpg	3	-1	2	0	thumbtack_04s.jpg	0	0	0	196.787617357681	196.83759756037	0.0499802026897669
149489	50	650	0	0	quesadilla	1261	32	2	stimuli\quesadilla\quesadilla_11s.jpg	10	-1	2	0	quesadilla_11s.jpg	0	0	0	196.887617747765	196.937603801955	0.0499860541895032
149589	50	651	0	0	bandanna	67	33	2	stimuli\bandanna\bandanna_04s.jpg	3	-1	2	0	bandanna_04s.jpg	0	0	0	196.987622770248	197.037605654914	0.0499828846659511
149689	50	652	0	0	computer	394	34	2	stimuli\computer\computer_10n.jpg	9	-1	2	0	computer_10n.jpg	0	0	0	197.087622185005	197.137599949725	0.0499777647200972
149789	50	653	0	0	chickpea	325	35	2	stimuli\chickpea\chickpea_01b.jpg	0	-1	2	0	chickpea_01b.jpg	0	0	0	197.187622087542	197.237604972208	0.0499828846659511
149889	50	654	0	0	coffee_filter	379	36	2	stimuli\coffee_filter\coffee_filter_11s.jpg	10	-1	2	0	coffee_filter_11s.jpg	0	0	0	197.287658073939	197.337621697458	0.0499636235181242
149989	50	655	0	0	brake	191	37	2	stimuli\brake\brake_05s.jpg	4	-1	2	0	brake_05s.jpg	0	0	0	197.387656269595	197.437662560027	0.0500062904320657
150089	50	656	0	0	sweet_potato	1595	38	2	stimuli\sweet_potato\sweet_potato_08s.jpg	7	-1	2	0	sweet_potato_08s.jpg	0	0	0	197.48765714746	197.537641738541	0.0499845910817385
150189	50	657	0	0	hammer	741	39	2	stimuli\hammer\hammer_07s.jpg	6	-1	2	0	hammer_07s.jpg	0	0	0	197.587663876591	197.637646517251	0.0499826406594366
