onset	duration	eventnumber	blocksequencenumber	isteststim	object	objectnumber	presentationnumber	sequencenumber	stim	stimnumber	teststimnumber	withinsequencenumber	istarget	stimname	response	rt	correct	time_stimon	time_stimoff	stimdur
120227	50	0	0	0	origami	1083	0	0	stimuli\origami\origami_01b.jpg	0	-1	0	0	origami_01b.jpg	1	0	0	196.298646808893	196.348621160141	0.0499743512482382
120327	50	1	0	0	gyroscope	731	1	0	stimuli\gyroscope\gyroscope_05s.jpg	4	-1	0	0	gyroscope_05s.jpg	0	0	0	196.398651587544	196.448629839753	0.0499782522092573
120427	50	2	0	0	playing_card	1199	2	0	stimuli\playing_card\playing_card_12s.jpg	11	-1	0	0	playing_card_12s.jpg	0	0	0	196.498648076667	196.548639738408	0.0499916617409326
120527	50	3	0	0	bagpipe	56	3	0	stimuli\bagpipe\bagpipe_04s.jpg	3	-1	0	0	bagpipe_04s.jpg	0	0	0	196.598688939121	196.648670604685	0.049981665564701
120627	50	4	0	0	tumbleweed	1727	4	0	stimuli\tumbleweed\tumbleweed_03s.jpg	2	-1	0	0	tumbleweed_03s.jpg	0	0	0	196.698669093079	196.74864929571	0.0499802026315592
120727	50	5	0	0	dagger	469	5	0	stimuli\dagger\dagger_05s.jpg	4	-1	0	0	dagger_05s.jpg	0	0	0	196.798670458375	196.849140961829	0.0504705034545623
120827	50	6	0	0	wreck	1840	6	0	stimuli\wreck\wreck_07s.jpg	6	-1	0	0	wreck_07s.jpg	0	0	0	196.898701324651	196.948657634028	0.0499563093762845
120927	50	7	0	0	ballot_box	61	7	0	stimuli\ballot_box\ballot_box_08s.jpg	7	-1	0	0	ballot_box_08s.jpg	0	0	0	196.998656610027	197.048662656511	0.0500060464837588
121027	50	8	0	0	wheel	1806	8	0	stimuli\wheel\wheel_04s.jpg	3	-1	0	0	wheel_04s.jpg	0	0	0	197.098672847729	197.148663046595	0.0499901988659985
121127	50	9	0	0	hopscotch	796	9	0	stimuli\hopscotch\hopscotch_07s.jpg	6	-1	0	0	hopscotch_07s.jpg	0	0	0	197.198685915908	197.24866343668	0.0499775207717903
121227	50	10	0	0	handcuff	746	10	0	stimuli\handcuff\handcuff_11s.jpg	10	-1	0	0	handcuff_11s.jpg	0	0	0	197.298684355512	197.348661388678	0.0499770331662148
121327	50	11	0	0	birthday_cake	132	11	0	stimuli\birthday_cake\birthday_cake_02s.jpg	1	-1	0	0	birthday_cake_02s.jpg	0	0	0	197.398686208471	197.448664216849	0.0499780083773658
121427	50	12	0	0	kettle	868	12	0	stimuli\kettle\kettle_01b.jpg	0	-1	0	0	kettle_01b.jpg	0	0	0	197.498697326169	197.548663631722	0.0499663055525161
121527	50	13	0	0	food_processor	627	13	0	stimuli\food_processor\food_processor_05s.jpg	4	-1	0	0	food_processor_05s.jpg	0	0	0	197.598702592484	197.648662071326	0.0499594788416289
121627	50	14	0	0	grain	698	14	0	stimuli\grain\grain_01b.jpg	0	-1	0	0	grain_01b.jpg	0	0	0	197.698680064466	197.748656366195	0.0499763017287478
121727	50	15	0	0	brass_knuckles	193	15	0	stimuli\brass_knuckles\brass_knuckles_05s.jpg	4	-1	0	0	brass_knuckles_05s.jpg	0	0	0	197.798683380301	197.848662363947	0.0499789836467244
121827	50	16	0	0	plastic_film	1196	16	0	stimuli\plastic_film\plastic_film_02s.jpg	1	-1	0	0	plastic_film_02s.jpg	0	0	0	197.89869084087	197.948666654993	0.0499758141231723
121927	50	17	0	0	nail_clippers	1047	17	0	stimuli\nail_clippers\nail_clippers_04s.jpg	3	-1	0	0	nail_clippers_04s.jpg	0	0	0	197.998690255743	198.048672408855	0.0499821531120688
122027	50	18	0	0	torpedo	1684	18	0	stimuli\torpedo\torpedo_09s.jpg	8	-1	0	0	torpedo_09s.jpg	0	0	0	198.09868430678	198.14867206756	0.0499877607799135
122127	50	19	0	0	chess_piece	317	19	0	stimuli\chess_piece\chess_piece_07s.jpg	6	-1	0	0	chess_piece_07s.jpg	0	0	0	198.198691767349	198.248673676688	0.0499819093383849
122227	50	20	0	0	breakfast	197	20	0	stimuli\breakfast\breakfast_08s.jpg	7	-1	0	0	breakfast_08s.jpg	0	0	0	198.298695326957	198.348668946768	0.0499736198107712
122327	50	21	0	0	exerciser	561	21	0	stimuli\exerciser\exerciser_02s.jpg	1	-1	0	0	exerciser_02s.jpg	0	0	0	198.398694497999	198.448683477822	0.049988979822956
122427	50	22	0	0	gravestone	710	22	0	stimuli\gravestone\gravestone_07s.jpg	6	-1	0	0	gravestone_07s.jpg	0	0	0	198.498706347134	198.548682892695	0.0499765455606394
122527	50	23	0	0	pulley	1250	23	0	stimuli\pulley\pulley_01b.jpg	0	-1	0	0	pulley_01b.jpg	0	0	0	198.59870503057	198.648690109432	0.0499850788619369
122627	50	24	0	0	acorn	3	24	0	stimuli\acorn\acorn_04s.jpg	3	-1	0	0	acorn_04s.jpg	0	0	0	198.69870688353	198.748686354782	0.0499794712522998
122727	50	25	0	0	swab	1590	25	0	stimuli\swab\swab_10s.jpg	9	-1	0	0	swab_10s.jpg	0	0	0	198.798713368829	198.848692596308	0.0499792274786159
122827	50	26	0	0	wooden_leg	1834	26	0	stimuli\wooden_leg\wooden_leg_02s.jpg	1	-1	0	0	wooden_leg_02s.jpg	0	0	0	198.898717903707	198.948691279744	0.0499733760370873
122927	50	27	0	0	starfish	1541	27	0	stimuli\starfish\starfish_08s.jpg	7	-1	0	0	starfish_08s.jpg	0	0	0	198.998716343311	199.048699227918	0.0499828846077435
123027	50	28	0	0	oil	1072	28	0	stimuli\oil\oil_08s.jpg	7	-1	0	0	oil_08s.jpg	0	0	0	199.09871819627	199.148689621827	0.0499714255565777
123127	50	29	0	0	bow3	176	29	0	stimuli\bow3\bow3_02s.jpg	1	-1	0	0	bow3_02s.jpg	0	0	0	199.198723706359	199.248698057607	0.0499743512482382
123227	50	30	0	0	telescope	1640	30	0	stimuli\telescope\telescope_10s.jpg	9	-1	0	0	telescope_10s.jpg	0	0	0	199.298724096443	199.348701129609	0.0499770331662148
123327	50	31	0	0	bin	125	31	0	stimuli\bin\bin_09s.jpg	8	-1	0	0	bin_09s.jpg	0	0	0	199.398723511316	199.448704201612	0.0499806902953424
123427	50	32	0	0	hash	756	32	0	stimuli\hash\hash_11s.jpg	10	-1	0	0	hash_11s.jpg	0	0	0	199.498715611873	199.548734336451	0.0500187245779671
123527	50	33	0	0	drum	522	33	0	stimuli\drum\drum_11n.jpg	10	-1	0	0	drum_11n.jpg	0	0	0	199.598729899153	199.648707176093	0.0499772769398987
123627	50	34	0	0	spinach	1515	34	0	stimuli\spinach\spinach_09s.jpg	8	-1	0	0	spinach_09s.jpg	0	0	0	199.698732727324	199.748710979533	0.0499782522092573
123727	50	35	0	0	peacock	1130	35	0	stimuli\peacock\peacock_02s.jpg	1	-1	0	0	peacock_02s.jpg	0	0	0	199.798736286932	199.848719902919	0.0499836159870028
123827	50	36	0	0	sifter	1443	36	0	stimuli\sifter\sifter_05s.jpg	4	-1	0	0	sifter_05s.jpg	0	0	0	199.898742040852	199.948711759702	0.0499697188497521
123927	50	37	0	0	trophy	1717	37	0	stimuli\trophy\trophy_01b.jpg	0	-1	0	0	trophy_01b.jpg	0	0	0	199.99873804237	200.048719220271	0.0499811779009178
124027	50	38	0	0	bib	122	38	0	stimuli\bib\bib_08s.jpg	7	-1	0	0	bib_08s.jpg	0	0	0	200.098738188681	200.148717659875	0.0499794711940922
124127	50	39	0	0	telephone_pole	1639	39	0	stimuli\telephone_pole\telephone_pole_04s.jpg	3	-1	0	0	telephone_pole_04s.jpg	0	0	0	200.198747843504	200.248730240448	0.0499823969439603
124227	50	40	0	0	hoodie	792	40	0	stimuli\hoodie\hoodie_08s.jpg	7	-1	0	0	hoodie_08s.jpg	0	0	0	200.29874847742	200.348729899153	0.0499814217328094
124327	50	41	0	0	christmas_tree	341	41	0	stimuli\christmas_tree\christmas_tree_01b.jpg	0	-1	0	0	christmas_tree_01b.jpg	0	0	0	200.398756425595	200.448743698769	0.049987273174338
124427	50	42	0	0	pocket	1205	42	0	stimuli\pocket\pocket_04s.jpg	3	-1	0	0	pocket_04s.jpg	0	0	0	200.498761204246	200.54873799358	0.0499767893343233
124527	50	43	0	0	water_filter	1789	43	0	stimuli\water_filter\water_filter_11s.jpg	10	-1	0	0	water_filter_11s.jpg	0	0	0	200.598765007686	200.648747892294	0.0499828846077435
124627	50	44	0	0	retainer	1303	44	0	stimuli\retainer\retainer_05s.jpg	4	-1	0	0	retainer_05s.jpg	0	0	0	200.69876832352	200.748739261413	0.0499709378927946
124727	50	45	0	0	fork	634	45	0	stimuli\fork\fork_08s.jpg	7	-1	0	0	fork_08s.jpg	0	0	0	200.798763105995	200.848742577247	0.0499794712522998
124827	50	46	0	0	firewood	597	46	0	stimuli\firewood\firewood_12s.jpg	11	-1	0	0	firewood_12s.jpg	0	0	0	200.898760082724	200.948738334933	0.0499782522092573
124927	50	47	0	0	hippopotamus	781	47	0	stimuli\hippopotamus\hippopotamus_02s.jpg	1	-1	0	0	hippopotamus_02s.jpg	0	0	0	200.998764129996	201.048746770772	0.0499826407758519
125027	50	48	0	0	french_horn	642	48	0	stimuli\french_horn\french_horn_08s.jpg	7	-1	0	0	french_horn_08s.jpg	0	0	0	201.098765495291	201.148743503727	0.0499780084355734
125127	50	49	0	0	crayon	435	49	0	stimuli\crayon\crayon_03s.jpg	2	-1	0	0	crayon_03s.jpg	0	0	0	201.198770517774	201.248749257589	0.0499787398148328
125227	50	50	0	0	cotton_candy	421	50	0	stimuli\cotton_candy\cotton_candy_08s.jpg	7	-1	0	0	cotton_candy_08s.jpg	0	0	0	201.298772370734	201.348754767678	0.0499823969439603
125327	50	51	0	0	lightbulb	927	51	0	stimuli\lightbulb\lightbulb_03s.jpg	2	-1	0	0	lightbulb_03s.jpg	0	0	0	201.398790802748	201.448755401594	0.0499645988456905
125427	50	52	0	0	paint	1096	52	0	stimuli\paint\paint_01b.jpg	0	-1	0	1	paint_01b.jpg	0	0	0	201.498792899481	201.548765787855	0.0499728883733042
125527	50	53	0	0	coal	367	53	0	stimuli\coal\coal_05s.jpg	4	-1	0	0	coal_05s.jpg	0	0	0	201.598791095312	201.648769835127	0.0499787398148328
125627	50	54	0	0	propeller	1243	54	0	stimuli\propeller\propeller_03s.jpg	2	-1	0	0	propeller_03s.jpg	0	0	0	201.698789291084	201.748773150903	0.0499838598188944
125727	50	55	0	0	car_door	268	55	0	stimuli\car_door\car_door_04s.jpg	3	-1	0	0	car_door_04s.jpg	0	0	0	201.798796264047	201.84877768578	0.0499814217328094
125827	50	56	0	0	piglet	1173	56	0	stimuli\piglet\piglet_02s.jpg	1	-1	0	0	piglet_02s.jpg	0	0	0	201.89879933605	201.948765153997	0.0499658179469407
125927	50	57	0	0	sloth	1471	57	0	stimuli\sloth\sloth_04s.jpg	3	-1	0	0	sloth_04s.jpg	0	0	0	201.998808015662	202.048790412664	0.049982397002168
126027	50	58	0	0	hot-water_bottle	802	58	0	stimuli\hot-water_bottle\hot-water_bottle_05s.jpg	4	-1	0	0	hot-water_bottle_05s.jpg	0	0	0	202.098802798137	202.148782513221	0.0499797150841914
126127	50	59	0	0	paper_bag	1113	59	0	stimuli\paper_bag\paper_bag_07s.jpg	6	-1	0	0	paper_bag_07s.jpg	0	0	0	202.198828788241	202.248810209974	0.0499814217328094
126227	50	60	0	0	wrench	1841	60	0	stimuli\wrench\wrench_09s.jpg	8	-1	0	0	wrench_09s.jpg	0	0	0	202.298831616412	202.348787194351	0.0499555779388174
126327	50	61	0	0	dial	483	61	0	stimuli\dial\dial_10s.jpg	9	-1	0	0	dial_10s.jpg	0	0	0	202.398801774136	202.448784658744	0.0499828846077435
126427	50	62	0	0	doorhandle	508	62	0	stimuli\doorhandle\doorhandle_04s.jpg	3	-1	0	0	doorhandle_04s.jpg	0	0	0	202.498805577576	202.548786267871	0.0499806902953424
126527	50	63	0	0	seaweed	1400	63	0	stimuli\seaweed\seaweed_12s.jpg	11	-1	0	0	seaweed_12s.jpg	0	0	0	202.598809381016	202.648788608436	0.0499792274204083
126627	50	64	0	0	toga	1669	64	0	stimuli\toga\toga_07s.jpg	6	-1	0	0	toga_07s.jpg	0	0	0	202.698810014932	202.748792168044	0.0499821531120688
126727	50	65	0	0	butterfly	229	65	0	stimuli\butterfly\butterfly_04s.jpg	3	-1	0	0	butterfly_04s.jpg	0	0	0	202.798816987837	202.848807186703	0.0499901988659985
126827	50	66	0	0	pita	1189	66	0	stimuli\pita\pita_02s.jpg	1	-1	0	0	pita_02s.jpg	0	0	0	202.898826642719	202.948789778748	0.0499631360289641
126927	50	67	0	0	scalpel	1374	67	0	stimuli\scalpel\scalpel_01b.jpg	0	-1	0	0	scalpel_01b.jpg	0	0	0	202.998818499502	203.048796995485	0.0499784959829412
127027	50	68	0	0	stake	1533	68	0	stimuli\stake\stake_04s.jpg	3	-1	0	0	stake_04s.jpg	0	0	0	203.098817670543	203.148796410358	0.0499787398148328
127127	50	69	0	0	board_game	153	69	0	stimuli\board_game\board_game_10s.jpg	9	-1	0	0	board_game_10s.jpg	0	0	0	203.198822693026	203.24880313949	0.0499804464634508
127227	50	70	0	0	tinsel	1662	70	0	stimuli\tinsel\tinsel_12s.jpg	11	-1	0	0	tinsel_12s.jpg	0	0	0	203.298824058322	203.348800116277	0.0499760579550639
127327	50	71	0	0	leek	910	71	0	stimuli\leek\leek_06s.jpg	5	-1	0	0	leek_06s.jpg	0	0	0	203.398833713203	203.448810990143	0.0499772769398987
127427	50	72	0	0	fence	575	72	0	stimuli\fence\fence_12s.jpg	11	-1	0	0	fence_12s.jpg	0	0	0	203.498834103288	203.548806260224	0.0499721569358371
127527	50	73	0	0	jewel	849	73	0	stimuli\jewel\jewel_03s.jpg	2	-1	0	0	jewel_03s.jpg	0	0	0	203.598833274329	203.648820547503	0.049987273174338
127627	50	74	0	0	calamari	239	74	0	stimuli\calamari\calamari_06s.jpg	5	-1	0	0	calamari_06s.jpg	0	0	0	203.698838296812	203.748818987107	0.0499806902953424
127727	50	75	0	0	pitcher	1190	75	0	stimuli\pitcher\pitcher_08s.jpg	7	-1	0	0	pitcher_08s.jpg	0	0	0	203.798838686896	203.848821327672	0.0499826407758519
127827	50	76	0	0	ferris_wheel	579	76	0	stimuli\ferris_wheel\ferris_wheel_10s.jpg	9	-1	0	0	ferris_wheel_10s.jpg	0	0	0	203.898844684591	203.948849999637	0.0500053150462918
127927	50	77	0	0	copier	405	77	0	stimuli\copier\copier_08s.jpg	7	-1	0	0	copier_08s.jpg	0	0	0	203.998866773734	204.048846732592	0.0499799588578753
128027	50	78	0	0	tank2	1621	78	0	stimuli\tank2\tank2_04s.jpg	3	-1	0	0	tank2_04s.jpg	0	0	0	204.098839857208	204.148823717027	0.0499838598188944
128127	50	79	0	0	clipper2	357	79	0	stimuli\clipper2\clipper2_04s.jpg	3	-1	0	0	clipper2_04s.jpg	0	0	0	204.198847317777	204.248828008072	0.0499806902953424
128227	50	80	0	0	inkwell	830	80	0	stimuli\inkwell\inkwell_07s.jpg	6	-1	0	0	inkwell_07s.jpg	0	0	0	204.298904271622	204.348862775252	0.0499585036304779
128327	50	81	0	0	swing_set	1599	81	0	stimuli\swing_set\swing_set_05s.jpg	4	-1	0	0	swing_set_05s.jpg	0	0	0	204.398878817912	204.448868041567	0.0499892236548476
128427	50	82	0	0	wire	1828	82	0	stimuli\wire\wire_07s.jpg	6	-1	0	0	wire_07s.jpg	0	0	0	204.498881889915	204.548856484995	0.0499745950801298
128527	50	83	0	0	granite	700	83	0	stimuli\granite\granite_10s.jpg	9	-1	0	0	granite_10s.jpg	0	0	0	204.598897152406	204.648853461782	0.0499563093762845
128627	50	84	0	0	lid	923	84	0	stimuli\lid\lid_04s.jpg	3	-1	0	0	lid_04s.jpg	0	0	0	204.698872673966	204.74884848803	0.0499758140649647
128727	50	85	0	0	boy	184	85	0	stimuli\boy\boy_06s.jpg	5	-1	0	0	boy_06s.jpg	0	0	0	204.798881841183	204.84886350669	0.0499816655064933
128827	50	86	0	0	notepad	1065	86	0	stimuli\notepad\notepad_12s.jpg	11	-1	0	0	notepad_12s.jpg	0	0	0	204.898872235091	204.948878769181	0.0500065340893343
128927	50	87	0	0	sponge	1517	87	0	stimuli\sponge\sponge_10s.jpg	9	-1	0	0	sponge_10s.jpg	0	0	0	204.998885059438	205.048864286917	0.0499792274786159
129027	50	88	0	0	tractor	1695	88	0	stimuli\tractor\tractor_05n.jpg	4	-1	0	0	tractor_05n.jpg	0	0	0	205.098888862878	205.148867358919	0.0499784960411489
129127	50	89	0	0	maple_syrup	971	89	0	stimuli\maple_syrup\maple_syrup_06s.jpg	5	-1	0	0	maple_syrup_06s.jpg	0	0	0	205.198890472006	205.248865554691	0.0499750826857053
129227	50	90	0	0	kale	860	90	0	stimuli\kale\kale_03s.jpg	2	-1	0	0	kale_03s.jpg	0	0	0	205.298892324965	205.348865944776	0.0499736198107712
129327	50	91	0	0	lollipop	945	91	0	stimuli\lollipop\lollipop_07s.jpg	6	-1	0	0	lollipop_07s.jpg	0	0	0	205.398889545526	205.448875599657	0.0499860541312955
129427	50	92	0	0	hammock	742	92	0	stimuli\hammock\hammock_08s.jpg	7	-1	0	0	hammock_08s.jpg	0	0	0	205.498916998506	205.548893056402	0.0499760578968562
129527	50	93	0	0	weather_vane	1798	93	0	stimuli\weather_vane\weather_vane_10s.jpg	9	-1	0	0	weather_vane_10s.jpg	0	0	0	205.598888375273	205.648877598869	0.0499892235966399
129627	50	94	0	0	leech	909	94	0	stimuli\leech\leech_12s.jpg	11	-1	0	0	leech_12s.jpg	0	0	0	205.698904612975	205.748877501348	0.0499728883733042
129727	50	95	0	0	extinguisher	563	95	0	stimuli\extinguisher\extinguisher_09s.jpg	8	-1	0	0	extinguisher_09s.jpg	0	0	0	205.798903540184	205.84887399053	0.0499704503454268
129827	50	96	0	0	catfish	287	96	0	stimuli\catfish\catfish_02s.jpg	1	-1	0	0	catfish_02s.jpg	0	0	0	205.898907343624	205.948869748216	0.049962404591497
129927	50	97	0	0	denture	478	97	0	stimuli\denture\denture_05s.jpg	4	-1	0	0	denture_05s.jpg	0	0	0	205.998905783286	206.04887501453	0.0499692312441766
130027	50	98	0	0	chick	321	98	0	stimuli\chick\chick_08s.jpg	7	-1	0	0	chick_08s.jpg	0	0	0	206.098900321929	206.148880524619	0.0499802026897669
130127	50	99	0	0	flagpole	606	99	0	stimuli\flagpole\flagpole_10s.jpg	9	-1	0	0	flagpole_10s.jpg	0	0	0	206.198902906326	206.248881402309	0.0499784959829412
130227	50	100	0	0	fountain_pen	637	100	0	stimuli\fountain_pen\fountain_pen_03s.jpg	2	-1	0	0	fountain_pen_03s.jpg	0	0	0	206.298903052579	206.348892032402	0.049988979822956
130327	50	101	0	0	blind	140	101	0	stimuli\blind\blind_02s.jpg	1	-1	0	0	blind_02s.jpg	0	0	0	206.398908562667	206.4488899844	0.0499814217328094
130427	50	102	0	0	flatiron	613	102	0	stimuli\flatiron\flatiron_09s.jpg	8	-1	0	0	flatiron_09s.jpg	0	0	0	206.498906270892	206.548884035437	0.0499777645454742
130527	50	103	0	0	nightshirt	1058	103	0	stimuli\nightshirt\nightshirt_08s.jpg	7	-1	0	0	nightshirt_08s.jpg	0	0	0	206.598908367625	206.648891496006	0.0499831283814274
130627	50	104	0	0	buggy	213	104	0	stimuli\buggy\buggy_07s.jpg	6	-1	0	0	buggy_07s.jpg	0	0	0	206.698944110074	206.748946255597	0.0500021455227397
130727	50	105	0	0	plate	1197	105	0	stimuli\plate\plate_06s.jpg	5	-1	0	0	plate_06s.jpg	0	0	0	206.79891743738	206.848903003847	0.0499855664675124
130827	50	106	0	0	okra	1074	106	0	stimuli\okra\okra_02n.jpg	1	-1	0	0	okra_02n.jpg	0	0	0	206.898925385554	206.948901443451	0.0499760578968562
130927	50	107	0	0	flamingo	608	107	0	stimuli\flamingo\flamingo_11s.jpg	10	-1	0	0	flamingo_11s.jpg	0	0	0	206.998924800369	207.048901833536	0.0499770331662148
131027	50	108	0	0	iron	832	108	0	stimuli\iron\iron_09s.jpg	8	-1	0	0	iron_09s.jpg	0	0	0	207.09894103813	207.14890514937	0.049964111240115
131127	50	109	0	0	curtain	465	109	0	stimuli\curtain\curtain_03s.jpg	2	-1	0	0	curtain_03s.jpg	0	0	0	207.198931432038	207.248910903232	0.0499794711940922
131227	50	110	0	0	jack	835	110	0	stimuli\jack\jack_01b.jpg	0	-1	0	0	jack_01b.jpg	0	0	0	207.298931334517	207.348920314282	0.0499889797647484
131327	50	111	0	0	turkey	1733	111	0	stimuli\turkey\turkey_11s.jpg	10	-1	0	0	turkey_11s.jpg	0	0	0	207.398935869336	207.448917534901	0.049981665564701
131427	50	112	0	0	footrest	633	112	0	stimuli\footrest\footrest_08s.jpg	7	-1	0	0	footrest_08s.jpg	0	0	0	207.498937966127	207.548921094509	0.0499831283814274
131527	50	113	0	0	stomach	1560	113	0	stimuli\stomach\stomach_05s.jpg	4	-1	0	0	stomach_05s.jpg	0	0	0	207.598941281904	207.648920509324	0.0499792274204083
131627	50	114	0	0	outlet	1088	114	0	stimuli\outlet\outlet_07s.jpg	6	-1	0	0	outlet_07s.jpg	0	0	0	207.698941671988	207.74891919276	0.0499775207717903
131727	50	115	0	0	snowman	1482	115	0	stimuli\snowman\snowman_06s.jpg	5	-1	0	0	snowman_06s.jpg	0	0	0	207.798943768779	207.848928360036	0.0499845912563615
131827	50	116	0	0	sticker	1553	116	0	stimuli\sticker\sticker_01b.jpg	0	-1	0	0	sticker_01b.jpg	0	0	0	207.89894854743	207.948933138687	0.0499845912563615
131927	50	117	0	0	gumball	725	117	0	stimuli\gumball\gumball_07s.jpg	6	-1	0	0	gumball_07s.jpg	0	0	0	207.998952107038	208.048928896373	0.0499767893343233
132027	50	118	0	0	sprinkler	1523	118	0	stimuli\sprinkler\sprinkler_08s.jpg	7	-1	0	0	sprinkler_08s.jpg	0	0	0	208.098952740955	208.148929042683	0.0499763017287478
132127	50	119	0	0	puffin	1248	119	0	stimuli\puffin\puffin_03s.jpg	2	-1	0	0	puffin_03s.jpg	0	0	0	208.198957519606	208.248932846123	0.0499753265175968
132227	50	120	0	0	towel_rack	1693	120	0	stimuli\towel_rack\towel_rack_05s.jpg	4	-1	0	0	towel_rack_05s.jpg	0	0	0	208.29895327735	208.348934942856	0.0499816655064933
132327	50	121	0	0	lingerie	932	121	0	stimuli\lingerie\lingerie_02s.jpg	1	-1	0	0	lingerie_02s.jpg	0	0	0	208.398963663611	208.448942159652	0.0499784960411489
132427	50	122	0	0	biscuit	133	122	0	stimuli\biscuit\biscuit_06s.jpg	5	-1	0	0	biscuit_06s.jpg	0	0	0	208.498962834652	208.54894279351	0.0499799588578753
132527	50	123	0	0	blowfish	146	123	0	stimuli\blowfish\blowfish_02s.jpg	1	-1	0	0	blowfish_02s.jpg	0	0	0	208.598967125698	208.648951716954	0.0499845912563615
132627	50	124	0	0	spaghetti	1503	124	0	stimuli\spaghetti\spaghetti_10s.jpg	9	-1	0	0	spaghetti_10s.jpg	0	0	0	208.698968978657	208.748945524218	0.0499765455606394
132727	50	125	0	0	bead	100	125	0	stimuli\bead\bead_12s.jpg	11	-1	0	0	bead_12s.jpg	0	0	0	208.798967662093	208.848950790474	0.0499831283814274
132827	50	126	0	0	goldfish	688	126	0	stimuli\goldfish\goldfish_11s.jpg	10	-1	0	0	goldfish_11s.jpg	0	0	0	208.898971709306	208.948952887265	0.0499811779591255
132927	50	127	0	0	jalapeno	838	127	0	stimuli\jalapeno\jalapeno_11s.jpg	10	-1	0	0	jalapeno_11s.jpg	0	0	0	208.998976731789	209.048954983999	0.0499782522092573
133027	50	128	0	0	gargoyle	657	128	0	stimuli\gargoyle\gargoyle_12s.jpg	11	-1	0	0	gargoyle_12s.jpg	0	0	0	209.098982729542	209.148972440744	0.0499897112022154
133127	50	129	0	0	clipboard	355	129	0	stimuli\clipboard\clipboard_07s.jpg	6	-1	0	0	clipboard_07s.jpg	0	0	0	209.198986532923	209.248960884172	0.0499743512482382
133227	50	130	0	0	stump	1576	130	0	stimuli\stump\stump_08s.jpg	7	-1	0	0	stump_08s.jpg	0	0	0	209.298983265879	209.348963224737	0.0499799588578753
133327	50	131	0	0	coffee_table	381	131	0	stimuli\coffee_table\coffee_table_11s.jpg	10	-1	0	1	coffee_table_11s.jpg	0	0	0	209.398986581713	209.44896556536	0.0499789836467244
133427	50	132	0	0	spoon	1519	132	0	stimuli\spoon\spoon_04s.jpg	3	-1	0	0	spoon_04s.jpg	0	0	0	209.498983070836	209.548964492569	0.0499814217328094
133527	50	133	0	0	jigsaw_puzzle	851	133	0	stimuli\jigsaw_puzzle\jigsaw_puzzle_02s.jpg	1	-1	0	0	jigsaw_puzzle_02s.jpg	0	0	0	209.598993457155	209.648973172181	0.0499797150259838
133627	50	134	0	0	waffle	1770	134	0	stimuli\waffle\waffle_02s.jpg	1	-1	0	0	waffle_02s.jpg	0	0	0	209.698993115802	209.748972343223	0.0499792274204083
133727	50	135	0	0	meat	987	135	0	stimuli\meat\meat_09s.jpg	8	-1	0	0	meat_09s.jpg	1	0.441926786967088	1	209.798997894453	209.848989799968	0.0499919055146165
133827	50	136	0	0	hand	744	136	0	stimuli\hand\hand_02s.jpg	1	-1	0	0	hand_02s.jpg	0	0	0	209.899011206464	209.948976292973	0.0499650865094736
133927	50	137	0	0	sandpaper	1356	137	0	stimuli\sandpaper\sandpaper_12s.jpg	11	-1	0	0	sandpaper_12s.jpg	0	0	0	209.998999649892	210.048993505887	0.0499938559951261
134027	50	138	0	0	face_mask	570	138	0	stimuli\face_mask\face_mask_03s.jpg	2	-1	0	0	face_mask_03s.jpg	0	0	0	210.099007110461	210.148985606444	0.0499784959829412
134128	50	139	0	0	air_conditioner	4	139	0	stimuli\air_conditioner\air_conditioner_12s.jpg	11	-1	0	0	air_conditioner_12s.jpg	0	0	0	210.199018228159	210.248997943243	0.0499797150841914
134228	50	140	0	0	slicer	1463	140	0	stimuli\slicer\slicer_04s.jpg	3	-1	0	0	slicer_04s.jpg	0	0	0	210.299020812556	210.348998333327	0.0499775207717903
134327	50	141	0	0	puppy	1258	141	0	stimuli\puppy\puppy_07s.jpg	6	-1	0	0	puppy_07s.jpg	0	0	0	210.399009255983	210.448999211018	0.049989955034107
134427	50	142	0	0	revolver	1304	142	0	stimuli\revolver\revolver_01s.jpg	0	-1	0	0	revolver_01s.jpg	0	0	0	210.499010377505	210.549018618243	0.0500082407379523
134528	50	143	0	0	dumpling	532	143	0	stimuli\dumpling\dumpling_12s.jpg	11	-1	0	0	dumpling_12s.jpg	0	0	0	210.59902588377	210.648998772202	0.0499728884315118
134628	50	144	0	0	nail_file	1048	144	0	stimuli\nail_file\nail_file_05s.jpg	4	-1	0	0	nail_file_05s.jpg	0	0	0	210.699020910077	210.749034270819	0.0500133607420139
134728	50	145	0	0	overalls	1090	145	0	stimuli\overalls\overalls_09s.jpg	8	-1	0	0	overalls_09s.jpg	0	0	0	210.799021300161	210.849004916148	0.0499836159870028
134828	50	146	0	0	tackle	1612	146	0	stimuli\tackle\tackle_06s.jpg	5	-1	0	0	tackle_06s.jpg	0	0	0	210.899025103601	210.949062113883	0.0500370102818124
134928	50	147	0	0	belt	118	147	0	stimuli\belt\belt_11s.jpg	10	-1	0	0	belt_11s.jpg	0	0	0	210.999027931772	211.049021787767	0.0499938559951261
135028	50	148	0	0	chimney	329	148	0	stimuli\chimney\chimney_03s.jpg	2	-1	0	0	chimney_03s.jpg	0	0	0	211.099037586653	211.14901925216	0.0499816655064933
135128	50	149	0	0	elbow	552	149	0	stimuli\elbow\elbow_09s.jpg	8	-1	0	0	elbow_09s.jpg	0	0	0	211.199034563382	211.249012084154	0.0499775207717903
135228	50	150	0	0	calf1	241	150	0	stimuli\calf1\calf1_03s.jpg	2	-1	0	0	calf1_03s.jpg	0	0	0	211.299037391611	211.349046851392	0.0500094597809948
135328	50	151	0	0	mouse1	1026	151	0	stimuli\mouse1\mouse1_08s.jpg	7	-1	0	0	mouse1_08s.jpg	0	0	0	211.399036806426	211.449028955773	0.0499921493465081
135428	50	152	0	0	ear	538	152	0	stimuli\ear\ear_09s.jpg	8	-1	0	0	ear_09s.jpg	0	0	0	211.499054263229	211.549071768706	0.0500175054767169
135528	50	153	0	0	bouquet	173	153	0	stimuli\bouquet\bouquet_03s.jpg	2	-1	0	0	bouquet_03s.jpg	0	0	0	211.599048070435	211.649025103601	0.0499770331662148
135628	50	154	0	0	saucer	1363	154	0	stimuli\saucer\saucer_05s.jpg	4	-1	0	0	saucer_05s.jpg	0	0	0	211.699046266265	211.749086689844	0.0500404235790484
135728	50	155	0	0	parrot	1121	155	0	stimuli\parrot\parrot_06s.jpg	5	-1	0	0	parrot_06s.jpg	0	0	0	211.799046412518	211.849031003774	0.0499845912563615
135828	50	156	0	0	lobster	939	156	0	stimuli\lobster\lobster_06s.jpg	5	-1	0	0	lobster_06s.jpg	0	0	0	211.899050215958	211.949031150085	0.0499809341272339
135928	50	157	0	0	stopwatch	1562	157	0	stimuli\stopwatch\stopwatch_07s.jpg	6	-1	0	0	stopwatch_07s.jpg	0	0	0	211.99905328796	212.049033003044	0.0499797150841914
136028	50	158	0	0	cement_mixer	294	158	0	stimuli\cement_mixer\cement_mixer_08s.jpg	7	-1	0	0	cement_mixer_08s.jpg	0	0	0	212.099054409482	212.149034612172	0.0499802026897669
136128	50	159	0	0	drain	515	159	0	stimuli\drain\drain_05s.jpg	4	-1	0	0	drain_05s.jpg	0	0	0	212.199052849086	212.249047924182	0.0499950750963762
136228	50	160	0	0	rocking_chair	1321	160	0	stimuli\rocking_chair\rocking_chair_07s.jpg	6	-1	0	0	rocking_chair_07s.jpg	0	0	0	212.299069574452	212.349038318091	0.0499687436386012
136328	50	161	0	0	ship	1421	161	0	stimuli\ship\ship_08s.jpg	7	-1	0	0	ship_08s.jpg	0	0	0	212.399072890228	212.449043828179	0.0499709379510023
136428	50	162	0	0	sushi	1588	162	0	stimuli\sushi\sushi_07s.jpg	6	-1	0	0	sushi_07s.jpg	0	0	0	212.499077668937	212.549047875393	0.0499702064553276
136528	50	163	0	0	cheetah	315	163	0	stimuli\cheetah\cheetah_11s.jpg	10	-1	0	0	cheetah_11s.jpg	0	0	0	212.599082935194	212.649050703563	0.0499677683692425
136628	50	164	0	0	magnifying_glass	958	164	0	stimuli\magnifying_glass\magnifying_glass_02s.jpg	1	-1	0	0	magnifying_glass_02s.jpg	0	0	0	212.69907406054	212.749053775566	0.0499797150259838
136728	50	165	0	0	coaster	368	165	0	stimuli\coaster\coaster_03s.jpg	2	-1	0	0	coaster_03s.jpg	0	0	0	212.799097368727	212.849057335232	0.049959966505412
136828	50	166	0	0	root	1331	166	0	stimuli\root\root_05s.jpg	4	-1	0	0	root_05s.jpg	0	0	0	212.899078010232	212.949058212922	0.0499802026897669
136928	50	167	0	0	harmonica	753	167	0	stimuli\harmonica\harmonica_04s.jpg	3	-1	0	0	harmonica_04s.jpg	0	0	0	212.999078156543	213.049062016362	0.0499838598188944
137028	50	168	0	0	spear	1510	168	0	stimuli\spear\spear_07s.jpg	6	-1	0	0	spear_07s.jpg	0	0	0	213.099084154237	213.149063137884	0.0499789836467244
137128	50	169	0	0	toaster_oven	1667	169	0	stimuli\toaster_oven\toaster_oven_05s.jpg	4	-1	0	0	toaster_oven_05s.jpg	0	0	0	213.199084788153	213.249064503179	0.0499797150259838
137228	50	170	0	0	hearse	771	170	0	stimuli\hearse\hearse_03s.jpg	2	-1	0	0	hearse_03s.jpg	0	0	0	213.299082983984	213.349078059022	0.0499950750381686
137328	50	171	0	0	chalk	302	171	0	stimuli\chalk\chalk_10s.jpg	9	-1	0	0	chalk_10s.jpg	0	0	0	213.399106779776	213.44907113479	0.0499643550137989
137428	50	172	0	0	bush	227	172	0	stimuli\bush\bush_05s.jpg	4	-1	0	0	bush_05s.jpg	0	0	0	213.499088152719	213.549083227757	0.0499950750381686
137528	50	173	0	0	macadamia	951	173	0	stimuli\macadamia\macadamia_01b.jpg	0	-1	0	0	macadamia_01b.jpg	0	0	0	213.599108778988	213.649076059752	0.0499672807636671
137628	50	174	0	0	gear	667	174	0	stimuli\gear\gear_12n.jpg	11	-1	0	0	gear_12n.jpg	0	0	0	213.69910234242	213.74907888798	0.0499765455606394
137728	50	175	0	0	polo_shirt	1216	175	0	stimuli\polo_shirt\polo_shirt_07s.jpg	6	-1	0	0	polo_shirt_07s.jpg	0	0	0	213.799100050644	213.849080253276	0.0499802026315592
137828	50	176	0	0	cleat	353	176	0	stimuli\cleat\cleat_02s.jpg	1	-1	0	0	cleat_02s.jpg	0	0	0	213.89913067309	213.949118433869	0.0499877607799135
137928	50	177	0	0	tapestry	1625	177	0	stimuli\tapestry\tapestry_09s.jpg	8	-1	0	0	tapestry_09s.jpg	0	0	0	213.999134720303	214.049096149683	0.0499614293803461
138028	50	178	0	0	canvas	264	178	0	stimuli\canvas\canvas_09s.jpg	8	-1	0	0	canvas_09s.jpg	0	0	0	214.099124139	214.149098977854	0.0499748388538137
138128	50	179	0	0	eclair	544	179	0	stimuli\eclair\eclair_05s.jpg	4	-1	0	0	eclair_05s.jpg	0	0	0	214.199121359561	214.249103025068	0.0499816655064933
138228	50	180	0	0	spout	1520	180	0	stimuli\spout\spout_02s.jpg	1	-1	0	0	spout_02s.jpg	0	0	0	214.299123943958	214.349111948512	0.0499880045535974
138328	50	181	0	0	stapler	1539	181	0	stimuli\stapler\stapler_01b.jpg	0	-1	0	0	stapler_01b.jpg	0	0	0	214.399125796917	214.449109412904	0.0499836159870028
138428	50	182	0	0	life_jacket	924	182	0	stimuli\life_jacket\life_jacket_10s.jpg	9	-1	0	0	life_jacket_10s.jpg	0	0	0	214.499129112693	214.549115410598	0.0499862979049794
138528	50	183	0	0	sickle	1441	183	0	stimuli\sickle\sickle_05s.jpg	4	-1	0	0	sickle_05s.jpg	0	0	0	214.599125845649	214.649103366421	0.0499775207717903
138628	50	184	0	0	peanut_butter	1132	184	0	stimuli\peanut_butter\peanut_butter_07s.jpg	6	-1	0	0	peanut_butter_07s.jpg	0	0	0	214.699134037655	214.749115215556	0.0499811779009178
138728	50	185	0	0	spam	1504	185	0	stimuli\spam\spam_12s.jpg	11	-1	0	0	spam_12s.jpg	0	0	0	214.799126138212	214.849107072339	0.0499809341272339
138828	50	186	0	0	power_line	1237	186	0	stimuli\power_line\power_line_02s.jpg	1	-1	0	0	power_line_02s.jpg	0	0	0	214.899128966441	214.94913623191	0.0500072654685937
138928	50	187	0	0	piano	1165	187	0	stimuli\piano\piano_07n.jpg	6	-1	0	0	piano_07n.jpg	0	0	0	214.999144472706	215.049122724915	0.0499782522092573
139028	50	188	0	0	paper	1112	188	0	stimuli\paper\paper_12s.jpg	11	-1	0	0	paper_12s.jpg	0	0	0	215.099134379008	215.149111412116	0.0499770331080072
139128	50	189	0	0	videogame	1762	189	0	stimuli\videogame\videogame_10s.jpg	9	-1	0	0	videogame_10s.jpg	0	0	0	215.19913550053	215.249113752681	0.0499782521510497
139228	50	190	0	0	backdrop	47	190	0	stimuli\backdrop\backdrop_12s.jpg	11	-1	0	0	backdrop_12s.jpg	0	0	0	215.299137109658	215.34912218852	0.0499850788619369
139328	50	191	0	0	ironing_board	833	191	0	stimuli\ironing_board\ironing_board_08s.jpg	7	-1	0	0	ironing_board_08s.jpg	0	0	0	215.399143107352	215.449122090999	0.0499789836467244
139428	50	192	0	0	loveseat	947	192	0	stimuli\loveseat\loveseat_04s.jpg	3	-1	0	0	loveseat_04s.jpg	0	0	0	215.499146423186	215.549124431564	0.0499780083773658
139528	50	193	0	0	rag	1276	193	0	stimuli\rag\rag_02s.jpg	1	-1	0	0	rag_02s.jpg	0	0	0	215.599164611369	215.649149934005	0.0499853226356208
139628	50	194	0	0	moccasin	1010	194	0	stimuli\moccasin\moccasin_07s.jpg	6	-1	0	0	moccasin_07s.jpg	0	0	0	215.699161344324	215.749129112693	0.0499677683692425
139728	50	195	0	0	razor	1290	195	0	stimuli\razor\razor_03s.jpg	2	-1	0	0	razor_03s.jpg	0	0	0	215.799144180142	215.849130478047	0.0499862979049794
139828	50	196	0	0	wax	1795	196	0	stimuli\wax\wax_02s.jpg	1	-1	0	0	wax_02s.jpg	0	0	0	215.899151153048	215.949145009101	0.0499938560533337
139928	50	197	0	0	cigarette_holder	346	197	0	stimuli\cigarette_holder\cigarette_holder_08s.jpg	7	-1	0	0	cigarette_holder_08s.jpg	0	0	0	215.999194697419	216.049167098186	0.0499724007677287
140028	50	198	0	0	cereal	297	198	0	stimuli\cereal\cereal_10s.jpg	9	-1	0	0	cereal_10s.jpg	0	0	0	216.099169243709	216.149150665442	0.0499814217328094
140128	50	199	0	0	washing_machine	1784	199	0	stimuli\washing_machine\washing_machine_07s.jpg	6	-1	0	0	washing_machine_07s.jpg	0	0	0	216.199172559544	216.249152274569	0.0499797150259838
140228	50	200	0	0	hydrant	814	200	0	stimuli\hydrant\hydrant_02s.jpg	1	-1	0	0	hydrant_02s.jpg	0	0	0	216.299209521036	216.349160710408	0.0499511893722229
140328	50	201	0	0	ice_pack	820	201	0	stimuli\ice_pack\ice_pack_11s.jpg	10	-1	0	0	ice_pack_11s.jpg	0	0	0	216.399180654029	216.449145009101	0.0499643550720066
140428	50	202	0	0	notebook	1064	202	0	stimuli\notebook\notebook_05s.jpg	4	-1	0	0	notebook_05s.jpg	0	0	0	216.499167146976	216.549161002971	0.0499938559951261
140528	50	203	0	0	fondue	626	203	0	stimuli\fondue\fondue_02s.jpg	1	-1	0	0	fondue_02s.jpg	0	0	0	216.599171438022	216.649160661618	0.0499892235966399
140628	50	204	0	0	chocolate	338	204	0	stimuli\chocolate\chocolate_06s.jpg	5	-1	0	0	chocolate_06s.jpg	0	0	0	216.699178410985	216.749191284121	0.0500128731364384
140728	50	205	0	0	nightstand	1059	205	0	stimuli\nightstand\nightstand_09s.jpg	8	-1	0	1	nightstand_09s.jpg	0	0	0	216.799215372477	216.849198744691	0.0499833722133189
140828	50	206	0	0	lighter	928	206	0	stimuli\lighter\lighter_02s.jpg	1	-1	0	0	lighter_02s.jpg	0	0	0	216.899213324476	216.949178410985	0.0499650865094736
140928	50	207	0	0	luggage	948	207	0	stimuli\luggage\luggage_11s.jpg	10	-1	0	0	luggage_11s.jpg	0	0	0	216.99919299077	217.049178313464	0.0499853226938285
141028	50	208	0	0	crow	446	208	0	stimuli\crow\crow_10s.jpg	9	-1	0	0	crow_10s.jpg	0	0	0	217.099185578991	217.149172120669	0.0499865416786633
141128	50	209	0	0	jar	840	209	0	stimuli\jar\jar_11s.jpg	10	-1	0	0	jar_11s.jpg	0	0	0	217.199194258603	217.249186895555	0.0499926369520836
141228	50	210	0	0	pipe2	1187	210	0	stimuli\pipe2\pipe2_12s.jpg	11	-1	0	0	pipe2_12s.jpg	1	0.541905477992259	1	217.299205376301	217.349185578991	0.0499802026897669
141328	50	211	0	0	shopping_basket	1427	211	0	stimuli\shopping_basket\shopping_basket_02s.jpg	1	-1	0	0	shopping_basket_02s.jpg	0	0	0	217.399230391136	217.449205473822	0.0499750826857053
141428	50	212	0	0	fossil	636	212	0	stimuli\fossil\fossil_08s.jpg	7	-1	0	0	fossil_08s.jpg	0	0	0	217.499225417443	217.549189041078	0.0499636236345395
141528	50	213	0	0	vest	1759	213	0	stimuli\vest\vest_02s.jpg	1	-1	0	0	vest_02s.jpg	0	0	0	217.599206790386	217.649189431162	0.0499826407758519
141628	50	214	0	0	scaffold	1369	214	0	stimuli\scaffold\scaffold_02s.jpg	1	-1	0	0	scaffold_02s.jpg	0	0	0	217.699234974745	217.749190796516	0.049955821770709
141728	50	215	0	0	eel	545	215	0	stimuli\eel\eel_06s.jpg	5	-1	0	0	eel_06s.jpg	0	0	0	217.799238534353	217.84918362851	0.0499450941570103
141828	50	216	0	0	statue	1543	216	0	stimuli\statue\statue_12s.jpg	11	-1	0	0	statue_12s.jpg	0	0	0	217.899205766385	217.949184018595	0.0499782522092573
141928	50	217	0	0	pecan	1135	217	0	stimuli\pecan\pecan_12s.jpg	11	-1	0	0	pecan_12s.jpg	0	0	0	217.999248579319	218.049208301993	0.0499597226735204
142028	50	218	0	0	radar	1271	218	0	stimuli\radar\radar_05s.jpg	4	-1	0	0	radar_05s.jpg	0	0	0	218.099215323746	218.14919211308	0.0499767893343233
142128	50	219	0	0	tomato	1672	219	0	stimuli\tomato\tomato_08s.jpg	7	-1	0	0	tomato_08s.jpg	0	0	0	218.19921376335	218.249203962216	0.0499901988659985
142228	50	220	0	0	camera1	246	220	0	stimuli\camera1\camera1_02s.jpg	1	-1	0	0	camera1_02s.jpg	0	0	0	218.29923536483	218.349198988464	0.0499636236345395
142328	50	221	0	0	scaffolding	1370	221	0	stimuli\scaffolding\scaffolding_05s.jpg	4	-1	0	0	scaffolding_05s.jpg	0	0	0	218.399221614003	218.449200109986	0.0499784959829412
142428	50	222	0	0	detonator	482	222	0	stimuli\detonator\detonator_06s.jpg	5	-1	0	0	detonator_06s.jpg	0	0	0	218.499222491693	218.549204157258	0.049981665564701
142528	50	223	0	0	charger	308	223	0	stimuli\charger\charger_04s.jpg	3	-1	0	0	charger_04s.jpg	0	0	0	218.59925896558	218.649237949227	0.0499789836467244
142628	50	224	0	0	snake	1477	224	0	stimuli\snake\snake_07s.jpg	6	-1	0	0	snake_07s.jpg	0	0	0	218.69925716141	218.749216152646	0.0499589912360534
142728	50	225	0	0	mullet	1039	225	0	stimuli\mullet\mullet_05s.jpg	4	-1	0	0	mullet_05s.jpg	0	0	0	218.799239265791	218.849214836082	0.0499755702912807
142828	50	226	0	0	refrigerator	1300	226	0	stimuli\refrigerator\refrigerator_01b.jpg	0	-1	0	0	refrigerator_01b.jpg	0	0	0	218.899233804492	218.949214982393	0.0499811779009178
142928	50	227	0	0	foot	628	227	0	stimuli\foot\foot_10s.jpg	9	-1	0	0	foot_10s.jpg	0	0	0	218.999248091714	219.049230001052	0.0499819093383849
143028	50	228	0	0	scanner	1375	228	0	stimuli\scanner\scanner_03s.jpg	2	-1	0	0	scanner_03s.jpg	0	0	0	219.099235803704	219.149223076878	0.049987273174338
143128	50	229	0	0	burner	224	229	0	stimuli\burner\burner_01b.jpg	0	-1	0	0	burner_01b.jpg	0	0	0	219.199241801398	219.249221760314	0.049979958916083
143228	50	230	0	0	feather	574	230	0	stimuli\feather\feather_01b.jpg	0	-1	0	0	feather_01b.jpg	0	0	0	219.299240728666	219.349226051359	0.0499853226938285
143328	50	231	0	0	airplane	10	231	0	stimuli\airplane\airplane_06n.jpg	5	-1	0	0	airplane_06n.jpg	0	0	0	219.399276714947	219.449256186199	0.0499794712522998
143428	50	232	0	0	camel	245	232	0	stimuli\camel\camel_10s.jpg	9	-1	0	0	camel_10s.jpg	0	0	0	219.499279543117	219.549268279108	0.0499887359910645
143528	50	233	0	0	waffle_iron	1771	233	0	stimuli\waffle_iron\waffle_iron_12s.jpg	11	-1	0	0	waffle_iron_12s.jpg	0	0	0	219.599286516081	219.649265987333	0.0499794712522998
143628	50	234	0	0	licorice	922	234	0	stimuli\licorice\licorice_03s.jpg	2	-1	0	0	licorice_03s.jpg	0	0	0	219.699283736642	219.749262720288	0.0499789836467244
143728	50	235	0	0	megaphone	993	235	0	stimuli\megaphone\megaphone_01b.jpg	0	-1	0	0	megaphone_01b.jpg	0	0	0	219.799270473421	219.849249457067	0.0499789836467244
143828	50	236	0	0	mosquito	1020	236	0	stimuli\mosquito\mosquito_10s.jpg	9	-1	0	0	mosquito_10s.jpg	0	0	0	219.899275739677	219.949249359488	0.0499736198107712
143928	50	237	0	0	pan	1103	237	0	stimuli\pan\pan_08s.jpg	7	-1	0	0	pan_08s.jpg	0	0	0	219.99927320407	220.049259258201	0.0499860541312955
144028	50	238	0	0	flour	618	238	0	stimuli\flour\flour_02s.jpg	1	-1	0	0	flour_02s.jpg	0	0	0	220.099271887506	220.149256722536	0.0499848350300454
144128	50	239	0	0	domino	503	239	0	stimuli\domino\domino_12s.jpg	11	-1	0	0	domino_12s.jpg	0	0	0	220.199266913813	220.249259306933	0.049992393120192
144228	50	240	0	0	owl	1091	240	0	stimuli\owl\owl_08s.jpg	7	-1	0	1	owl_08s.jpg	0	0	0	220.299270229589	220.349255064677	0.049984835088253
144328	50	241	0	0	volleyball	1767	241	0	stimuli\volleyball\volleyball_11s.jpg	10	-1	0	0	volleyball_11s.jpg	0	0	0	220.399273545423	220.44926276902	0.0499892235966399
144428	50	242	0	0	gun	727	242	0	stimuli\gun\gun_06s.jpg	5	-1	0	0	gun_06s.jpg	0	0	0	220.499281493598	220.549265353417	0.0499838598188944
144528	50	243	0	0	bun	220	243	0	stimuli\bun\bun_04s.jpg	3	-1	0	0	bun_04s.jpg	0	0	0	220.599291879858	220.649263061583	0.0499711817246862
144628	50	244	0	0	trowel	1719	244	0	stimuli\trowel\trowel_03s.jpg	2	-1	0	0	trowel_03s.jpg	0	0	0	220.699278372864	220.749259794538	0.0499814216746017
144728	50	245	0	0	wreath	1839	245	0	stimuli\wreath\wreath_08s.jpg	7	-1	0	0	wreath_08s.jpg	1	0.492231743817683	1	220.799313383875	220.849294074171	0.0499806902953424
144828	50	246	0	0	swing	1598	246	0	stimuli\swing\swing_07s.jpg	6	-1	0	0	swing_07s.jpg	0	0	0	220.899314749229	220.949298121384	0.0499833721551113
144928	50	247	0	0	safety_pin	1344	247	0	stimuli\safety_pin\safety_pin_12s.jpg	11	-1	0	0	safety_pin_12s.jpg	0	0	0	220.999302704993	221.04928363912	0.0499809341272339
145028	50	248	0	0	flan	609	248	0	stimuli\flan\flan_06s.jpg	5	-1	0	0	flan_06s.jpg	0	0	0	221.099299437949	221.149278421595	0.0499789836467244
145128	50	249	0	0	stereo	1549	249	0	stimuli\stereo\stereo_11s.jpg	10	-1	0	0	stereo_11s.jpg	0	0	0	221.199287637603	221.249265402148	0.0499777645454742
145228	50	250	0	0	guitar	723	250	0	stimuli\guitar\guitar_02s.jpg	1	-1	0	0	guitar_02s.jpg	0	0	0	221.299328256224	221.349311384663	0.049983128439635
145328	50	251	0	0	seahorse	1396	251	0	stimuli\seahorse\seahorse_03s.jpg	2	-1	0	0	seahorse_03s.jpg	0	0	0	221.399298901611	221.449308117561	0.0500092159491032
145428	50	252	0	0	reindeer	1301	252	0	stimuli\reindeer\reindeer_03s.jpg	2	-1	0	0	reindeer_03s.jpg	0	0	0	221.499314895482	221.549279494386	0.0499645989038981
145528	50	253	0	0	barbell	72	253	0	stimuli\barbell\barbell_09s.jpg	8	-1	0	0	barbell_09s.jpg	0	0	0	221.599300900823	221.649281103513	0.0499802026897669
145628	50	254	0	0	garlic	658	254	0	stimuli\garlic\garlic_02s.jpg	1	-1	0	0	garlic_02s.jpg	0	0	0	221.699301047134	221.749282225035	0.0499811779009178
145728	50	255	0	0	folder	625	255	0	stimuli\folder\folder_09s.jpg	8	-1	0	0	folder_09s.jpg	0	0	0	221.799324111489	221.849289685604	0.0499655741150491
145828	50	256	0	0	clarinet	350	256	0	stimuli\clarinet\clarinet_03s.jpg	2	-1	0	0	clarinet_03s.jpg	0	0	0	221.899307678745	221.949289344251	0.0499816655064933
145928	50	257	0	0	hockey_stick	783	257	0	stimuli\hockey_stick\hockey_stick_02s.jpg	1	-1	0	0	hockey_stick_02s.jpg	0	0	0	221.999307581224	222.049311433395	0.0500038521713577
146028	50	258	0	0	mud	1033	258	0	stimuli\mud\mud_09s.jpg	8	-1	0	0	mud_09s.jpg	0	0	0	222.099326500844	222.149307434913	0.0499809340690263
146128	50	259	0	0	lumber	949	259	0	stimuli\lumber\lumber_02s.jpg	1	-1	0	0	lumber_02s.jpg	0	0	0	222.199330060452	222.249306605954	0.0499765455024317
146228	50	260	0	0	barnacle	75	260	0	stimuli\barnacle\barnacle_10n.jpg	9	-1	0	0	barnacle_10n.jpg	0	0	0	222.299335082935	222.349312603706	0.0499775207717903
146328	50	261	0	0	aluminum_foil	17	261	0	stimuli\aluminum_foil\aluminum_foil_04s.jpg	3	-1	0	0	aluminum_foil_04s.jpg	0	0	0	222.399320356839	222.449333473749	0.0500131169101223
146428	50	262	0	0	bird	128	262	0	stimuli\bird\bird_01b.jpg	0	-1	0	0	bird_01b.jpg	0	0	0	222.499356586894	222.549331913411	0.0499753265175968
146528	50	263	0	0	spark_plug	1506	263	0	stimuli\spark_plug\spark_plug_06s.jpg	5	-1	0	0	spark_plug_06s.jpg	0	0	0	222.599339422712	222.649305240659	0.0499658179469407
146628	50	264	0	0	broom	203	264	0	stimuli\broom\broom_08s.jpg	7	-1	0	0	broom_08s.jpg	0	0	0	222.699331279495	222.749307581224	0.0499763017287478
146728	50	265	0	0	pineapple	1182	265	0	stimuli\pineapple\pineapple_11s.jpg	10	-1	0	0	pineapple_11s.jpg	0	0	0	222.79937238578	222.849347224634	0.0499748388538137
146828	50	266	0	0	workbench	1835	266	0	stimuli\workbench\workbench_06s.jpg	5	-1	0	0	workbench_06s.jpg	0	0	0	222.899344250152	222.949313725228	0.0499694750760682
146928	50	267	0	0	potholder	1232	267	0	stimuli\potholder\potholder_11s.jpg	10	-1	0	0	potholder_11s.jpg	0	0	0	222.999353904976	223.049349467678	0.0499955627019517
147028	50	268	0	0	hubcap	809	268	0	stimuli\hubcap\hubcap_08s.jpg	7	-1	0	0	hubcap_08s.jpg	0	0	0	223.099348931282	223.149332059664	0.0499831283814274
147128	50	269	0	0	breadstick	196	269	0	stimuli\breadstick\breadstick_09s.jpg	8	-1	0	0	breadstick_09s.jpg	0	0	0	223.19935249089	223.249334400229	0.0499819093383849
147228	50	270	0	0	photograph	1164	270	0	stimuli\photograph\photograph_11s.jpg	10	-1	0	0	photograph_11s.jpg	0	0	0	223.299352637201	223.349327232223	0.0499745950219221
147328	50	271	0	0	duster	534	271	0	stimuli\duster\duster_07s.jpg	6	-1	0	0	duster_07s.jpg	0	0	0	223.399348151113	223.449338106147	0.049989955034107
147428	50	272	0	0	lamb_chop	890	272	0	stimuli\lamb_chop\lamb_chop_05s.jpg	4	-1	0	0	lamb_chop_05s.jpg	0	0	0	223.499359512643	223.54933264479	0.0499731321469881
147528	50	273	0	0	puddle	1247	273	0	stimuli\puddle\puddle_05s.jpg	4	-1	0	0	puddle_05s.jpg	0	0	0	223.5993516132	223.649334253976	0.0499826407758519
147628	50	274	0	0	barcode	73	274	0	stimuli\barcode\barcode_05s.jpg	4	-1	0	0	barcode_05s.jpg	0	0	0	223.699356148019	223.749336106936	0.049979958916083
147728	50	275	0	0	chute	342	275	0	stimuli\chute\chute_03s.jpg	2	-1	0	0	chute_03s.jpg	0	0	0	223.799373360991	223.849337472231	0.049964111240115
147828	50	276	0	0	traffic_light	1696	276	0	stimuli\traffic_light\traffic_light_03s.jpg	2	-1	0	0	traffic_light_03s.jpg	0	0	0	223.899378627306	223.94937321468	0.0499945873743854
147928	50	277	0	0	leggings	912	277	0	stimuli\leggings\leggings_02s.jpg	1	-1	0	0	leggings_02s.jpg	0	0	0	223.99937414116	224.049362633377	0.0499884922173806
148028	50	278	0	0	ticktacktoe	1657	278	0	stimuli\ticktacktoe\ticktacktoe_02s.jpg	1	-1	0	1	ticktacktoe_02s.jpg	0	0	0	224.0993779446	224.149350101594	0.0499721569940448
148128	50	279	0	0	wood	1833	279	0	stimuli\wood\wood_10s.jpg	9	-1	0	0	wood_10s.jpg	0	0	0	224.199384673731	224.249362682167	0.0499780084355734
148228	50	280	0	0	tricycle	1711	280	0	stimuli\tricycle\tricycle_05s.jpg	4	-1	0	0	tricycle_05s.jpg	0	0	0	224.299391402863	224.349363316025	0.0499719131621532
148328	50	281	0	0	toad	1664	281	0	stimuli\toad\toad_08s.jpg	7	-1	0	0	toad_08s.jpg	1	0.292318735038862	1	224.399391305342	224.449357854726	0.0499665493844077
148428	50	282	0	0	riser	1314	282	0	stimuli\riser\riser_07s.jpg	6	-1	0	0	riser_07s.jpg	0	0	0	224.499378042121	224.549370679073	0.0499926369520836
148528	50	283	0	0	taffy	1615	283	0	stimuli\taffy\taffy_10s.jpg	9	-1	0	0	taffy_10s.jpg	0	0	0	224.59938842844	224.649370825384	0.0499823969439603
148628	50	284	0	0	stamp1	1535	284	0	stimuli\stamp1\stamp1_11s.jpg	10	-1	0	0	stamp1_11s.jpg	0	0	0	224.699394182302	224.749401447829	0.0500072655268013
148728	50	285	0	0	coffee_pot	380	285	0	stimuli\coffee_pot\coffee_pot_10s.jpg	9	-1	0	0	coffee_pot_10s.jpg	0	0	0	224.799419684801	224.849403056956	0.0499833721551113
148828	50	286	0	0	bathtub	91	286	0	stimuli\bathtub\bathtub_06s.jpg	5	-1	0	0	bathtub_06s.jpg	0	0	0	224.899404714874	224.949383942294	0.0499792274204083
148928	50	287	0	0	dishrag	490	287	0	stimuli\dishrag\dishrag_09s.jpg	8	-1	0	0	dishrag_09s.jpg	0	0	0	224.999422903056	225.049385795253	0.0499628921970725
149028	50	288	0	0	outfit	1087	288	0	stimuli\outfit\outfit_07s.jpg	6	-1	0	0	outfit_07s.jpg	0	0	0	225.09939306078	225.149368631071	0.0499755702912807
149128	50	289	0	0	scooter	1382	289	0	stimuli\scooter\scooter_09s.jpg	8	-1	0	0	scooter_09s.jpg	0	0	0	225.199393450865	225.249372190679	0.0499787398148328
149228	50	290	0	0	sheep	1414	290	0	stimuli\sheep\sheep_11s.jpg	10	-1	0	0	sheep_11s.jpg	0	0	0	225.299404324789	225.349392085569	0.0499877607799135
149328	50	291	0	0	washcloth	1783	291	0	stimuli\washcloth\washcloth_11s.jpg	10	-1	0	0	washcloth_11s.jpg	0	0	0	225.399415930093	225.449394669966	0.0499787398730405
149428	50	292	0	0	gravy	711	292	0	stimuli\gravy\gravy_05s.jpg	4	-1	0	0	gravy_05s.jpg	0	0	0	225.499416564009	225.549386282917	0.0499697189079598
149528	50	293	0	0	cross	443	293	0	stimuli\cross\cross_02s.jpg	1	-1	0	0	cross_02s.jpg	0	0	0	225.59940817696	225.649383991084	0.0499758141231723
149628	50	294	0	0	frisbee	643	294	0	stimuli\frisbee\frisbee_12s.jpg	11	-1	0	0	frisbee_12s.jpg	0	0	0	225.699420269928	225.749399985012	0.0499797150841914
149728	50	295	0	0	tape_recorder	1624	295	0	stimuli\tape_recorder\tape_recorder_10s.jpg	9	-1	0	0	tape_recorder_10s.jpg	0	0	0	225.79942334193	225.849406470312	0.0499831283814274
149828	50	296	0	0	lock	940	296	0	stimuli\lock\lock_12s.jpg	11	-1	0	0	lock_12s.jpg	0	0	0	225.899423488241	225.94941295567	0.0499894674285315
149928	50	297	0	0	headset	769	297	0	stimuli\headset\headset_09s.jpg	8	-1	0	0	headset_09s.jpg	0	0	0	225.99942899833	226.049416271446	0.0499872731161304
150028	50	298	0	0	coffin	383	298	0	stimuli\coffin\coffin_06s.jpg	5	-1	0	0	coffin_06s.jpg	0	0	0	226.099417685531	226.14940154535	0.0499838598188944
150128	50	299	0	0	cummerbund	459	299	0	stimuli\cummerbund\cummerbund_02s.jpg	1	-1	0	0	cummerbund_02s.jpg	0	0	0	226.199423439451	226.24941290688	0.0499894674285315
150228	50	300	0	0	ski_lift	1454	300	0	stimuli\ski_lift\ski_lift_09s.jpg	8	-1	0	0	ski_lift_09s.jpg	0	0	0	226.299439677154	226.34940622648	0.0499665493262
150328	50	301	0	0	coop	404	301	0	stimuli\coop\coop_08s.jpg	7	-1	0	0	coop_08s.jpg	0	0	0	226.399422025366	226.449402959435	0.0499809340690263
150428	50	302	0	0	blowtorch	148	302	0	stimuli\blowtorch\blowtorch_10s.jpg	9	-1	0	0	blowtorch_10s.jpg	0	0	0	226.499428266892	226.549415540008	0.0499872731161304
150528	50	303	0	0	shredder	1437	303	0	stimuli\shredder\shredder_10s.jpg	9	-1	0	0	shredder_10s.jpg	0	0	0	226.599432070332	226.649410566315	0.0499784959829412
150628	50	304	0	0	pencil_sharpener	1143	304	0	stimuli\pencil_sharpener\pencil_sharpener_11s.jpg	10	-1	0	0	pencil_sharpener_11s.jpg	0	0	0	226.699432216585	226.749446308764	0.0500140921794809
150728	50	305	0	0	seagull	1395	305	0	stimuli\seagull\seagull_03s.jpg	2	-1	0	0	seagull_03s.jpg	0	0	0	226.79945528094	226.849426706496	0.0499714255565777
150828	50	306	0	0	crutch	452	306	0	stimuli\crutch\crutch_04s.jpg	3	-1	0	0	crutch_04s.jpg	0	0	0	226.899451770121	226.94943002233	0.0499782522092573
150928	50	307	0	0	beaver	107	307	0	stimuli\beaver\beaver_06s.jpg	5	-1	0	0	beaver_06s.jpg	0	0	0	226.999440701155	227.049437726673	0.0499970255186781
151028	50	308	0	0	sewing_kit	1406	308	0	stimuli\sewing_kit\sewing_kit_05s.jpg	4	-1	0	0	sewing_kit_05s.jpg	0	0	0	227.099455232208	227.149438116758	0.0499828845495358
172712	50	309	0	0	baklava	57	0	1	stimuli\baklava\baklava_02s.jpg	1	-1	1	0	baklava_02s.jpg	1	0	0	248.783353130682	248.833332358103	0.0499792274204083
172812	50	310	0	0	eagle	537	1	1	stimuli\eagle\eagle_10s.jpg	9	-1	1	0	eagle_10s.jpg	0	0	0	248.88335669029	248.93333689298	0.0499802026897669
172912	50	311	0	0	gurney	728	2	1	stimuli\gurney\gurney_08s.jpg	7	-1	1	0	gurney_08s.jpg	0	0	0	248.9833556175	249.033340208756	0.0499845912563615
173012	50	312	0	0	deodorant	479	3	1	stimuli\deodorant\deodorant_08s.jpg	7	-1	1	0	deodorant_08s.jpg	0	0	0	249.083359664772	249.133343768364	0.0499841035925783
173112	50	313	0	0	game	654	4	1	stimuli\game\game_12s.jpg	11	-1	1	0	game_12s.jpg	0	0	0	249.18336224911	249.233345133718	0.0499828846077435
173212	50	314	0	0	worm	1836	5	1	stimuli\worm\worm_11s.jpg	10	-1	1	0	worm_11s.jpg	0	0	0	249.283363614464	249.333388434257	0.0500248197931796
173312	50	315	0	0	thorn	1650	6	1	stimuli\thorn\thorn_05s.jpg	4	-1	1	0	thorn_05s.jpg	0	0	0	249.383370099822	249.433351277723	0.0499811779009178
173412	50	316	0	0	hatbox	758	7	1	stimuli\hatbox\hatbox_07s.jpg	6	-1	1	0	hatbox_07s.jpg	0	0	0	249.483366832777	249.533355324937	0.0499884921591729
173512	50	317	0	0	latch	900	8	1	stimuli\latch\latch_05s.jpg	4	-1	1	0	latch_05s.jpg	0	0	0	249.583373074245	249.633353764541	0.0499806902953424
173612	50	318	0	0	cigar	343	9	1	stimuli\cigar\cigar_09n.jpg	8	-1	1	0	cigar_09n.jpg	0	0	0	249.683371026302	249.733367807989	0.0499967816867866
173712	50	319	0	0	pepper_mill	1151	10	1	stimuli\pepper_mill\pepper_mill_09s.jpg	8	-1	1	0	pepper_mill_09s.jpg	0	0	0	249.783380681125	249.83335942094	0.0499787398148328
173812	50	320	0	0	flute	620	11	1	stimuli\flute\flute_01b.jpg	0	-1	1	0	flute_01b.jpg	0	0	0	249.883403257874	249.933382972958	0.0499797150841914
173912	50	321	0	0	pizza	1192	12	1	stimuli\pizza\pizza_06s.jpg	5	-1	1	0	pizza_06s.jpg	0	0	0	249.983381705126	250.033361907816	0.0499802026897669
174012	50	322	0	0	limousine	931	13	1	stimuli\limousine\limousine_06s.jpg	5	-1	1	0	limousine_06s.jpg	0	0	0	250.083381363773	250.133366198861	0.049984835088253
174112	50	323	0	0	telegraph	1638	14	1	stimuli\telegraph\telegraph_07s.jpg	6	-1	1	0	telegraph_07s.jpg	0	0	0	250.183383216732	250.233372684161	0.0499894674285315
174212	50	324	0	0	polaroid	1212	15	1	stimuli\polaroid\polaroid_12s.jpg	11	-1	1	0	polaroid_12s.jpg	0	0	0	250.283389214484	250.33337258664	0.0499833721551113
174312	50	325	0	0	sled	1460	16	1	stimuli\sled\sled_02s.jpg	1	-1	1	0	sled_02s.jpg	0	0	0	250.383395699784	250.433380047209	0.0499843474244699
174412	50	326	0	0	sweet_potato	1595	17	1	stimuli\sweet_potato\sweet_potato_06s.jpg	5	-1	1	0	sweet_potato_06s.jpg	0	0	0	250.483394139388	250.53337726777	0.0499831283814274
174512	50	327	0	0	turntable	1735	18	1	stimuli\turntable\turntable_01b.jpg	0	-1	1	0	turntable_01b.jpg	0	0	0	250.583392091386	250.63337741408	0.0499853226938285
174612	50	328	0	0	racehorse	1267	19	1	stimuli\racehorse\racehorse_03s.jpg	2	-1	1	0	racehorse_03s.jpg	0	0	0	250.683395407221	250.733384874649	0.0499894674285315
174712	50	329	0	0	fruit	645	20	1	stimuli\fruit\fruit_04s.jpg	3	-1	1	0	fruit_04s.jpg	0	0	0	250.783425785892	250.83339062857	0.0499648426775821
174812	50	330	0	0	guinea_pig	722	21	1	stimuli\guinea_pig\guinea_pig_12s.jpg	11	-1	1	0	guinea_pig_12s.jpg	0	0	0	250.883409109316	250.933391750092	0.0499826407758519
174912	50	331	0	0	totem_pole	1689	22	1	stimuli\totem_pole\totem_pole_03s.jpg	2	-1	1	0	totem_pole_03s.jpg	0	0	0	250.983407792752	251.033393115387	0.0499853226356208
175012	50	332	0	0	dessert	481	23	1	stimuli\dessert\dessert_08s.jpg	7	-1	1	0	dessert_08s.jpg	0	0	0	251.083411108528	251.133397650265	0.049986541736871
175112	50	333	0	0	bone	161	24	1	stimuli\bone\bone_01b.jpg	0	-1	1	0	bone_01b.jpg	0	0	0	251.183415399573	251.233390969865	0.0499755702912807
175212	50	334	0	0	beehive	112	25	1	stimuli\beehive\beehive_03s.jpg	2	-1	1	0	beehive_03s.jpg	0	0	0	251.283413839235	251.33340013714	0.0499862979049794
175312	50	335	0	0	shelf	1416	26	1	stimuli\shelf\shelf_07s.jpg	6	-1	1	0	shelf_07s.jpg	0	0	0	251.383420080761	251.43340467196	0.0499845911981538
175412	50	336	0	0	cherry	316	27	1	stimuli\cherry\cherry_08s.jpg	7	-1	1	0	cherry_08s.jpg	0	0	0	251.4834226651	251.533400185872	0.0499775207717903
175512	50	337	0	0	deer	476	28	1	stimuli\deer\deer_09s.jpg	8	-1	1	0	deer_09s.jpg	0	0	0	251.583423299016	251.633405939792	0.0499826407758519
175612	50	338	0	0	gutter	729	29	1	stimuli\gutter\gutter_10s.jpg	9	-1	1	0	gutter_10s.jpg	0	0	0	251.683420275804	251.733411693713	0.049991417909041
175712	50	339	0	0	harness	754	30	1	stimuli\harness\harness_01b.jpg	0	-1	1	0	harness_01b.jpg	0	0	0	251.783424079185	251.833410133317	0.0499860541312955
175812	50	340	0	0	marmalade	976	31	1	stimuli\marmalade\marmalade_02s.jpg	1	-1	1	0	marmalade_02s.jpg	0	0	0	251.883435196942	251.933413449093	0.0499782521510497
175912	50	341	0	0	kaleidoscope	861	32	1	stimuli\kaleidoscope\kaleidoscope_02s.jpg	1	-1	1	0	kaleidoscope_02s.jpg	0	0	0	251.983432173671	252.033411644923	0.0499794712522998
176012	50	342	0	0	water_cooler	1788	33	1	stimuli\water_cooler\water_cooler_03s.jpg	2	-1	1	0	water_cooler_03s.jpg	0	0	0	252.083430125669	252.13342178741	0.0499916617409326
176112	50	343	0	0	scorpion	1384	34	1	stimuli\scorpion\scorpion_08s.jpg	7	-1	1	0	scorpion_08s.jpg	0	0	0	252.183470256743	252.233442413679	0.0499721569358371
176212	50	344	0	0	cracker	429	35	1	stimuli\cracker\cracker_08s.jpg	7	-1	1	0	cracker_08s.jpg	0	0	0	252.283444803033	252.333421104704	0.0499763016705401
176312	50	345	0	0	pepper1	1149	36	1	stimuli\pepper1\pepper1_10s.jpg	9	-1	1	0	pepper1_10s.jpg	0	0	0	252.383442755032	252.433426127187	0.0499833721551113
176412	50	346	0	0	map	970	37	1	stimuli\map\map_07s.jpg	6	-1	1	0	map_07s.jpg	0	0	0	252.483448996558	252.533430174459	0.0499811779009178
176512	50	347	0	0	cinnamon	348	38	1	stimuli\cinnamon\cinnamon_07s.jpg	6	-1	1	0	cinnamon_07s.jpg	0	0	0	252.583451337123	252.633444949286	0.0499936121632345
176612	50	348	0	0	dragonfly	514	39	1	stimuli\dragonfly\dragonfly_10s.jpg	9	-1	1	0	dragonfly_10s.jpg	0	0	0	252.683448801457	252.733455091773	0.0500062903156504
176712	50	349	0	0	scale	1371	40	1	stimuli\scale\scale_12s.jpg	11	-1	1	0	scale_12s.jpg	0	0	0	252.783475766832	252.833439390466	0.0499636236345395
176812	50	350	0	0	cardboard	272	41	1	stimuli\cardboard\cardboard_07s.jpg	6	-1	1	0	cardboard_07s.jpg	0	0	0	252.88346323499	252.93344343768	0.0499802026897669
176912	50	351	0	0	birdcage	130	42	1	stimuli\birdcage\birdcage_05s.jpg	4	-1	1	0	birdcage_05s.jpg	0	0	0	252.983455091773	253.033441877284	0.0499867855105549
177012	50	352	0	0	microphone	998	43	1	stimuli\microphone\microphone_02n.jpg	1	-1	1	0	microphone_02n.jpg	0	0	0	253.083459382819	253.133447631204	0.049988248385489
177112	50	353	0	0	chickpea	325	44	1	stimuli\chickpea\chickpea_03s.jpg	2	-1	1	0	chickpea_03s.jpg	0	0	0	253.183468306263	253.233449971769	0.0499816655064933
177212	50	354	0	0	turtleneck	1737	45	1	stimuli\turtleneck\turtleneck_07s.jpg	6	-1	1	0	turtleneck_07s.jpg	0	0	0	253.283466502035	253.333452556166	0.0499860541312955
177312	50	355	0	0	envelope	558	46	1	stimuli\envelope\envelope_04s.jpg	3	-1	1	0	envelope_04s.jpg	0	0	0	253.383473474998	253.433450264332	0.0499767893343233
177412	50	356	0	0	playpen	1200	47	1	stimuli\playpen\playpen_12s.jpg	11	-1	1	0	playpen_12s.jpg	0	0	0	253.483470451785	253.533452604897	0.0499821531120688
177512	50	357	0	0	goggles	686	48	1	stimuli\goggles\goggles_04s.jpg	3	-1	1	0	goggles_04s.jpg	0	0	0	253.583471817081	253.633459821693	0.0499880046118051
177612	50	358	0	0	pencil	1142	49	1	stimuli\pencil\pencil_03s.jpg	2	-1	1	0	pencil_03s.jpg	0	0	0	253.683476595732	253.733460455551	0.0499838598188944
177712	50	359	0	0	rack2	1269	50	1	stimuli\rack2\rack2_12s.jpg	11	-1	1	0	rack2_12s.jpg	0	0	0	253.783476254437	253.833464502823	0.049988248385489
177812	50	360	0	0	cauliflower	288	51	1	stimuli\cauliflower\cauliflower_03s.jpg	2	-1	1	0	cauliflower_03s.jpg	0	0	0	253.883487128303	253.933489517658	0.0500023893546313
177912	50	361	0	0	toy	1694	52	1	stimuli\toy\toy_08s.jpg	7	-1	1	0	toy_08s.jpg	0	0	0	253.983491907013	254.033468940121	0.0499770331080072
178012	50	362	0	0	hoe	784	53	1	stimuli\hoe\hoe_04s.jpg	3	-1	1	0	hoe_04s.jpg	0	0	0	254.083483763738	254.13347566931	0.0499919055728242
178112	50	363	0	0	candle	253	54	1	stimuli\candle\candle_09n.jpg	8	-1	1	0	candle_09n.jpg	0	0	0	254.183493174787	254.233473377477	0.0499802026897669
178212	50	364	0	0	hard_disk	752	55	1	stimuli\hard_disk\hard_disk_02s.jpg	1	-1	1	0	hard_disk_02s.jpg	0	0	0	254.283494783915	254.333477668522	0.0499828846077435
178312	50	365	0	0	microscope	999	56	1	stimuli\microscope\microscope_06s.jpg	5	-1	1	0	microscope_06s.jpg	0	0	0	254.383506145445	254.433485616697	0.0499794712522998
178412	50	366	0	0	leg	911	57	1	stimuli\leg\leg_03s.jpg	2	-1	1	0	leg_03s.jpg	0	0	0	254.483505072712	254.533484300133	0.0499792274204083
178512	50	367	0	0	steamroller	1545	58	1	stimuli\steamroller\steamroller_10s.jpg	9	-1	1	0	steamroller_10s.jpg	0	0	0	254.583502780879	254.633489078784	0.0499862979049794
178612	50	368	0	0	woman	1832	59	1	stimuli\woman\woman_09s.jpg	8	-1	1	0	woman_09s.jpg	0	0	0	254.683505609108	254.733483861259	0.0499782521510497
178712	50	369	0	0	napkin_ring	1051	60	1	stimuli\napkin_ring\napkin_ring_07s.jpg	6	-1	1	0	napkin_ring_07s.jpg	0	0	0	254.783503561106	254.83348595805	0.0499823969439603
178812	50	370	0	0	brake	191	61	1	stimuli\brake\brake_11s.jpg	10	-1	1	0	brake_11s.jpg	0	0	0	254.883507852152	254.933498294791	0.0499904426396824
178912	50	371	0	0	candlestick	254	62	1	stimuli\candlestick\candlestick_03s.jpg	2	-1	1	0	candlestick_03s.jpg	0	0	0	254.983515312721	255.033497465833	0.0499821531120688
179012	50	372	0	0	ice_cube	819	63	1	stimuli\ice_cube\ice_cube_04s.jpg	3	-1	1	0	ice_cube_04s.jpg	0	0	0	255.083516678016	255.133489322616	0.0499726445996203
179112	50	373	0	0	crepe	440	64	1	stimuli\crepe\crepe_05s.jpg	4	-1	1	0	crepe_05s.jpg	0	0	0	255.183498051018	255.233518482244	0.0500204312265851
179212	50	374	0	0	water_bottle	1787	65	1	stimuli\water_bottle\water_bottle_07s.jpg	6	-1	1	0	water_bottle_07s.jpg	0	0	0	255.283526235376	255.333518628497	0.049992393120192
179312	50	375	0	0	snail	1476	66	1	stimuli\snail\snail_11s.jpg	10	-1	1	0	snail_11s.jpg	0	0	0	255.383543204516	255.433524870023	0.0499816655064933
179412	50	376	0	0	ruby	1338	67	1	stimuli\ruby\ruby_03s.jpg	2	-1	1	0	ruby_03s.jpg	0	0	0	255.48352847842	255.53350673063	0.0499782522092573
179512	50	377	0	0	button1	230	68	1	stimuli\button1\button1_07s.jpg	6	-1	1	0	button1_07s.jpg	0	0	0	255.583530818985	255.633516385453	0.0499855664675124
179612	50	378	0	0	clothes	361	69	1	stimuli\clothes\clothes_10s.jpg	9	-1	1	0	clothes_10s.jpg	0	0	0	255.683550713817	255.733527015545	0.0499763017287478
179712	50	379	0	0	shawl	1411	70	1	stimuli\shawl\shawl_02s.jpg	1	-1	1	0	shawl_02s.jpg	0	0	0	255.783549884858	255.833513752325	0.0499638674664311
179812	50	380	0	0	pine_tree	1181	71	1	stimuli\pine_tree\pine_tree_09s.jpg	8	-1	1	0	pine_tree_09s.jpg	0	0	0	255.883554419735	255.933533403382	0.0499789836467244
179912	50	381	0	0	ruler	1341	72	1	stimuli\ruler\ruler_04s.jpg	3	-1	1	0	ruler_04s.jpg	0	0	0	255.983559929824	256.03353696299	0.0499770331662148
180012	50	382	0	0	boa	150	73	1	stimuli\boa\boa_01s.jpg	0	-1	1	0	boa_01s.jpg	0	0	0	256.083542765642	256.133520774019	0.0499780083773658
180112	50	383	0	0	windowsill	1819	74	1	stimuli\windowsill\windowsill_04s.jpg	3	-1	1	0	windowsill_04s.jpg	0	0	0	256.183533890988	256.233540181245	0.0500062902574427
180212	50	384	0	0	pudding	1246	75	1	stimuli\pudding\pudding_06s.jpg	5	-1	1	0	pudding_06s.jpg	0	0	0	256.283546227729	256.333518628497	0.0499724007677287
180312	50	385	0	0	fly	621	76	1	stimuli\fly\fly_09s.jpg	8	-1	1	0	fly_09s.jpg	0	0	0	256.383541985473	256.433519750019	0.0499777645454742
180412	50	386	0	0	tape	1622	77	1	stimuli\tape\tape_01b.jpg	0	-1	1	0	tape_01b.jpg	0	0	0	256.483538962202	256.533522822021	0.0499838598188944
180512	50	387	0	0	banana	63	78	1	stimuli\banana\banana_12s.jpg	11	-1	1	0	banana_12s.jpg	0	0	0	256.583539596118	256.633523455937	0.0499838598188944
180612	50	388	0	0	soup	1499	79	1	stimuli\soup\soup_04s.jpg	3	-1	1	0	soup_04s.jpg	0	0	0	256.683540473809	256.733568463183	0.0500279893749394
180712	50	389	0	0	record	1295	80	1	stimuli\record\record_06s.jpg	5	-1	1	0	record_06s.jpg	0	0	0	256.783560856304	256.833541302767	0.0499804464634508
180812	50	390	0	0	balloon	60	81	1	stimuli\balloon\balloon_10s.jpg	9	-1	1	0	balloon_10s.jpg	0	0	0	256.883592697792	256.933566073829	0.0499733760370873
180912	50	391	0	0	flower	619	82	1	stimuli\flower\flower_05s.jpg	4	-1	1	0	flower_05s.jpg	0	0	0	256.983571632649	257.033567682956	0.0499960503075272
181012	50	392	0	0	eye_patch	565	83	1	stimuli\eye_patch\eye_patch_02s.jpg	1	-1	1	0	eye_patch_02s.jpg	0	0	0	257.083572022791	257.13355856447	0.0499865416786633
181112	50	393	0	0	sofa_bed	1492	84	1	stimuli\sofa_bed\sofa_bed_03s.jpg	2	-1	1	0	sofa_bed_03s.jpg	0	0	0	257.183570706227	257.233555053652	0.0499843474244699
181212	50	394	0	0	berry	121	85	1	stimuli\berry\berry_02s.jpg	1	-1	1	0	berry_02s.jpg	0	0	0	257.283570608706	257.333558369428	0.0499877607217059
181312	50	395	0	0	corset	418	86	1	stimuli\corset\corset_05s.jpg	4	-1	1	0	corset_05s.jpg	0	0	0	257.383585871139	257.433586066181	0.0500001950422302
181412	50	396	0	0	mattress	985	87	1	stimuli\mattress\mattress_08s.jpg	7	-1	1	0	mattress_08s.jpg	0	0	0	257.483609666931	257.533579629613	0.0499699626816437
181512	50	397	0	0	coffee_filter	379	88	1	stimuli\coffee_filter\coffee_filter_01b.jpg	0	-1	1	0	coffee_filter_01b.jpg	0	0	0	257.583677836054	257.633579532092	0.0499016960384324
181612	50	398	0	0	chariot	309	89	1	stimuli\chariot\chariot_05s.jpg	4	-1	1	0	chariot_05s.jpg	0	0	0	257.683601913799	257.73358040984	0.0499784960411489
181712	50	399	0	0	oyster	1092	90	1	stimuli\oyster\oyster_04s.jpg	3	-1	1	0	oyster_04s.jpg	0	0	0	257.783598890586	257.833578849444	0.0499799588578753
181812	50	400	0	0	skull	1458	91	1	stimuli\skull\skull_09s.jpg	8	-1	1	0	skull_09s.jpg	0	0	0	257.883606351155	257.93357265665	0.0499663054943085
181912	50	401	0	0	teddy_bear	1635	92	1	stimuli\teddy_bear\teddy_bear_01b.jpg	0	-1	1	0	teddy_bear_01b.jpg	0	0	0	257.983615518373	258.033592307707	0.0499767893343233
182012	50	402	0	0	centrifuge	296	93	1	stimuli\centrifuge\centrifuge_09s.jpg	8	-1	1	0	centrifuge_09s.jpg	0	0	0	258.083602498926	258.133617322543	0.050014823616948
182112	50	403	0	0	vacuum	1750	94	1	stimuli\vacuum\vacuum_03s.jpg	2	-1	1	0	vacuum_03s.jpg	0	0	0	258.183623856632	258.233601621236	0.0499777646036819
182212	50	404	0	0	polar_bear	1211	95	1	stimuli\polar_bear\polar_bear_04s.jpg	3	-1	1	0	polar_bear_04s.jpg	0	0	0	258.283622052462	258.33360298659	0.0499809341272339
182312	50	405	0	0	solar_panel	1493	96	1	stimuli\solar_panel\solar_panel_01b.jpg	0	-1	1	0	solar_panel_01b.jpg	0	0	0	258.383611958765	258.433584359533	0.0499724007677287
182412	50	406	0	0	ice	816	97	1	stimuli\ice\ice_05s.jpg	4	-1	1	0	ice_05s.jpg	0	0	0	258.483610398369	258.533585481055	0.0499750826857053
182512	50	407	0	0	rosary	1333	98	1	stimuli\rosary\rosary_04s.jpg	3	-1	1	0	rosary_04s.jpg	0	0	0	258.583606156113	258.633590991143	0.0499848350300454
182612	50	408	0	0	earring	540	99	1	stimuli\earring\earring_10s.jpg	9	-1	1	0	earring_10s.jpg	0	0	0	258.683609959495	258.73359064979	0.0499806902953424
182712	50	409	0	0	frog	644	100	1	stimuli\frog\frog_01b.jpg	0	-1	1	0	frog_01b.jpg	0	0	0	258.783608155325	258.833595428499	0.049987273174338
182812	50	410	0	0	flamethrower	607	101	1	stimuli\flamethrower\flamethrower_07s.jpg	6	-1	1	0	flamethrower_07s.jpg	0	0	0	258.883614640683	258.933594111935	0.0499794712522998
182912	50	411	0	0	crane	431	102	1	stimuli\crane\crane_03s.jpg	2	-1	1	0	crane_03s.jpg	0	0	0	258.983619663108	259.033599378192	0.0499797150841914
183012	50	412	0	0	sailboat	1347	103	1	stimuli\sailboat\sailboat_07s.jpg	6	-1	1	0	sailboat_07s.jpg	0	0	0	259.083615908457	259.133600499714	0.0499845912563615
183112	50	413	0	0	gauge	663	104	1	stimuli\gauge\gauge_11s.jpg	10	-1	1	0	gauge_11s.jpg	0	0	0	259.18365018809	259.233609179326	0.0499589912360534
183212	50	414	0	0	bok_choy	156	105	1	stimuli\bok_choy\bok_choy_11s.jpg	10	-1	1	0	bok_choy_11s.jpg	0	0	0	259.283646677213	259.333627123677	0.0499804464634508
183312	50	415	0	0	shorts	1430	106	1	stimuli\shorts\shorts_05s.jpg	4	-1	1	0	shorts_05s.jpg	0	0	0	259.383648774005	259.433618736686	0.0499699626816437
183412	50	416	0	0	hose	800	107	1	stimuli\hose\hose_06s.jpg	5	-1	1	0	hose_06s.jpg	0	0	0	259.483631853596	259.533612300118	0.0499804465216585
183512	50	417	0	0	flashbulb	610	108	1	stimuli\flashbulb\flashbulb_06s.jpg	5	-1	1	0	flashbulb_06s.jpg	0	0	0	259.583632731345	259.633651212091	0.0500184807460755
183612	50	418	0	0	pipe1	1186	109	1	stimuli\pipe1\pipe1_04s.jpg	3	-1	1	0	pipe1_04s.jpg	0	0	0	259.683644824254	259.73364258121	0.0499977569561452
183712	50	419	0	0	shopping_cart	1428	110	1	stimuli\shopping_cart\shopping_cart_09s.jpg	8	-1	1	0	shopping_cart_09s.jpg	0	0	0	259.783659842913	259.833638338954	0.0499784960411489
183812	50	420	0	0	rollerskate	1327	111	1	stimuli\rollerskate\rollerskate_09s.jpg	8	-1	1	0	rollerskate_09s.jpg	0	0	0	259.883660720661	259.933630927117	0.0499702064553276
183912	50	421	0	0	pancake	1104	112	1	stimuli\pancake\pancake_01b.jpg	0	-1	1	0	pancake_01b.jpg	0	0	0	259.983644531691	260.033624978154	0.0499804464634508
184012	50	422	0	0	bulldozer	215	113	1	stimuli\bulldozer\bulldozer_08s.jpg	7	-1	1	0	bulldozer_08s.jpg	0	0	0	260.083629561821	260.133643410169	0.0500138483475894
184112	50	423	0	0	walrus	1779	114	1	stimuli\walrus\walrus_05s.jpg	4	-1	1	0	walrus_05s.jpg	0	0	0	260.183651894738	260.233632097428	0.0499802026897669
184212	50	424	0	0	wax_paper	1796	115	1	stimuli\wax_paper\wax_paper_08s.jpg	7	-1	1	0	wax_paper_08s.jpg	0	0	0	260.283646677213	260.333627855114	0.0499811779009178
184312	50	425	0	0	flip_flop	614	116	1	stimuli\flip_flop\flip_flop_05s.jpg	4	-1	1	0	flip_flop_05s.jpg	0	0	0	260.383632194949	260.433637997601	0.0500058026518673
184412	50	426	0	0	champagne	304	117	1	stimuli\champagne\champagne_06s.jpg	5	-1	1	1	champagne_06s.jpg	0	0	0	260.483654284093	260.533633267682	0.0499789835885167
184512	50	427	0	0	meatloaf	990	118	1	stimuli\meatloaf\meatloaf_03s.jpg	2	-1	1	0	meatloaf_03s.jpg	0	0	0	260.583655405615	260.633640972083	0.0499855664675124
184612	50	428	0	0	orchid	1081	119	1	stimuli\orchid\orchid_06s.jpg	5	-1	1	0	orchid_06s.jpg	0	0	0	260.683656527137	260.733652577386	0.0499960502493195
184712	50	429	0	0	minivan	1003	120	1	stimuli\minivan\minivan_11s.jpg	10	-1	1	0	minivan_11s.jpg	0	0	0	260.783666425792	260.833642971294	0.0499765455024317
184812	50	430	0	0	anvil	28	121	1	stimuli\anvil\anvil_05s.jpg	4	-1	1	0	anvil_05s.jpg	0	0	0	260.883665353002	260.933672374755	0.0500070217531174
184912	50	431	0	0	plaster_cast	1195	122	1	stimuli\plaster_cast\plaster_cast_02s.jpg	1	-1	1	0	plaster_cast_02s.jpg	0	0	0	260.983693537419	261.033656917221	0.049963379802648
185012	50	432	0	0	bandanna	67	123	1	stimuli\bandanna\bandanna_12s.jpg	11	-1	1	0	bandanna_12s.jpg	0	0	0	261.083669302752	261.133656088263	0.0499867855105549
185112	50	433	0	0	turtle	1736	124	1	stimuli\turtle\turtle_07s.jpg	6	-1	1	0	turtle_07s.jpg	0	0	0	261.183676031884	261.233652333613	0.0499763017287478
185212	50	434	0	0	eyepiece	568	125	1	stimuli\eyepiece\eyepiece_06s.jpg	5	-1	1	0	eyepiece_06s.jpg	0	0	0	261.283672521007	261.333657112264	0.0499845912563615
185312	50	435	0	0	hotdog	805	126	1	stimuli\hotdog\hotdog_03s.jpg	2	-1	1	0	hotdog_03s.jpg	0	0	0	261.383671204443	261.433663597621	0.0499923931783997
185412	50	436	0	0	bowtie	180	127	1	stimuli\bowtie\bowtie_06s.jpg	5	-1	1	0	bowtie_06s.jpg	0	0	0	261.483683297411	261.533668132441	0.0499848350300454
185512	50	437	0	0	applesauce	32	128	1	stimuli\applesauce\applesauce_03s.jpg	2	-1	1	0	applesauce_03s.jpg	0	0	0	261.58368222462	261.63366437779	0.0499821531702764
185612	50	438	0	0	ski_boots	1453	129	1	stimuli\ski_boots\ski_boots_04s.jpg	3	-1	1	0	ski_boots_04s.jpg	0	0	0	261.683687734709	261.733677445969	0.0499897112604231
185712	50	439	0	0	button2	231	130	1	stimuli\button2\button2_05s.jpg	4	-1	1	0	button2_05s.jpg	0	0	0	261.783687637188	261.833672716049	0.0499850788619369
185812	50	440	0	0	paperweight	1117	131	1	stimuli\paperweight\paperweight_11s.jpg	10	-1	1	0	paperweight_11s.jpg	0	0	0	261.883693147276	261.933674569009	0.0499814217328094
185912	50	441	0	0	asparagus	42	132	1	stimuli\asparagus\asparagus_12s.jpg	11	-1	1	0	asparagus_12s.jpg	0	0	0	261.983690611669	262.033674471488	0.0499838598188944
186012	50	442	0	0	kebab	865	133	1	stimuli\kebab\kebab_04n.jpg	3	-1	1	0	kebab_04n.jpg	0	0	0	262.083692220796	262.133661452099	0.0499692313023843
186112	50	443	0	0	quilt	1264	134	1	stimuli\quilt\quilt_03s.jpg	2	-1	1	0	quilt_03s.jpg	0	0	0	262.183705532807	262.233710847853	0.0500053150462918
186212	50	444	0	0	license_plate	921	135	1	stimuli\license_plate\license_plate_01b.jpg	0	-1	1	0	license_plate_01b.jpg	0	0	0	262.283707873372	262.33368783223	0.0499799588578753
186312	50	445	0	0	umbrella	1743	136	1	stimuli\umbrella\umbrella_09s.jpg	8	-1	1	0	umbrella_09s.jpg	0	0	0	262.383706069202	262.433684565185	0.0499784959829412
186412	50	446	0	0	cake	237	137	1	stimuli\cake\cake_03s.jpg	2	-1	1	0	cake_03s.jpg	0	0	0	262.483729864995	262.533710311458	0.0499804464634508
186512	50	447	0	0	cage	236	138	1	stimuli\cage\cage_06s.jpg	5	-1	1	0	cage_06s.jpg	0	0	0	262.583732936997	262.633696804463	0.0499638674664311
186612	50	448	0	0	book	165	139	1	stimuli\book\book_02s.jpg	1	-1	1	0	book_02s.jpg	0	0	0	262.683738203312	262.733696219278	0.0499580159666948
186712	50	449	0	0	rim	1312	140	1	stimuli\rim\rim_06s.jpg	5	-1	1	0	rim_06s.jpg	0	0	0	262.783714943856	262.833693927503	0.0499789836467244
186812	50	450	0	0	water_fountain	1790	141	1	stimuli\water_fountain\water_fountain_11s.jpg	10	-1	1	0	water_fountain_11s.jpg	0	0	0	262.883715333941	262.93370114424	0.049985810299404
186912	50	451	0	0	mole	1014	142	1	stimuli\mole\mole_05s.jpg	4	-1	1	0	mole_05s.jpg	0	0	0	262.983716455463	263.033707385766	0.0499909303034656
187012	50	452	0	0	watch	1786	143	1	stimuli\watch\watch_02s.jpg	1	-1	1	0	watch_02s.jpg	0	0	0	263.083721477946	263.13371143298	0.049989955034107
187112	50	453	0	0	gyro	730	144	1	stimuli\gyro\gyro_10s.jpg	9	-1	1	0	gyro_10s.jpg	0	0	0	263.18372186803	263.233713042166	0.0499911741353571
187212	50	454	0	0	paddle	1094	145	1	stimuli\paddle\paddle_11s.jpg	10	-1	1	0	paddle_11s.jpg	0	0	0	263.283730791474	263.333710750332	0.0499799588578753
187312	50	455	0	0	raspberry	1284	146	1	stimuli\raspberry\raspberry_06s.jpg	5	-1	1	0	raspberry_06s.jpg	0	0	0	263.383726305387	263.433711140417	0.0499848350300454
187412	50	456	0	0	dartboard	474	147	1	stimuli\dartboard\dartboard_01b.jpg	0	-1	1	0	dartboard_01b.jpg	0	0	0	263.483731327869	263.533715187688	0.0499838598188944
187512	50	457	0	0	aircraft_carrier	9	148	1	stimuli\aircraft_carrier\aircraft_carrier_09s.jpg	8	-1	1	0	aircraft_carrier_09s.jpg	0	0	0	263.583733912208	263.633720697777	0.0499867855687626
187612	50	458	0	0	boxer_shorts	182	149	1	stimuli\boxer_shorts\boxer_shorts_12s.jpg	11	-1	1	0	boxer_shorts_12s.jpg	0	0	0	263.68373990996	263.733721087861	0.0499811779009178
187712	50	459	0	0	toothpaste	1680	150	1	stimuli\toothpaste\toothpaste_12s.jpg	11	-1	1	1	toothpaste_12s.jpg	0	0	0	263.783721039072	263.833723672258	0.0500026331865229
187812	50	460	0	0	eggshell	551	151	1	stimuli\eggshell\eggshell_06s.jpg	5	-1	1	0	eggshell_06s.jpg	0	0	0	263.883740446356	263.933723087073	0.0499826407176442
187912	50	461	0	0	keyboard	870	152	1	stimuli\keyboard\keyboard_09s.jpg	8	-1	1	0	keyboard_09s.jpg	0	0	0	263.983743274526	264.033725915302	0.0499826407758519
188012	50	462	0	0	mug	1036	153	1	stimuli\mug\mug_03s.jpg	2	-1	1	0	mug_03s.jpg	0	0	0	264.083743420779	264.133728743473	0.0499853226938285
188112	50	463	0	0	trunk	1722	154	1	stimuli\trunk\trunk_10s.jpg	9	-1	1	0	trunk_10s.jpg	0	0	0	264.18374551757	264.233732546913	0.0499870293424465
188212	50	464	0	0	koala	884	155	1	stimuli\koala\koala_09s.jpg	8	-1	1	0	koala_09s.jpg	0	0	0	264.283748833346	264.333738057001	0.0499892236548476
188312	50	465	0	0	ottoman	1086	156	1	stimuli\ottoman\ottoman_12s.jpg	11	-1	1	0	ottoman_12s.jpg	0	0	0	264.383763120626	264.433743323258	0.0499802026315592
188412	50	466	0	0	crystal2	454	157	1	stimuli\crystal2\crystal2_02s.jpg	1	-1	1	0	crystal2_02s.jpg	0	0	0	264.483761316398	264.5337437134	0.049982397002168
188512	50	467	0	0	watermelon	1793	158	1	stimuli\watermelon\watermelon_09s.jpg	8	-1	1	0	watermelon_09s.jpg	0	0	0	264.583779016975	264.633745566302	0.0499665493262
188612	50	468	0	0	punch2	1255	159	1	stimuli\punch2\punch2_06s.jpg	5	-1	1	0	punch2_06s.jpg	0	0	0	264.683767704235	264.733748882136	0.0499811779009178
188712	50	469	0	0	corkscrew	411	160	1	stimuli\corkscrew\corkscrew_10s.jpg	9	-1	1	0	corkscrew_10s.jpg	0	0	0	264.783767119108	264.833754392224	0.0499872731161304
188812	50	470	0	0	cardigan	273	161	1	stimuli\cardigan\cardigan_06s.jpg	5	-1	1	0	cardigan_06s.jpg	0	0	0	264.883776042494	264.933754538535	0.0499784960411489
188912	50	471	0	0	cup	460	162	1	stimuli\cup\cup_07s.jpg	6	-1	1	0	cup_07s.jpg	0	0	0	264.983775213535	265.033755416225	0.0499802026897669
189012	50	472	0	0	bazooka	98	163	1	stimuli\bazooka\bazooka_11s.jpg	10	-1	1	0	bazooka_11s.jpg	0	0	0	265.083777066495	265.133761170146	0.049984103650786
189112	50	473	0	0	patch	1125	164	1	stimuli\patch\patch_10s.jpg	9	-1	1	0	patch_10s.jpg	0	0	0	265.183775993763	265.233757903101	0.0499819093383849
189212	50	474	0	0	sandcastle	1355	165	1	stimuli\sandcastle\sandcastle_03s.jpg	2	-1	1	0	sandcastle_03s.jpg	0	0	0	265.283776627621	265.333763413189	0.0499867855687626
189312	50	475	0	0	soda	1490	166	1	stimuli\soda\soda_03s.jpg	2	-1	1	0	soda_03s.jpg	0	0	0	265.383784332022	265.433765509923	0.0499811779009178
189412	50	476	0	0	jam	839	167	1	stimuli\jam\jam_09s.jpg	8	-1	1	0	jam_09s.jpg	0	0	0	265.483785697375	265.533766143839	0.0499804464634508
189512	50	477	0	0	olive	1075	168	1	stimuli\olive\olive_06s.jpg	5	-1	1	0	olive_06s.jpg	0	0	0	265.583783161768	265.633772629197	0.0499894674285315
189612	50	478	0	0	chainsaw	299	169	1	stimuli\chainsaw\chainsaw_03s.jpg	2	-1	1	0	chainsaw_03s.jpg	0	0	0	265.683793791861	265.733772775449	0.0499789835885167
189712	50	479	0	0	crab	428	170	1	stimuli\crab\crab_04s.jpg	3	-1	1	0	crab_04s.jpg	0	0	0	265.783789305715	265.833771946491	0.0499826407758519
189812	50	480	0	0	water_heater	1791	171	1	stimuli\water_heater\water_heater_04s.jpg	3	-1	1	0	water_heater_04s.jpg	0	0	0	265.883790427237	265.933780138497	0.0499897112604231
189912	50	481	0	0	mongoose	1016	172	1	stimuli\mongoose\mongoose_09s.jpg	8	-1	1	0	mongoose_09s.jpg	0	0	0	265.983798131638	266.033781747625	0.0499836159870028
190012	50	482	0	0	gong	692	173	1	stimuli\gong\gong_05s.jpg	4	-1	1	0	gong_05s.jpg	0	0	0	266.083800228429	266.133783600584	0.0499833721551113
190112	50	483	0	0	can	250	174	1	stimuli\can\can_04s.jpg	3	-1	1	0	can_04s.jpg	0	0	0	266.183806713729	266.233788135462	0.0499814217328094
190212	50	484	0	0	matchbox	984	175	1	stimuli\matchbox\matchbox_09s.jpg	8	-1	1	0	matchbox_09s.jpg	0	0	0	266.283807347645	266.333787306503	0.0499799588578753
190312	50	485	0	0	accordion	2	176	1	stimuli\accordion\accordion_10s.jpg	9	-1	1	0	accordion_10s.jpg	0	0	0	266.383812126296	266.433793304197	0.0499811779009178
190412	50	486	0	0	buckle	210	177	1	stimuli\buckle\buckle_01b.jpg	0	-1	1	0	buckle_01b.jpg	0	0	0	266.483811784943	266.533797351469	0.0499855665257201
190512	50	487	0	0	handle	748	178	1	stimuli\handle\handle_07s.jpg	6	-1	1	0	handle_07s.jpg	0	0	0	266.583812662691	266.633800423471	0.0499877607799135
190612	50	488	0	0	blouse	144	179	1	stimuli\blouse\blouse_06s.jpg	5	-1	1	0	blouse_06s.jpg	0	0	0	266.683816953737	266.733799350681	0.0499823969439603
190712	50	489	0	0	rudder	1339	180	1	stimuli\rudder\rudder_09s.jpg	8	-1	1	1	rudder_09s.jpg	0	0	0	266.783819294302	266.833804129332	0.0499848350300454
190812	50	490	0	0	icepick	822	181	1	stimuli\icepick\icepick_01b.jpg	0	-1	1	0	icepick_01b.jpg	0	0	0	266.883826267265	266.933807201334	0.0499809340690263
190912	50	491	0	0	girl	676	182	1	stimuli\girl\girl_06s.jpg	5	-1	1	0	girl_06s.jpg	0	0	0	266.983817148779	267.033804178121	0.0499870293424465
191012	50	492	0	0	joystick	852	183	1	stimuli\joystick\joystick_10s.jpg	9	-1	1	0	joystick_10s.jpg	0	0	0	267.083823634137	267.133806274855	0.0499826407176442
191112	50	493	0	0	torch	1683	184	1	stimuli\torch\torch_02s.jpg	1	-1	1	0	torch_02s.jpg	0	0	0	267.183834751835	267.23380300781	0.049968255974818
191212	50	494	0	0	glass	677	185	1	stimuli\glass\glass_02s.jpg	1	-1	1	0	glass_02s.jpg	0	0	0	267.283819781907	267.333822415036	0.0500026331283152
191312	50	495	0	0	pie	1168	186	1	stimuli\pie\pie_03s.jpg	2	-1	1	0	pie_03s.jpg	0	0	0	267.383857962501	267.433837189921	0.0499792274204083
191412	50	496	0	0	doorknocker	510	187	1	stimuli\doorknocker\doorknocker_05s.jpg	4	-1	1	0	doorknocker_05s.jpg	0	0	0	267.483856645878	267.533820757177	0.0499641112983227
191512	50	497	0	0	bedpost	110	188	1	stimuli\bedpost\bedpost_10s.jpg	9	-1	1	0	bedpost_10s.jpg	0	0	0	267.583836799837	267.633820659656	0.0499838598188944
191612	50	498	0	0	baseball_glove	80	189	1	stimuli\baseball_glove\baseball_glove_12s.jpg	11	-1	1	0	baseball_glove_12s.jpg	1	0.892193075618707	1	267.683836946089	267.733823731658	0.0499867855687626
191712	50	499	0	0	station_wagon	1542	190	1	stimuli\station_wagon\station_wagon_03s.jpg	2	-1	1	0	station_wagon_03s.jpg	0	0	0	267.783843675221	267.833846796013	0.0500031207920983
191812	50	500	0	0	keyhole	871	191	1	stimuli\keyhole\keyhole_03s.jpg	2	-1	1	0	keyhole_03s.jpg	0	0	0	267.88384845393	267.933835970878	0.0499875169480219
191912	50	501	0	0	guardrail	720	192	1	stimuli\guardrail\guardrail_12s.jpg	11	-1	1	0	guardrail_12s.jpg	0	0	0	267.983870786848	268.033837823838	0.0499670369899832
192012	50	502	0	0	paintbrush	1097	193	1	stimuli\paintbrush\paintbrush_06s.jpg	5	-1	1	0	paintbrush_06s.jpg	0	0	0	268.08387385885	268.133843333926	0.0499694750760682
192112	50	503	0	0	sim_card	1446	194	1	stimuli\sim_card\sim_card_01b.jpg	0	-1	1	0	sim_card_01b.jpg	0	0	0	268.183860108024	268.233840066881	0.0499799588578753
192212	50	504	0	0	duct_tape	528	195	1	stimuli\duct_tape\duct_tape_07s.jpg	6	-1	1	0	duct_tape_07s.jpg	0	0	0	268.283859279065	268.333838262653	0.0499789835885167
192312	50	505	0	0	buffet	211	196	1	stimuli\buffet\buffet_11s.jpg	10	-1	1	0	buffet_11s.jpg	0	0	0	268.383875760541	268.433845479449	0.0499697189079598
192412	50	506	0	0	hovercraft	808	197	1	stimuli\hovercraft\hovercraft_04s.jpg	3	-1	1	0	hovercraft_04s.jpg	0	0	0	268.483859571628	268.533840749529	0.0499811779009178
192512	50	507	0	0	marijuana	974	198	1	stimuli\marijuana\marijuana_11s.jpg	10	-1	1	0	marijuana_11s.jpg	0	0	0	268.583861180756	268.633852598665	0.049991417909041
192612	50	508	0	0	juicer2	856	199	1	stimuli\juicer2\juicer2_03s.jpg	2	-1	1	0	juicer2_03s.jpg	0	0	0	268.683866934676	268.733848112577	0.0499811779009178
192712	50	509	0	0	necklace	1054	200	1	stimuli\necklace\necklace_05s.jpg	4	-1	1	0	necklace_05s.jpg	0	0	0	268.783867812366	268.833853378834	0.0499855664675124
192812	50	510	0	0	fire_hydrant	592	201	1	stimuli\fire_hydrant\fire_hydrant_04s.jpg	3	-1	1	0	fire_hydrant_04s.jpg	0	0	0	268.883867471071	268.93386157084	0.04999409976881
192912	50	511	0	0	coverall	425	202	1	stimuli\coverall\coverall_04s.jpg	3	-1	1	0	coverall_04s.jpg	0	0	0	268.983877369727	269.033860985714	0.0499836159870028
193012	50	512	0	0	batter	96	203	1	stimuli\batter\batter_05s.jpg	4	-1	1	0	batter_05s.jpg	0	0	0	269.083878978854	269.133866739634	0.0499877607799135
193112	50	513	0	0	grasshopper	706	204	1	stimuli\grasshopper\grasshopper_07s.jpg	6	-1	1	0	grasshopper_07s.jpg	0	0	0	269.183877174684	269.233862009714	0.0499848350300454
193212	50	514	0	0	tack	1611	205	1	stimuli\tack\tack_11s.jpg	10	-1	1	0	tack_11s.jpg	0	0	0	269.28388146573	269.333868738846	0.0499872731161304
193312	50	515	0	0	raisin	1280	206	1	stimuli\raisin\raisin_10s.jpg	9	-1	1	0	raisin_10s.jpg	0	0	0	269.38388990151	269.433874248934	0.0499843474244699
193412	50	516	0	0	footprint	632	207	1	stimuli\footprint\footprint_01b.jpg	0	-1	1	0	footprint_01b.jpg	0	0	0	269.483888341114	269.533873176202	0.049984835088253
193512	50	517	0	0	dip	487	208	1	stimuli\dip\dip_05s.jpg	4	-1	1	0	dip_05s.jpg	0	0	0	269.583887268382	269.633877711021	0.0499904426396824
193612	50	518	0	0	underwear	1745	209	1	stimuli\underwear\underwear_02s.jpg	1	-1	1	0	underwear_02s.jpg	0	0	0	269.683891315595	269.733874687809	0.0499833722133189
193712	50	519	0	0	hook2	794	210	1	stimuli\hook2\hook2_12s.jpg	11	-1	1	0	hook2_12s.jpg	0	0	0	269.783894875203	269.833878978854	0.049984103650786
193812	50	520	0	0	nose	1063	211	1	stimuli\nose\nose_07s.jpg	6	-1	1	0	nose_07s.jpg	0	0	0	269.883895752952	269.933902043209	0.0500062902574427
193912	50	521	0	0	grenade	713	212	1	stimuli\grenade\grenade_11s.jpg	10	-1	1	0	grenade_11s.jpg	1	0	0	269.983900287771	270.033884879027	0.0499845912563615
194012	50	522	0	0	stalagmite	1534	213	1	stimuli\stalagmite\stalagmite_02s.jpg	1	-1	1	0	stalagmite_02s.jpg	0	0	0	270.083903603605	270.133890876779	0.049987273174338
194112	50	523	0	0	gazelle	666	214	1	stimuli\gazelle\gazelle_01b.jpg	0	-1	1	1	gazelle_01b.jpg	0	0	0	270.183909601299	270.233891998301	0.049982397002168
194212	50	524	0	0	mitten	1008	215	1	stimuli\mitten\mitten_09s.jpg	8	-1	1	0	mitten_09s.jpg	0	0	0	270.28391169809	270.333893119823	0.0499814217328094
194312	50	525	0	0	cream_cheese	437	216	1	stimuli\cream_cheese\cream_cheese_09s.jpg	8	-1	1	0	cream_cheese_09s.jpg	0	0	0	270.383907455776	270.433901799435	0.0499943436589092
194412	50	526	0	0	incense	826	217	1	stimuli\incense\incense_04s.jpg	3	-1	1	0	incense_04s.jpg	0	0	0	270.48391442874	270.53389926377	0.0499848350300454
194512	50	527	0	0	dress	518	218	1	stimuli\dress\dress_05s.jpg	4	-1	1	0	dress_05s.jpg	0	0	0	270.583934079797	270.633904042479	0.0499699626816437
194612	50	528	0	0	chin	330	219	1	stimuli\chin\chin_03s.jpg	2	-1	1	0	chin_03s.jpg	0	0	0	270.68391910987	270.733902238251	0.0499831283814274
194712	50	529	0	0	crystal_ball	455	220	1	stimuli\crystal_ball\crystal_ball_01b.jpg	0	-1	1	0	crystal_ball_01b.jpg	0	0	0	270.783929252357	270.833926034044	0.0499967816867866
194812	50	530	0	0	chest2	320	221	1	stimuli\chest2\chest2_06s.jpg	5	-1	1	0	chest2_06s.jpg	0	0	0	270.883924766269	270.933904237521	0.0499794712522998
194912	50	531	0	0	branch	192	222	1	stimuli\branch\branch_01b.jpg	0	-1	1	0	branch_01b.jpg	0	0	0	270.983925643959	271.033907065692	0.0499814217328094
195012	50	532	0	0	gravel	709	223	1	stimuli\gravel\gravel_01b.jpg	0	-1	1	0	gravel_01b.jpg	0	0	0	271.083925058832	271.133912088175	0.0499870293424465
195112	50	533	0	0	roller	1324	224	1	stimuli\roller\roller_09s.jpg	8	-1	1	0	roller_09s.jpg	0	0	0	271.183936420362	271.233915160177	0.0499787398148328
195212	50	534	0	0	trident	1712	225	1	stimuli\trident\trident_11s.jpg	10	-1	1	0	trident_11s.jpg	0	0	0	271.283935347572	271.333932860754	0.0499975131824613
195312	50	535	0	0	clover	366	226	1	stimuli\clover\clover_05s.jpg	4	-1	1	0	clover_05s.jpg	0	0	0	271.383939394844	271.433912283217	0.0499728883733042
195412	50	536	0	0	cashew	281	227	1	stimuli\cashew\cashew_07s.jpg	6	-1	1	0	cashew_07s.jpg	0	0	0	271.483943198284	271.533926814271	0.0499836159870028
195512	50	537	0	0	fingerprint	589	228	1	stimuli\fingerprint\fingerprint_05s.jpg	4	-1	1	0	fingerprint_05s.jpg	0	0	0	271.583927496918	271.633912088175	0.0499845912563615
195612	50	538	0	0	clipper1	356	229	1	stimuli\clipper1\clipper1_10s.jpg	9	-1	1	0	clipper1_10s.jpg	0	0	0	271.683938127011	271.733919792576	0.049981665564701
195712	50	539	0	0	top_hat	1682	230	1	stimuli\top_hat\top_hat_06s.jpg	5	-1	1	0	top_hat_06s.jpg	0	0	0	271.783937541884	271.833913112176	0.0499755702912807
195812	50	540	0	0	rock	1319	231	1	stimuli\rock\rock_09s.jpg	8	-1	1	0	rock_09s.jpg	0	0	0	271.883947440539	271.933925205143	0.0499777646036819
195912	50	541	0	0	touchpad	1691	232	1	stimuli\touchpad\touchpad_05s.jpg	4	-1	1	0	touchpad_05s.jpg	0	0	0	271.983943442057	272.033926570439	0.0499831283814274
196012	50	542	0	0	urinal	1748	233	1	stimuli\urinal\urinal_06s.jpg	5	-1	1	0	urinal_06s.jpg	0	0	0	272.083937980758	272.13391550153	0.0499775207717903
196112	50	543	0	0	whipped_cream	1810	234	1	stimuli\whipped_cream\whipped_cream_01b.jpg	0	-1	1	1	whipped_cream_01b.jpg	0	0	0	272.183955193672	272.233932226838	0.0499770331662148
196212	50	544	0	0	home_plate	787	235	1	stimuli\home_plate\home_plate_05s.jpg	4	-1	1	0	home_plate_05s.jpg	0	0	0	272.283950219979	272.333947976935	0.0499977569561452
196312	50	545	0	0	axe	45	236	1	stimuli\axe\axe_09n.jpg	8	-1	1	0	axe_09n.jpg	0	0	0	272.383951341501	272.433939346054	0.0499880045535974
196412	50	546	0	0	llama	938	237	1	stimuli\llama\llama_05s.jpg	4	-1	1	0	llama_05s.jpg	1	0.308665913762525	1	272.483955388714	272.533934616135	0.0499792274204083
196512	50	547	0	0	rat	1285	238	1	stimuli\rat\rat_05s.jpg	4	-1	1	0	rat_05s.jpg	0	0	0	272.583962605509	272.633938419574	0.0499758140649647
196612	50	548	0	0	shoe_polish	1424	239	1	stimuli\shoe_polish\shoe_polish_12s.jpg	11	-1	1	0	shoe_polish_12s.jpg	0	0	0	272.683955925109	272.733942954452	0.0499870293424465
196712	50	549	0	0	eye	564	240	1	stimuli\eye\eye_07s.jpg	6	-1	1	0	eye_07s.jpg	0	0	0	272.783960459987	272.833951390232	0.0499909302452579
196812	50	550	0	0	goalpost	683	241	1	stimuli\goalpost\goalpost_01b.jpg	0	-1	1	0	goalpost_01b.jpg	0	0	0	272.883967676724	272.933954462234	0.0499867855105549
196912	50	551	0	0	sonogram	1496	242	1	stimuli\sonogram\sonogram_08s.jpg	7	-1	1	0	sonogram_08s.jpg	0	0	0	272.983964409679	273.033949244709	0.0499848350300454
197012	50	552	0	0	handlebar	749	243	1	stimuli\handlebar\handlebar_02s.jpg	1	-1	1	0	handlebar_02s.jpg	0	0	0	273.083976990252	273.133956461505	0.0499794712522998
197112	50	553	0	0	fireworks	598	244	1	stimuli\fireworks\fireworks_10s.jpg	9	-1	1	0	fireworks_10s.jpg	0	0	0	273.183972747938	273.233955388714	0.0499826407758519
197212	50	554	0	0	fire_pit	593	245	1	stimuli\fire_pit\fire_pit_08s.jpg	7	-1	1	0	fire_pit_08s.jpg	0	0	0	273.283974600898	273.333957485505	0.0499828846077435
197312	50	555	0	0	inhaler	828	246	1	stimuli\inhaler\inhaler_06s.jpg	5	-1	1	0	inhaler_06s.jpg	0	0	0	273.383984011947	273.433959094633	0.0499750826857053
197412	50	556	0	0	pasta	1123	247	1	stimuli\pasta\pasta_05s.jpg	4	-1	1	0	pasta_05s.jpg	0	0	0	273.483977331605	273.53396167903	0.0499843474244699
197512	50	557	0	0	pickle	1167	248	1	stimuli\pickle\pickle_08s.jpg	7	-1	1	0	pickle_08s.jpg	1	0	0	273.584012342617	273.633980110986	0.0499677683692425
197612	50	558	0	0	shaving_cream	1410	249	1	stimuli\shaving_cream\shaving_cream_11s.jpg	10	-1	1	0	shaving_cream_11s.jpg	0	0	0	273.683997860353	273.733981720172	0.0499838598188944
197712	50	559	0	0	cobra	371	250	1	stimuli\cobra\cobra_08s.jpg	7	-1	1	0	cobra_08s.jpg	0	0	0	273.783997762832	273.833984792116	0.0499870292842388
197812	50	560	0	0	bubble_wrap	208	251	1	stimuli\bubble_wrap\bubble_wrap_03s.jpg	2	-1	1	0	bubble_wrap_03s.jpg	0	0	0	273.883999859565	273.933982256509	0.0499823969439603
197912	50	561	0	0	scraper	1387	252	1	stimuli\scraper\scraper_05s.jpg	4	-1	1	0	scraper_05s.jpg	0	0	0	273.984000249649	274.033984840906	0.0499845912563615
198012	50	562	0	0	mango	966	253	1	stimuli\mango\mango_06s.jpg	5	-1	1	0	mango_06s.jpg	0	0	0	274.084015268309	274.134000347171	0.0499850788619369
198112	50	563	0	0	leotard	918	254	1	stimuli\leotard\leotard_08s.jpg	7	-1	1	0	leotard_08s.jpg	0	0	0	274.184011026053	274.233997323958	0.0499862979049794
198212	50	564	0	0	shoehorn	1425	255	1	stimuli\shoehorn\shoehorn_02s.jpg	1	-1	1	0	shoehorn_02s.jpg	0	0	0	274.283996056125	274.334005515964	0.0500094598392025
198312	50	565	0	0	horseshoe	799	256	1	stimuli\horseshoe\horseshoe_05s.jpg	4	-1	1	0	horseshoe_05s.jpg	0	0	0	274.384014731972	274.433999810833	0.0499850788619369
198412	50	566	0	0	egg_roll	547	257	1	stimuli\egg_roll\egg_roll_11s.jpg	10	-1	1	0	egg_roll_11s.jpg	0	0	0	274.484014634392	274.533991423785	0.0499767893925309
198512	50	567	0	0	yacht	1844	258	1	stimuli\yacht\yacht_07s.jpg	6	-1	1	0	yacht_07s.jpg	0	0	0	274.584017218789	274.63399278908	0.0499755702912807
198612	50	568	0	0	silverware	1445	259	1	stimuli\silverware\silverware_03s.jpg	2	-1	1	0	silverware_03s.jpg	0	0	0	274.684008100303	274.733994398208	0.0499862979049794
198712	50	569	0	0	hamburger	740	260	1	stimuli\hamburger\hamburger_04s.jpg	3	-1	1	0	hamburger_04s.jpg	0	0	0	274.784012879012	274.834004053089	0.0499911740771495
198812	50	570	0	0	chicken2	323	261	1	stimuli\chicken2\chicken2_04s.jpg	3	-1	1	0	chicken2_04s.jpg	0	0	0	274.884018145269	274.93400688126	0.0499887359910645
198912	50	571	0	0	bonsai	164	262	1	stimuli\bonsai\bonsai_05s.jpg	4	-1	1	0	bonsai_05s.jpg	0	0	0	274.984017560142	275.033996056125	0.0499784959829412
199012	50	572	0	0	cocktail	374	263	1	stimuli\cocktail\cocktail_09s.jpg	8	-1	1	0	cocktail_09s.jpg	0	0	0	275.084046475939	275.134023509105	0.0499770331662148
199112	50	573	0	0	yarn	1846	264	1	stimuli\yarn\yarn_09s.jpg	8	-1	1	0	yarn_09s.jpg	0	0	0	275.184034187929	275.234015853493	0.049981665564701
199212	50	574	0	0	caterpillar	286	265	1	stimuli\caterpillar\caterpillar_08s.jpg	7	-1	1	0	caterpillar_08s.jpg	0	0	0	275.284065541811	275.334045013064	0.0499794712522998
199312	50	575	0	0	popcorn	1223	266	1	stimuli\popcorn\popcorn_01b.jpg	0	-1	1	0	popcorn_01b.jpg	0	0	0	275.384047402418	275.434025654627	0.0499782522092573
199412	50	576	0	0	muff	1034	267	1	stimuli\muff\muff_12s.jpg	11	-1	1	0	muff_12s.jpg	0	0	0	275.484042672499	275.534027263755	0.0499845912563615
199512	50	577	0	0	navel	1052	268	1	stimuli\navel\navel_11s.jpg	10	-1	1	0	navel_11s.jpg	0	0	0	275.584075733088	275.634051303379	0.0499755702912807
199612	50	578	0	0	wire_cutters	1829	269	1	stimuli\wire_cutters\wire_cutters_07s.jpg	6	-1	1	0	wire_cutters_07s.jpg	1	0	0	275.684078561259	275.734055594425	0.0499770331662148
199712	50	579	0	0	knitting	880	270	1	stimuli\knitting\knitting_05s.jpg	4	-1	1	0	knitting_05s.jpg	1	0	0	275.784059934202	275.83404671977	0.0499867855687626
199812	50	580	0	0	dart	473	271	1	stimuli\dart\dart_07s.jpg	6	-1	1	0	dart_07s.jpg	0	0	0	275.884059592907	275.93402492319	0.0499653302831575
199912	50	581	0	0	scrabble	1385	272	1	stimuli\scrabble\scrabble_06s.jpg	5	-1	1	0	scrabble_06s.jpg	0	0	0	275.984042672499	276.034048718982	0.0500060464837588
200012	50	582	0	0	mosquito_net	1021	273	1	stimuli\mosquito_net\mosquito_net_06s.jpg	5	-1	1	0	mosquito_net_06s.jpg	0	0	0	276.084065005474	276.134045451938	0.0499804464634508
200112	50	583	0	0	doormat	511	274	1	stimuli\doormat\doormat_05s.jpg	4	-1	1	0	doormat_05s.jpg	0	0	0	276.184059300285	276.234042672499	0.0499833722133189
200212	50	584	0	0	bell	116	275	1	stimuli\bell\bell_07s.jpg	6	-1	1	0	bell_07s.jpg	0	0	0	276.284060421807	276.334048670193	0.049988248385489
200312	50	585	0	0	neck	1053	276	1	stimuli\neck\neck_08s.jpg	7	-1	1	0	neck_08s.jpg	0	0	0	276.384075440466	276.434051986027	0.0499765455606394
200412	50	586	0	0	vegetable	1754	277	1	stimuli\vegetable\vegetable_11s.jpg	10	-1	1	0	vegetable_11s.jpg	0	0	0	276.484073148691	276.534053838986	0.0499806902953424
200512	50	587	0	0	pomegranate	1219	278	1	stimuli\pomegranate\pomegranate_12s.jpg	11	-1	1	0	pomegranate_12s.jpg	0	0	0	276.584074757819	276.634059592907	0.049984835088253
200612	50	588	0	0	sardine	1359	279	1	stimuli\sardine\sardine_12s.jpg	11	-1	1	0	sardine_12s.jpg	0	0	0	276.684099285048	276.734062664851	0.049963379802648
200712	50	589	0	0	board	152	280	1	stimuli\board\board_10s.jpg	9	-1	1	0	board_10s.jpg	0	0	0	276.78410040657	276.834069637815	0.0499692312441766
200812	50	590	0	0	cymbal	468	281	1	stimuli\cymbal\cymbal_09s.jpg	8	-1	1	0	cymbal_09s.jpg	0	0	0	276.884081048134	276.934061982203	0.0499809340690263
200912	50	591	0	0	triangle	1710	282	1	stimuli\triangle\triangle_04s.jpg	3	-1	1	0	triangle_04s.jpg	0	0	0	276.984079000133	277.034067248518	0.049988248385489
201012	50	592	0	0	airbag	7	283	1	stimuli\airbag\airbag_01b.jpg	0	-1	1	0	airbag_01b.jpg	1	0	0	277.084091093042	277.134074221423	0.0499831283814274
201112	50	593	0	0	cushion	466	284	1	stimuli\cushion\cushion_03s.jpg	2	-1	1	0	cushion_03s.jpg	1	0	0	277.184093189833	277.234063396289	0.0499702064553276
201212	50	594	0	0	hail	732	285	1	stimuli\hail\hail_09s.jpg	8	-1	1	0	hail_09s.jpg	0	0	0	277.284080901823	277.33406256733	0.0499816655064933
201312	50	595	0	0	kimono	873	286	1	stimuli\kimono\kimono_06s.jpg	5	-1	1	0	kimono_06s.jpg	0	0	0	277.384079829091	277.434064176516	0.0499843474244699
201412	50	596	0	0	sandbag	1353	287	1	stimuli\sandbag\sandbag_10s.jpg	9	-1	1	0	sandbag_10s.jpg	0	0	0	277.484081438219	277.534068223729	0.0499867855105549
201512	50	597	0	0	scrambled_egg	1386	288	1	stimuli\scrambled_egg\scrambled_egg_06s.jpg	5	-1	1	0	scrambled_egg_06s.jpg	0	0	0	277.584123032109	277.634102503362	0.0499794712522998
201612	50	598	0	0	fox	638	289	1	stimuli\fox\fox_11s.jpg	10	-1	1	0	fox_11s.jpg	0	0	0	277.684125616448	277.734104356263	0.0499787398148328
201712	50	599	0	0	gold	687	290	1	stimuli\gold\gold_11s.jpg	10	-1	1	0	gold_11s.jpg	0	0	0	277.784128932282	277.834109134972	0.0499802026897669
201812	50	600	0	0	money	1015	291	1	stimuli\money\money_12s.jpg	11	-1	1	0	money_12s.jpg	0	0	0	277.884132979496	277.93409465265	0.04996167315403
201912	50	601	0	0	poodle	1221	292	1	stimuli\poodle\poodle_06s.jpg	5	-1	1	0	poodle_06s.jpg	0	0	0	277.984110451536	278.034098943695	0.0499884921591729
202012	50	602	0	0	bolt	159	293	1	stimuli\bolt\bolt_06s.jpg	5	-1	1	0	bolt_06s.jpg	0	0	0	278.084117180668	278.134092994791	0.0499758141231723
202112	50	603	0	0	hula_hoop	810	294	1	stimuli\hula_hoop\hula_hoop_05s.jpg	4	-1	1	0	hula_hoop_05s.jpg	0	0	0	278.184116351709	278.234098017274	0.049981665564701
202212	50	604	0	0	grinder	716	295	1	stimuli\grinder\grinder_08s.jpg	7	-1	1	0	grinder_08s.jpg	0	0	0	278.28411454754	278.334104258742	0.0499897112022154
202312	50	605	0	0	furnace	651	296	1	stimuli\furnace\furnace_02s.jpg	1	-1	1	0	furnace_02s.jpg	0	0	0	278.384122739546	278.434108062182	0.0499853226356208
202412	50	606	0	0	computer	394	297	1	stimuli\computer\computer_12s.jpg	11	-1	1	0	computer_12s.jpg	0	0	0	278.484129224846	278.534130395157	0.0500011703115888
202512	50	607	0	0	clove	365	298	1	stimuli\clove\clove_06s.jpg	5	-1	1	0	clove_06s.jpg	0	0	0	278.584131321637	278.634109330014	0.0499780083773658
202612	50	608	0	0	camcorder	244	299	1	stimuli\camcorder\camcorder_05s.jpg	4	-1	1	0	camcorder_05s.jpg	0	0	0	278.68412781076	278.734111914411	0.049984103650786
202712	50	609	0	0	plum	1203	300	1	stimuli\plum\plum_05n.jpg	4	-1	1	0	plum_05n.jpg	0	0	0	278.784124299884	278.834113035933	0.0499887360492721
202812	50	610	0	0	moose	1018	301	1	stimuli\moose\moose_11s.jpg	10	-1	1	0	moose_11s.jpg	0	0	0	278.8841380995	278.934112450748	0.0499743512482382
202912	50	611	0	0	goose	693	302	1	stimuli\goose\goose_04s.jpg	3	-1	1	0	goose_04s.jpg	0	0	0	278.984135563893	279.03411917988	0.0499836159870028
203012	50	612	0	0	turban	1730	303	1	stimuli\turban\turban_11s.jpg	10	-1	1	0	turban_11s.jpg	0	0	0	279.084144974942	279.134120545234	0.0499755702912807
203112	50	613	0	0	bear	105	304	1	stimuli\bear\bear_08s.jpg	7	-1	1	0	bear_08s.jpg	0	0	0	279.184135368851	279.234121422924	0.0499860540730879
203212	50	614	0	0	unicycle	1746	305	1	stimuli\unicycle\unicycle_08s.jpg	7	-1	1	0	unicycle_08s.jpg	0	0	0	279.284126250364	279.334136441641	0.0500101912766695
203312	50	615	0	0	mascara	978	306	1	stimuli\mascara\mascara_06s.jpg	5	-1	1	0	mascara_06s.jpg	0	0	0	279.384142244293	279.434130492678	0.049988248385489
203412	50	616	0	0	pacifier	1093	307	1	stimuli\pacifier\pacifier_02s.jpg	1	-1	1	0	pacifier_02s.jpg	0	0	0	279.484143365815	279.534133320849	0.049989955034107
203512	50	617	0	0	forklift	635	308	1	stimuli\forklift\forklift_04n.jpg	3	-1	1	0	forklift_04n.jpg	0	0	0	279.584152533032	279.634162480477	0.0500099474447779
252197	50	618	0	0	seafood	1394	0	2	stimuli\seafood\seafood_03s.jpg	2	-1	2	0	seafood_03s.jpg	1	0	0	328.26874723885	328.318724759622	0.0499775207717903
252297	50	619	0	0	funnel	649	1	2	stimuli\funnel\funnel_09s.jpg	8	-1	2	0	funnel_09s.jpg	0	0	0	328.368744703243	328.418732220191	0.0499875169480219
252397	50	620	0	0	palette	1100	2	2	stimuli\palette\palette_05s.jpg	4	-1	2	0	palette_05s.jpg	0	0	0	328.468749969499	328.518729440751	0.0499794712522998
252497	50	621	0	0	squirt_gun	1530	3	2	stimuli\squirt_gun\squirt_gun_03s.jpg	2	-1	2	0	squirt_gun_03s.jpg	0	0	0	328.568750603416	328.618733000418	0.049982397002168
252597	50	622	0	0	tent	1643	4	2	stimuli\tent\tent_10n.jpg	9	-1	2	0	tent_10n.jpg	0	0	0	328.66875586973	328.718737535237	0.0499816655064933
252697	50	623	0	0	hot_chocolate	803	5	2	stimuli\hot_chocolate\hot_chocolate_04s.jpg	3	-1	2	0	hot_chocolate_04s.jpg	0	0	0	328.768754309334	328.81873402436	0.0499797150259838
252797	50	624	0	0	slot	1469	6	2	stimuli\slot\slot_07s.jpg	6	-1	2	0	slot_07s.jpg	0	0	0	328.868788345135	328.918768547825	0.0499802026897669
252897	50	625	0	0	jeans	842	7	2	stimuli\jeans\jeans_04s.jpg	3	-1	2	0	jeans_04s.jpg	0	0	0	328.968767523824	329.018747970287	0.0499804464634508
252997	50	626	0	0	blender	138	8	2	stimuli\blender\blender_01b.jpg	0	-1	2	0	blender_01b.jpg	0	0	0	329.068766451033	329.118747872766	0.0499814217328094
253097	50	627	0	0	glasses	678	9	2	stimuli\glasses\glasses_03s.jpg	2	-1	2	0	glasses_03s.jpg	0	0	0	329.168765134469	329.218746556202	0.0499814217328094
253197	50	628	0	0	shark	1409	10	2	stimuli\shark\shark_08s.jpg	7	-1	2	0	shark_08s.jpg	0	0	0	329.268768206472	329.318758405338	0.0499901988659985
253297	50	629	0	0	chime	328	11	2	stimuli\chime\chime_01b.jpg	0	-1	2	0	chime_01b.jpg	0	0	0	329.368775910873	329.418755138293	0.0499792274204083
253397	50	630	0	0	weed	1802	12	2	stimuli\weed\weed_08s.jpg	7	-1	2	0	weed_08s.jpg	0	0	0	329.468778007606	329.51875479694	0.0499767893343233
253497	50	631	0	0	bedpan	109	13	2	stimuli\bedpan\bedpan_11s.jpg	10	-1	2	0	bedpan_11s.jpg	0	0	0	329.568775959604	329.618759087985	0.0499831283814274
253597	50	632	0	0	purse	1259	14	2	stimuli\purse\purse_11s.jpg	10	-1	2	0	purse_11s.jpg	0	0	0	329.668777324958	329.718758259027	0.0499809340690263
253697	50	633	0	0	taco	1613	15	2	stimuli\taco\taco_12n.jpg	11	-1	2	0	taco_12n.jpg	0	0	0	329.768781128398	329.818760843424	0.0499797150259838
253797	50	634	0	0	torso	1685	16	2	stimuli\torso\torso_09s.jpg	8	-1	2	0	torso_09s.jpg	0	0	0	329.868820527976	329.918792928744	0.0499724007677287
253897	50	635	0	0	sea_urchin	1393	17	2	stimuli\sea_urchin\sea_urchin_09s.jpg	8	-1	2	0	sea_urchin_09s.jpg	0	0	0	329.968822868541	330.018798195058	0.0499753265175968
253997	50	636	0	0	straw1	1568	18	2	stimuli\straw1\straw1_10s.jpg	9	-1	2	0	straw1_10s.jpg	0	0	0	330.068799365312	330.118780787045	0.0499814217328094
254097	50	637	0	0	lamb	889	19	2	stimuli\lamb\lamb_09s.jpg	8	-1	2	0	lamb_09s.jpg	0	0	0	330.168858269695	330.218806777149	0.0499485074542463
254197	50	638	0	0	oatmeal	1069	20	2	stimuli\oatmeal\oatmeal_12s.jpg	11	-1	2	0	oatmeal_12s.jpg	0	0	0	330.26882940263	330.31879448914	0.0499650865094736
254297	50	639	0	0	tongue	1675	21	2	stimuli\tongue\tongue_01s.jpg	0	-1	2	0	tongue_01s.jpg	0	0	0	330.368811750843	330.418791709701	0.0499799588578753
254397	50	640	0	0	ankle	22	22	2	stimuli\ankle\ankle_06s.jpg	5	-1	2	0	ankle_06s.jpg	0	0	0	330.468815066619	330.518793075054	0.0499780084355734
254497	50	641	0	0	manhole	967	23	2	stimuli\manhole\manhole_04n.jpg	3	-1	2	0	manhole_04n.jpg	0	0	0	330.568811799574	330.618798097537	0.0499862979631871
254597	50	642	0	0	beet	114	24	2	stimuli\beet\beet_08s.jpg	7	-1	2	0	beet_08s.jpg	0	0	0	330.668817797326	330.718795805704	0.0499780083773658
254697	50	643	0	0	seesaw	1402	25	2	stimuli\seesaw\seesaw_10s.jpg	9	-1	2	0	seesaw_10s.jpg	0	0	0	330.768810629321	330.81879156339	0.0499809340690263
254797	50	644	0	0	kiwi	876	26	2	stimuli\kiwi\kiwi_01b.jpg	0	-1	2	0	kiwi_01b.jpg	0	0	0	330.868817602284	330.918801218271	0.0499836159870028
254897	50	645	0	0	appetizer	29	27	2	stimuli\appetizer\appetizer_03s.jpg	2	-1	2	0	appetizer_03s.jpg	0	0	0	330.968816529494	331.018801364582	0.049984835088253
254997	50	646	0	0	ladybug	888	28	2	stimuli\ladybug\ladybug_09s.jpg	8	-1	2	0	ladybug_09s.jpg	0	0	0	331.068821064371	331.118807118444	0.0499860540730879
255097	50	647	0	0	grape	702	29	2	stimuli\grape\grape_01b.jpg	0	-1	2	0	grape_01b.jpg	0	0	0	331.168834863987	331.218809946673	0.0499750826857053
255197	50	648	0	0	eyeliner	567	30	2	stimuli\eyeliner\eyeliner_07s.jpg	6	-1	2	0	eyeliner_07s.jpg	0	0	0	331.268839155033	331.318822527188	0.0499833721551113
255297	50	649	0	0	sword	1602	31	2	stimuli\sword\sword_08s.jpg	7	-1	2	0	sword_08s.jpg	0	0	0	331.368841495598	331.418819747807	0.0499782522092573
255397	50	650	0	0	sombrero	1495	32	2	stimuli\sombrero\sombrero_05s.jpg	4	-1	2	0	sombrero_05s.jpg	0	0	0	331.468838472327	331.518817943579	0.0499794712522998
255497	50	651	0	0	ball	59	33	2	stimuli\ball\ball_02s.jpg	1	-1	2	0	ball_02s.jpg	0	0	0	331.568838618638	331.618824185105	0.0499855664675124
255597	50	652	0	0	globe	679	34	2	stimuli\globe\globe_03s.jpg	2	-1	2	0	globe_03s.jpg	0	0	0	331.668851199211	331.718826769502	0.0499755702912807
255697	50	653	0	0	hairpin	737	35	2	stimuli\hairpin\hairpin_03s.jpg	2	-1	2	0	hairpin_03s.jpg	0	0	0	331.768847932166	331.818826671981	0.0499787398148328
