onset	duration	eventnumber	blocksequencenumber	isteststim	object	objectnumber	presentationnumber	sequencenumber	stim	stimnumber	teststimnumber	withinsequencenumber	istarget	stimname	response	rt	correct	time_stimon	time_stimoff	stimdur
31669	50	0	0	0	dip	487	0	0	stimuli\dip\dip_03s.jpg	2	-1	0	0	dip_03s.jpg	0	0	0	25.5868953043828	25.6368532716879	0.0499579673050903
31769	50	1	0	0	pole	1213	1	0	stimuli\pole\pole_10s.jpg	9	-1	0	0	pole_10s.jpg	0	0	0	25.6868785303086	25.7368762385449	0.049997708236333
31869	50	2	0	0	paper_plate	1114	2	0	stimuli\paper_plate\paper_plate_12s.jpg	11	-1	0	0	paper_plate_12s.jpg	0	0	0	25.7868936952436	25.8368755558622	0.0499818606185727
31969	50	3	0	0	car	267	3	0	stimuli\car\car_10s.jpg	9	-1	0	0	car_10s.jpg	0	0	0	25.8869159306632	25.936878042703	0.0499621120397933
32069	50	4	0	0	hat	757	4	0	stimuli\hat\hat_01b.jpg	0	-1	0	0	hat_01b.jpg	0	0	0	25.986901838507	26.0368817485869	0.0499799100798555
32169	50	5	0	0	powder	1236	5	0	stimuli\powder\powder_11s.jpg	10	-1	0	0	powder_11s.jpg	0	0	0	26.0869011558243	26.1376005468774	0.0506993910530582
32269	50	6	0	0	map	970	6	0	stimuli\map\map_06s.jpg	5	-1	0	0	map_06s.jpg	0	0	0	26.1868797493516	26.2368864784949	0.050006729143206
32369	50	7	0	0	rake	1281	7	0	stimuli\rake\rake_05s.jpg	4	-1	0	0	rake_05s.jpg	0	0	0	26.2869063733378	26.3368904282106	0.0499840548727661
32469	50	8	0	0	pita	1189	8	0	stimuli\pita\pita_05s.jpg	4	-1	0	0	pita_05s.jpg	0	0	0	26.3869105668855	26.4368751170114	0.0499645501258783
32569	50	9	0	0	bison	134	9	0	stimuli\bison\bison_08s.jpg	7	-1	0	0	bison_08s.jpg	0	0	0	26.4869140289375	26.5368939390755	0.0499799101380631
32669	50	10	0	0	printer	1240	10	0	stimuli\printer\printer_03s.jpg	2	-1	0	0	printer_03s.jpg	0	0	0	26.586915784399	26.6368961821427	0.0499803977436386
32769	50	11	0	0	antelope	26	11	0	stimuli\antelope\antelope_10n.jpg	9	-1	0	0	antelope_10n.jpg	0	0	0	26.686918027408	26.7369015946751	0.0499835672671907
32869	50	12	0	0	trolley	1715	12	0	stimuli\trolley\trolley_06s.jpg	5	-1	0	0	trolley_06s.jpg	0	0	0	26.7869014971657	26.8368731177761	0.0499716206104495
32969	50	13	0	0	mailbox	960	13	0	stimuli\mailbox\mailbox_07s.jpg	6	-1	0	0	mailbox_07s.jpg	0	0	0	26.8869017897523	26.9369043741026	0.0500025843502954
33069	50	14	0	0	dumbwaiter	531	14	0	stimuli\dumbwaiter\dumbwaiter_02s.jpg	1	-1	0	0	dumbwaiter_02s.jpg	0	0	0	26.98692378134	27.0368900381145	0.0499662567744963
33169	50	15	0	0	pea	1128	15	0	stimuli\pea\pea_10s.jpg	9	-1	0	0	pea_10s.jpg	0	0	0	27.0869101767894	27.1368974011857	0.0499872243963182
33269	50	16	0	0	deodorant	479	16	0	stimuli\deodorant\deodorant_03s.jpg	2	-1	0	0	deodorant_03s.jpg	0	0	0	27.1869309493341	27.2369118346833	0.0499808853492141
33369	50	17	0	0	compass	392	17	0	stimuli\compass\compass_05s.jpg	4	-1	0	0	compass_05s.jpg	0	0	0	27.286933192343	27.3369170034421	0.0499838110990822
33469	50	18	0	0	slipper	1468	18	0	stimuli\slipper\slipper_04s.jpg	3	-1	0	0	slipper_04s.jpg	0	0	0	27.3869203192298	27.4369143702788	0.0499940510489978
33569	50	19	0	0	man	963	19	0	stimuli\man\man_05s.jpg	4	-1	0	0	man_05s.jpg	0	0	0	27.4869228060707	27.5368922324269	0.049969426356256
33669	50	20	0	0	panties	1107	20	0	stimuli\panties\panties_03s.jpg	2	-1	0	0	panties_03s.jpg	0	0	0	27.5869143215241	27.6368954507052	0.0499811291811056
33769	50	21	0	0	trigger	1713	21	0	stimuli\trigger\trigger_12s.jpg	11	-1	0	0	trigger_12s.jpg	0	0	0	27.6869168083649	27.7369215870276	0.0500047786626965
33869	50	22	0	0	patch	1125	22	0	stimuli\patch\patch_01b.jpg	0	-1	0	0	patch_01b.jpg	0	0	0	27.786944895226	27.8369238300947	0.0499789348687045
33969	50	23	0	0	marker	975	23	0	stimuli\marker\marker_02s.jpg	1	-1	0	0	marker_02s.jpg	0	0	0	27.8869461630238	27.9369131512358	0.0499669882119633
34069	50	24	0	0	humvee	813	24	0	stimuli\humvee\humvee_08s.jpg	7	-1	0	0	humvee_08s.jpg	0	0	0	27.9869527945993	28.0369039352518	0.0499511406524107
34169	50	25	0	0	ribbon	1308	25	0	stimuli\ribbon\ribbon_07s.jpg	6	-1	0	0	ribbon_07s.jpg	0	0	0	28.0869233424892	28.1369025211316	0.0499791786423884
34269	50	26	0	0	viewfinder	1763	26	0	stimuli\viewfinder\viewfinder_12s.jpg	11	-1	0	0	viewfinder_12s.jpg	0	0	0	28.1869229035801	28.2369079337223	0.0499850301421247
34369	50	27	0	0	charger	308	27	0	stimuli\charger\charger_11s.jpg	10	-1	0	0	charger_11s.jpg	0	0	0	28.2869283161708	28.3369148091297	0.0499864929588512
34469	50	28	0	0	dartboard	474	28	0	stimuli\dartboard\dartboard_07s.jpg	6	-1	0	0	dartboard_07s.jpg	0	0	0	28.3869310468435	28.4369187588454	0.0499877120018937
34569	50	29	0	0	refrigerator	1300	29	0	stimuli\refrigerator\refrigerator_02s.jpg	1	-1	0	0	refrigerator_02s.jpg	0	0	0	28.4869401165633	28.5369353866554	0.0499952700920403
34669	50	30	0	0	checkbook	310	30	0	stimuli\checkbook\checkbook_02s.jpg	1	-1	0	0	checkbook_02s.jpg	0	0	0	28.5869650338427	28.6369468944613	0.0499818606185727
34769	50	31	0	0	wallpaper	1777	31	0	stimuli\wallpaper\wallpaper_03s.jpg	2	-1	0	0	wallpaper_03s.jpg	0	0	0	28.6869658140349	28.7369525508257	0.0499867367907427
34869	50	32	0	0	odometer	1071	32	0	stimuli\odometer\odometer_11s.jpg	10	-1	0	0	odometer_11s.jpg	0	0	0	28.7869687884813	28.8369460167014	0.0499772282200865
34969	50	33	0	0	horse	798	33	0	stimuli\horse\horse_10s.jpg	9	-1	0	0	horse_10s.jpg	0	0	0	28.8869610353722	28.9369453340769	0.0499842987046577
35069	50	34	0	0	spool	1518	34	0	stimuli\spool\spool_10s.jpg	9	-1	0	0	spool_10s.jpg	0	0	0	28.9869683983852	29.0369390437845	0.0499706453992985
35169	50	35	0	0	apple_tree	31	35	0	stimuli\apple_tree\apple_tree_10s.jpg	9	-1	0	0	apple_tree_10s.jpg	0	0	0	29.0869550376665	29.136931778281	0.0499767406145111
35269	50	36	0	0	scanner	1375	36	0	stimuli\scanner\scanner_10s.jpg	9	-1	0	0	scanner_10s.jpg	0	0	0	29.1869577683392	29.2369618155644	0.0500040472252294
35369	50	37	0	0	swan	1591	37	0	stimuli\swan\swan_08s.jpg	7	-1	0	0	swan_08s.jpg	0	0	0	29.2869882932282	29.3369625957566	0.0499743025284261
35469	50	38	0	0	birdhouse	131	38	0	stimuli\birdhouse\birdhouse_02s.jpg	1	-1	0	0	birdhouse_02s.jpg	0	0	0	29.3869878543774	29.4369658140349	0.0499779596575536
35569	50	39	0	0	chihuahua	326	39	0	stimuli\chihuahua\chihuahua_02s.jpg	1	-1	0	0	chihuahua_02s.jpg	0	0	0	29.4869864402572	29.5369675694383	0.0499811291811056
35669	50	40	0	0	stick	1552	40	0	stimuli\stick\stick_08s.jpg	7	-1	0	0	stick_08s.jpg	0	0	0	29.5869879518868	29.6369707877166	0.0499828358297236
35769	50	41	0	0	poker	1210	41	0	stimuli\poker\poker_10s.jpg	9	-1	0	0	poker_10s.jpg	0	0	0	29.6869743473362	29.7369752250379	0.0500008777016774
35869	50	42	0	0	bat1	87	42	0	stimuli\bat1\bat1_01b.jpg	0	-1	0	0	bat1_01b.jpg	0	0	0	29.7869948761072	29.8369742985815	0.04997942247428
35969	50	43	0	0	float	616	43	0	stimuli\float\float_02s.jpg	1	-1	0	0	float_02s.jpg	0	0	0	29.886996143905	29.9369611816364	0.0499650377314538
36069	50	44	0	0	swimsuit	1597	44	0	stimuli\swimsuit\swimsuit_02s.jpg	1	-1	0	0	swimsuit_02s.jpg	0	0	0	29.9870042383554	30.0369826856186	0.0499784472631291
36169	50	45	0	0	banana	63	45	0	stimuli\banana\banana_11s.jpg	10	-1	0	0	banana_11s.jpg	0	0	0	30.0869884394924	30.1369761515525	0.0499877120601013
36269	50	46	0	0	tortellini	1686	46	0	stimuli\tortellini\tortellini_05s.jpg	4	-1	0	0	tortellini_05s.jpg	0	0	0	30.1870040920912	30.2369866840891	0.0499825919978321
36369	50	47	0	0	wagon	1772	47	0	stimuli\wagon\wagon_08s.jpg	7	-1	0	0	wagon_08s.jpg	0	0	0	30.2870109674986	30.3369881957187	0.0499772282200865
36469	50	48	0	0	eggshell	551	48	0	stimuli\eggshell\eggshell_09s.jpg	8	-1	0	0	eggshell_09s.jpg	0	0	0	30.3869932181551	30.4369909263914	0.049997708236333
36569	50	49	0	0	mannequin	968	49	0	stimuli\mannequin\mannequin_04s.jpg	3	-1	0	0	mannequin_04s.jpg	0	0	0	30.4870130154886	30.5369951198809	0.0499821043922566
36669	50	50	0	0	pom-pom	1218	50	0	stimuli\pom-pom\pom-pom_07s.jpg	6	-1	0	0	pom-pom_07s.jpg	0	0	0	30.586999410938	30.6369802962872	0.0499808853492141
36769	50	51	0	0	slug	1472	51	0	stimuli\slug\slug_02s.jpg	1	-1	0	0	slug_02s.jpg	0	0	0	30.6870167701272	30.7369998497888	0.0499830796616152
36869	50	52	0	0	webcam	1799	52	0	stimuli\webcam\webcam_04s.jpg	3	-1	0	0	webcam_04s.jpg	0	0	0	30.7870177941513	30.8370030680671	0.0499852739158086
36969	50	53	0	0	hook1	793	53	0	stimuli\hook1\hook1_08s.jpg	7	-1	0	0	hook1_08s.jpg	0	0	0	30.8870280829142	30.9369882444735	0.0499601615592837
37069	50	54	0	0	sleeping_bag	1462	54	0	stimuli\sleeping_bag\sleeping_bag_10s.jpg	9	-1	0	0	sleeping_bag_10s.jpg	0	0	0	30.9870298383175	31.0370065789321	0.0499767406145111
37169	50	55	0	0	tadpole	1614	55	0	stimuli\tadpole\tadpole_06s.jpg	5	-1	0	0	tadpole_06s.jpg	0	0	0	31.0870055061532	31.1369861477287	0.0499806415755302
37269	50	56	0	0	kite	874	56	0	stimuli\kite\kite_09n.jpg	8	-1	0	0	kite_09n.jpg	0	0	0	31.1870111625176	31.2369961926597	0.0499850301421247
37369	50	57	0	0	hovercraft	808	57	0	stimuli\hovercraft\hovercraft_04s.jpg	3	-1	0	0	hovercraft_04s.jpg	0	0	0	31.2870341293747	31.3370118452003	0.049977715825662
37469	50	58	0	0	soda_fountain	1491	58	0	stimuli\soda_fountain\soda_fountain_08s.jpg	7	-1	0	0	soda_fountain_08s.jpg	0	0	0	31.3870363723836	31.4370140882675	0.0499777158838697
37569	50	59	0	0	telescope	1640	59	0	stimuli\telescope\telescope_08n.jpg	7	-1	0	0	telescope_08n.jpg	0	0	0	31.4870269126259	31.5370212074486	0.0499942948226817
37669	50	60	0	0	pine_tree	1181	60	0	stimuli\pine_tree\pine_tree_11s.jpg	10	-1	0	1	pine_tree_11s.jpg	0	0	0	31.587025254732	31.6370239381213	0.0499986833892763
37769	50	61	0	0	leek	910	61	0	stimuli\leek\leek_05s.jpg	4	-1	0	0	leek_05s.jpg	0	0	0	31.6870250596548	31.7370249621454	0.0499999024905264
37869	50	62	0	0	cardinal	274	62	0	stimuli\cardinal\cardinal_04s.jpg	3	-1	0	0	cardinal_04s.jpg	0	0	0	31.7870429065078	31.8370101385517	0.0499672320438549
37969	50	63	0	0	handle	748	63	0	stimuli\handle\handle_11s.jpg	10	-1	0	0	handle_11s.jpg	0	0	0	31.88703320286	31.937012137787	0.0499789349269122
38069	50	64	0	0	brick	199	64	0	stimuli\brick\brick_12s.jpg	11	-1	0	0	brick_12s.jpg	1	0.392170262639411	1	31.9870366649702	32.0370331541053	0.0499964891350828
38169	50	65	0	0	barcode	73	65	0	stimuli\barcode\barcode_07s.jpg	6	-1	0	0	barcode_07s.jpg	0	0	0	32.0870523175108	32.1370339342975	0.0499816167866811
38269	50	66	0	0	cart	278	66	0	stimuli\cart\cart_05s.jpg	4	-1	0	0	cart_05s.jpg	0	0	0	32.1870306672645	32.2370078954846	0.0499772282200865
38369	50	67	0	0	mold2	1013	67	0	stimuli\mold2\mold2_12s.jpg	11	-1	0	0	mold2_12s.jpg	0	0	0	32.2870526588522	32.3370320813847	0.0499794225324877
38469	50	68	0	0	crossbow	444	68	0	stimuli\crossbow\crossbow_10s.jpg	9	-1	0	0	crossbow_10s.jpg	0	0	0	32.3870549019193	32.4370360311004	0.0499811291811056
38569	50	69	0	0	duct_tape	528	69	0	stimuli\duct_tape\duct_tape_03s.jpg	2	-1	0	0	duct_tape_03s.jpg	0	0	0	32.4870581201976	32.5370387617149	0.0499806415173225
38669	50	70	0	0	scarecrow	1376	70	0	stimuli\scarecrow\scarecrow_01b.jpg	0	-1	0	0	scarecrow_01b.jpg	0	0	0	32.5870447594207	32.6370246695587	0.0499799101380631
38769	50	71	0	0	lampshade	893	71	0	stimuli\lampshade\lampshade_02s.jpg	1	-1	0	0	lampshade_02s.jpg	0	0	0	32.6870960081578	32.7370230116649	0.0499270035070367
38869	50	72	0	0	sweet_potato	1595	72	0	stimuli\sweet_potato\sweet_potato_08s.jpg	7	-1	0	0	sweet_potato_08s.jpg	0	0	0	32.7870370550663	32.837018671853	0.0499816167866811
38969	50	73	0	0	ramp	1283	73	0	stimuli\ramp\ramp_09s.jpg	8	-1	0	0	ramp_09s.jpg	0	0	0	32.8870419799932	32.9370231091743	0.0499811291811056
39069	50	74	0	0	valve	1751	74	0	stimuli\valve\valve_04s.jpg	3	-1	0	0	valve_04s.jpg	0	0	0	32.9870786001557	33.0370531464578	0.04997454630211
39169	50	75	0	0	whipped_cream	1810	75	0	stimuli\whipped_cream\whipped_cream_07s.jpg	6	-1	0	0	whipped_cream_07s.jpg	0	0	0	33.0870576813468	33.1370246695587	0.0499669882119633
39269	50	76	0	0	kangaroo	862	76	0	stimuli\kangaroo\kangaroo_11s.jpg	10	-1	0	0	kangaroo_11s.jpg	0	0	0	33.1870411510463	33.2370315449662	0.0499903939198703
39369	50	77	0	0	mulch	1038	77	0	stimuli\mulch\mulch_07s.jpg	6	-1	0	0	mulch_07s.jpg	0	0	0	33.2870538778952	33.3370320813847	0.0499782034894451
39469	50	78	0	0	treadmill	1706	78	0	stimuli\treadmill\treadmill_04s.jpg	3	-1	0	0	treadmill_04s.jpg	0	0	0	33.38705392665	33.4370382253546	0.0499842987046577
39569	50	79	0	0	honeypot	790	79	0	stimuli\honeypot\honeypot_10s.jpg	9	-1	0	0	honeypot_10s.jpg	0	0	0	33.487057632592	33.5370372988982	0.0499796663061716
39669	50	80	0	0	pillbox	1175	80	0	stimuli\pillbox\pillbox_10s.jpg	9	-1	0	0	pillbox_10s.jpg	0	0	0	33.5870576813468	33.6370395419071	0.049981860560365
39769	50	81	0	0	groundhog	718	81	0	stimuli\groundhog\groundhog_08s.jpg	7	-1	0	0	groundhog_08s.jpg	0	0	0	33.6870772348484	33.7370705544599	0.0499933196115308
39869	50	82	0	0	pacifier	1093	82	0	stimuli\pacifier\pacifier_08s.jpg	7	-1	0	0	pacifier_08s.jpg	0	0	0	33.7870943502639	33.8370698717772	0.0499755215132609
39969	50	83	0	0	platypus	1198	83	0	stimuli\platypus\platypus_03s.jpg	2	-1	0	0	platypus_03s.jpg	0	0	0	33.8870922047063	33.9370838176692	0.0499916129629128
40069	50	84	0	0	ivy	834	84	0	stimuli\ivy\ivy_07s.jpg	6	-1	0	0	ivy_07s.jpg	0	0	0	33.98709883634	34.0370775273768	0.049978691036813
40169	50	85	0	0	plastic_film	1196	85	0	stimuli\plastic_film\plastic_film_01b.jpg	0	-1	0	0	plastic_film_01b.jpg	0	0	0	34.0870864508324	34.137080989487	0.0499945386545733
40269	50	86	0	0	dashboard	475	86	0	stimuli\dashboard\dashboard_01b.jpg	0	-1	0	0	dashboard_01b.jpg	0	0	0	34.187102103373	34.2370903029805	0.0499881996074691
40369	50	87	0	0	golf_cart	689	87	0	stimuli\golf_cart\golf_cart_11s.jpg	10	-1	0	0	golf_cart_11s.jpg	0	0	0	34.2870867921738	34.3370827937033	0.0499960015295073
40469	50	88	0	0	seahorse	1396	88	0	stimuli\seahorse\seahorse_08s.jpg	7	-1	0	0	seahorse_08s.jpg	0	0	0	34.3871039075311	34.4371069795452	0.0500030720140785
40569	50	89	0	0	balance_beam	58	89	0	stimuli\balance_beam\balance_beam_04s.jpg	3	-1	0	0	balance_beam_04s.jpg	0	0	0	34.4871081010788	34.5371131235152	0.0500050224363804
40669	50	90	0	0	vase	1753	90	0	stimuli\vase\vase_05s.jpg	4	-1	0	0	vase_05s.jpg	0	0	0	34.5871103441459	34.6370761133148	0.0499657691689208
40769	50	91	0	0	fast_food	572	91	0	stimuli\fast_food\fast_food_09s.jpg	8	-1	0	0	fast_food_09s.jpg	0	0	0	34.687096983369	34.7370937163359	0.0499967329669744
40869	50	92	0	0	xylophone	1843	92	0	stimuli\xylophone\xylophone_06s.jpg	5	-1	0	0	xylophone_06s.jpg	0	0	0	34.7871162930387	34.837080355559	0.0499640625203028
40969	50	93	0	0	scalpel	1374	93	0	stimuli\scalpel\scalpel_11s.jpg	10	-1	0	0	scalpel_11s.jpg	0	0	0	34.887118292274	34.9371069795452	0.0499886872712523
41069	50	94	0	0	shoe_polish	1424	94	0	stimuli\shoe_polish\shoe_polish_11s.jpg	10	-1	0	0	shoe_polish_11s.jpg	0	0	0	34.9871239486965	35.0371016645222	0.049977715825662
41169	50	95	0	0	chipmunk	334	95	0	stimuli\chipmunk\chipmunk_12s.jpg	11	-1	0	0	chipmunk_12s.jpg	0	0	0	35.087107418396	35.1370939113549	0.0499864929588512
41269	50	96	0	0	shorts	1430	96	0	stimuli\shorts\shorts_02s.jpg	1	-1	0	0	shorts_02s.jpg	0	0	0	35.1871194138075	35.2370978610707	0.0499784472631291
41369	50	97	0	0	gearshift	668	97	0	stimuli\gearshift\gearshift_05s.jpg	4	-1	0	0	gearshift_05s.jpg	0	0	0	35.2871228759177	35.3371003479697	0.0499774720519781
41469	50	98	0	0	pantsuit	1109	98	0	stimuli\pantsuit\pantsuit_03s.jpg	2	-1	0	0	pantsuit_03s.jpg	0	0	0	35.3871207304182	35.4371040538535	0.0499833234352991
41569	50	99	0	0	pigeon	1171	99	0	stimuli\pigeon\pigeon_07s.jpg	6	-1	0	0	pigeon_07s.jpg	0	0	0	35.4871078572469	35.5370904493029	0.0499825920560397
41669	50	100	0	0	piano	1165	100	0	stimuli\piano\piano_04n.jpg	3	-1	0	0	piano_04n.jpg	0	0	0	35.5871352126705	35.6371178046684	0.0499825919978321
41769	50	101	0	0	buggy	213	101	0	stimuli\buggy\buggy_07s.jpg	6	-1	0	0	buggy_07s.jpg	0	0	0	35.6871411128668	35.7371198039036	0.049978691036813
41869	50	102	0	0	sledgehammer	1461	102	0	stimuli\sledgehammer\sledgehammer_12s.jpg	11	-1	0	0	sledgehammer_12s.jpg	0	0	0	35.7871262892149	35.8371040050988	0.0499777158838697
41969	50	103	0	0	rust	1342	103	0	stimuli\rust\rust_01b.jpg	0	-1	0	1	rust_01b.jpg	0	0	0	35.8871412103763	35.9371245338116	0.0499833234352991
42069	50	104	0	0	crank	432	104	0	stimuli\crank\crank_11s.jpg	10	-1	0	0	crank_11s.jpg	0	0	0	35.9871478419518	36.0371270206524	0.0499791787005961
42169	50	105	0	0	record_player	1296	105	0	stimuli\record_player\record_player_08s.jpg	7	-1	0	0	record_player_08s.jpg	0	0	0	36.0871208279277	36.1371009818395	0.049980153911747
42269	50	106	0	0	trapdoor	1703	106	0	stimuli\trapdoor\trapdoor_03s.jpg	2	-1	0	0	trapdoor_03s.jpg	1	0.341879495827015	1	36.1871179509908	36.2371007868205	0.0499828358297236
42369	50	107	0	0	pill	1174	107	0	stimuli\pill\pill_10s.jpg	9	-1	0	0	pill_10s.jpg	0	0	0	36.2871248263982	36.337103517435	0.049978691036813
42469	50	108	0	0	egg	546	108	0	stimuli\egg\egg_10s.jpg	9	-1	0	0	egg_10s.jpg	0	0	0	36.3871241437155	36.4371072233771	0.0499830796616152
42569	50	109	0	0	file1	583	109	0	stimuli\file1\file1_07s.jpg	6	-1	0	0	file1_07s.jpg	0	0	0	36.4871276058257	36.5371084911749	0.0499808853492141
42669	50	110	0	0	candlestick	254	110	0	stimuli\candlestick\candlestick_09s.jpg	8	-1	0	0	candlestick_09s.jpg	0	0	0	36.5871288736234	36.6371143913711	0.0499855177477002
42769	50	111	0	0	birdbath	129	111	0	stimuli\birdbath\birdbath_12s.jpg	11	-1	0	0	birdbath_12s.jpg	0	0	0	36.6871337985503	36.7371463791351	0.0500125805847347
42869	50	112	0	0	meat	987	112	0	stimuli\meat\meat_10s.jpg	9	-1	0	0	meat_10s.jpg	0	0	0	36.7871638358338	36.8371427707607	0.0499789349269122
42969	50	113	0	0	wire	1828	113	0	stimuli\wire\wire_02s.jpg	1	-1	0	0	wire_02s.jpg	0	0	0	36.8871582769789	36.9371416004724	0.0499833234935068
43069	50	114	0	0	meatloaf	990	114	0	stimuli\meatloaf\meatloaf_01s.jpg	0	-1	0	0	meatloaf_01s.jpg	0	0	0	36.9871617390891	37.0371453063563	0.0499835672671907
43169	50	115	0	0	box	181	115	0	stimuli\box\box_06s.jpg	5	-1	0	0	box_06s.jpg	0	0	0	37.0871559364605	37.1371346274973	0.049978691036813
43269	50	116	0	0	grapevine	704	116	0	stimuli\grapevine\grapevine_01b.jpg	0	-1	0	0	grapevine_01b.jpg	0	0	0	37.1871898747049	37.2371597886086	0.0499699139036238
43369	50	117	0	0	telephone_pole	1639	117	0	stimuli\telephone_pole\telephone_pole_11s.jpg	10	-1	0	0	telephone_pole_11s.jpg	0	0	0	37.2871633482282	37.337147403101	0.0499840548727661
43469	50	118	0	0	blanket	136	118	0	stimuli\blanket\blanket_09s.jpg	8	-1	0	0	blanket_09s.jpg	0	0	0	37.387167297944	37.437162568036	0.0499952700920403
43569	50	119	0	0	jar	840	119	0	stimuli\jar\jar_03s.jpg	2	-1	0	0	jar_03s.jpg	0	0	0	37.4871912400122	37.5371623730171	0.049971133004874
43669	50	120	0	0	wineglass	1826	120	0	stimuli\wineglass\wineglass_01b.jpg	0	-1	0	0	wineglass_01b.jpg	0	0	0	37.5871695897658	37.6371536446386	0.0499840548727661
43769	50	121	0	0	ashtray	41	121	0	stimuli\ashtray\ashtray_04s.jpg	3	-1	0	0	ashtray_04s.jpg	0	0	0	37.6871869489551	37.7371680781362	0.0499811291811056
43869	50	122	0	0	fishbowl	601	122	0	stimuli\fishbowl\fishbowl_04s.jpg	3	-1	0	0	fishbowl_04s.jpg	0	0	0	37.7871782205766	37.837159105984	0.0499808854074217
43969	50	123	0	0	weasel	1797	123	0	stimuli\weasel\weasel_11n.jpg	10	-1	0	0	weasel_11n.jpg	0	0	0	37.8871941169491	37.9371740270872	0.0499799101380631
44069	50	124	0	0	stroller	1574	124	0	stimuli\stroller\stroller_02s.jpg	1	-1	0	0	stroller_02s.jpg	0	0	0	37.9871939219302	38.0371760263224	0.0499821043922566
44169	50	125	0	0	jewelry	850	125	0	stimuli\jewelry\jewelry_06s.jpg	5	-1	0	0	jewelry_06s.jpg	0	0	0	38.08718226786	38.1371768065146	0.0499945386545733
44269	50	126	0	0	calzone	243	126	0	stimuli\calzone\calzone_05s.jpg	4	-1	0	0	calzone_05s.jpg	0	0	0	38.1872023089672	38.2371822190471	0.0499799100798555
44369	50	127	0	0	bathrobe	90	127	0	stimuli\bathrobe\bathrobe_04s.jpg	3	-1	0	0	bathrobe_04s.jpg	0	0	0	38.2871862663305	38.3371837306768	0.0499974643462338
44469	50	128	0	0	pretzel	1239	128	0	stimuli\pretzel\pretzel_08s.jpg	7	-1	0	0	pretzel_08s.jpg	0	0	0	38.3871894846088	38.4371867051814	0.0499972205725498
44569	50	129	0	0	puppy	1258	129	0	stimuli\puppy\puppy_11s.jpg	10	-1	0	0	puppy_11s.jpg	0	0	0	38.4872102571535	38.5371867539361	0.0499764967826195
44669	50	130	0	0	stockings	1559	130	0	stimuli\stockings\stockings_02s.jpg	1	-1	0	0	stockings_02s.jpg	0	0	0	38.5872144506429	38.6371921664686	0.049977715825662
44769	50	131	0	0	baton1	92	131	0	stimuli\baton1\baton1_05s.jpg	4	-1	0	0	baton1_05s.jpg	0	0	0	38.6872140117921	38.7371946533676	0.0499806415755302
44869	50	132	0	0	hedge	773	132	0	stimuli\hedge\hedge_11s.jpg	10	-1	0	0	hedge_11s.jpg	0	0	0	38.7871991881984	38.8371803173795	0.0499811291811056
44969	50	133	0	0	sloth	1471	133	0	stimuli\sloth\sloth_01b.jpg	0	-1	0	0	sloth_01b.jpg	0	0	0	38.8872031379142	38.9372020651354	0.0499989272211678
45069	50	134	0	0	playpen	1200	134	0	stimuli\playpen\playpen_10s.jpg	9	-1	0	0	playpen_10s.jpg	0	0	0	38.9872243980644	39.0372021138901	0.049977715825662
45169	50	135	0	0	glass	677	135	0	stimuli\glass\glass_10s.jpg	9	-1	0	0	glass_10s.jpg	0	0	0	39.0872227401705	39.1372026503086	0.0499799101380631
45269	50	136	0	0	wrapping_paper	1838	136	0	stimuli\wrapping_paper\wrapping_paper_09s.jpg	8	-1	0	0	wrapping_paper_09s.jpg	0	0	0	39.1872303470154	39.2372092818841	0.0499789348687045
45369	50	137	0	0	fan	571	137	0	stimuli\fan\fan_09s.jpg	8	-1	0	0	fan_09s.jpg	0	0	0	39.2872279576841	39.3372088430333	0.0499808853492141
45469	50	138	0	0	muffin	1035	138	0	stimuli\muffin\muffin_07n.jpg	6	-1	0	0	muffin_07n.jpg	0	0	0	39.387230200693	39.4372164498782	0.0499862491851673
45569	50	139	0	0	dial	483	139	0	stimuli\dial\dial_06s.jpg	5	-1	0	0	dial_06s.jpg	0	0	0	39.4872358571156	39.5372128415038	0.049976984388195
45669	50	140	0	0	water_cooler	1788	140	0	stimuli\water_cooler\water_cooler_07s.jpg	6	-1	0	0	water_cooler_07s.jpg	0	0	0	39.5872359058703	39.6372150845709	0.0499791787005961
45769	50	141	0	0	fork	634	141	0	stimuli\fork\fork_08s.jpg	7	-1	0	0	fork_08s.jpg	0	0	0	39.6872398555861	39.7372058685869	0.0499660130008124
45869	50	142	0	0	aloe	14	142	0	stimuli\aloe\aloe_02s.jpg	1	-1	0	0	aloe_02s.jpg	0	0	0	39.7872401481145	39.8372110373457	0.0499708892311901
45969	50	143	0	0	bolo_tie	157	143	0	stimuli\bolo_tie\bolo_tie_01b.jpg	0	-1	0	0	bolo_tie_01b.jpg	0	0	0	39.8872440978303	39.9372123051435	0.0499682073132135
46069	50	144	0	0	bungee	221	144	0	stimuli\bungee\bungee_05s.jpg	4	-1	0	0	bungee_05s.jpg	0	0	0	39.9872553618043	40.0372330776881	0.0499777158838697
46169	50	145	0	0	possum	1228	145	0	stimuli\possum\possum_08s.jpg	7	-1	0	0	possum_08s.jpg	0	0	0	40.0872478525271	40.1372158159502	0.0499679634231143
46269	50	146	0	0	paint	1096	146	0	stimuli\paint\paint_07s.jpg	6	-1	0	0	paint_07s.jpg	0	0	0	40.1872486327193	40.2372197656659	0.0499711329466663
46369	50	147	0	0	banana_peel	64	147	0	stimuli\banana_peel\banana_peel_10s.jpg	9	-1	0	0	banana_peel_10s.jpg	0	0	0	40.2872520947712	40.3372351744329	0.0499830796616152
46469	50	148	0	0	coop	404	148	0	stimuli\coop\coop_11s.jpg	10	-1	0	0	coop_11s.jpg	0	0	0	40.3872392216581	40.4372366860625	0.0499974644044414
46569	50	149	0	0	jack	835	149	0	stimuli\jack\jack_01b.jpg	0	-1	0	0	jack_01b.jpg	0	0	0	40.4872592627653	40.5372240567231	0.0499647939577699
46669	50	150	0	0	firewood	597	150	0	stimuli\firewood\firewood_08s.jpg	7	-1	0	0	firewood_08s.jpg	0	0	0	40.5872605305631	40.6372421473498	0.0499816167866811
46769	50	151	0	0	pulley	1250	151	0	stimuli\pulley\pulley_07s.jpg	6	-1	0	0	pulley_07s.jpg	0	0	0	40.6872635050677	40.7372446342488	0.0499811291811056
46869	50	152	0	0	earplug	539	152	0	stimuli\earplug\earplug_08s.jpg	7	-1	0	0	earplug_08s.jpg	0	0	0	40.7872669671196	40.8372312734718	0.0499643063521944
46969	50	153	0	0	chest1	319	153	0	stimuli\chest1\chest1_05s.jpg	4	-1	0	0	chest1_05s.jpg	0	0	0	40.8872667721007	40.9372510708054	0.0499842987046577
47069	50	154	0	0	shears	1412	154	0	stimuli\shears\shears_10s.jpg	9	-1	0	0	shears_10s.jpg	0	0	0	40.9872743789456	41.0372367348173	0.0499623558716848
47169	50	155	0	0	bassoon	86	155	0	stimuli\bassoon\bassoon_08s.jpg	7	-1	0	0	bassoon_08s.jpg	0	0	0	41.0872561419965	41.1372343454859	0.0499782034894451
47269	50	156	0	0	gorilla	695	156	0	stimuli\gorilla\gorilla_12s.jpg	11	-1	0	0	gorilla_12s.jpg	0	0	0	41.1872549717082	41.2372446342488	0.0499896625406109
47369	50	157	0	0	french_horn	642	157	0	stimuli\french_horn\french_horn_12s.jpg	11	-1	0	0	french_horn_12s.jpg	0	0	0	41.2872467309935	41.33724151348	0.0499947824864648
47469	50	158	0	0	hairpin	737	158	0	stimuli\hairpin\hairpin_06s.jpg	5	-1	0	0	hairpin_06s.jpg	0	0	0	41.3872609206592	41.4372671621968	0.0500062415376306
47569	50	159	0	0	cassette	283	159	0	stimuli\cassette\cassette_11n.jpg	10	-1	0	0	cassette_11n.jpg	0	0	0	41.4872860817704	41.537265260471	0.0499791787005961
47669	50	160	0	0	trumpet	1721	160	0	stimuli\trumpet\trumpet_09s.jpg	8	-1	0	0	trumpet_09s.jpg	0	0	0	41.5872883248376	41.6372526311898	0.0499643063521944
47769	50	161	0	0	hearse	771	161	0	stimuli\hearse\hearse_12s.jpg	11	-1	0	0	hearse_12s.jpg	0	0	0	41.6872891050298	41.7372704779846	0.0499813729547895
47869	50	162	0	0	locket	942	162	0	stimuli\locket\locket_08s.jpg	7	-1	0	1	locket_08s.jpg	0	0	0	41.787289885222	41.8372739400947	0.0499840548727661
47969	50	163	0	0	notepad	1065	163	0	stimuli\notepad\notepad_04s.jpg	3	-1	0	0	notepad_04s.jpg	0	0	0	41.8872774997144	41.9372739888495	0.0499964891350828
48069	50	164	0	0	walker2	1774	164	0	stimuli\walker2\walker2_12s.jpg	11	-1	0	0	walker2_12s.jpg	0	0	0	41.9873029045993	42.0372664795141	0.0499635749147274
48169	50	165	0	0	robot	1318	165	0	stimuli\robot\robot_07s.jpg	6	-1	0	0	robot_07s.jpg	1	0.34190850914456	1	42.0872841801029	42.1372821320547	0.0499979519518092
48269	50	166	0	0	pomegranate	1219	166	0	stimuli\pomegranate\pomegranate_08s.jpg	7	-1	0	0	pomegranate_08s.jpg	0	0	0	42.1873000764172	42.2372865694342	0.0499864930170588
48369	50	167	0	0	seafood	1394	167	0	stimuli\seafood\seafood_10s.jpg	9	-1	0	0	seafood_10s.jpg	0	0	0	42.2872867156984	42.3372846677084	0.0499979520100169
48469	50	168	0	0	penguin	1145	168	0	stimuli\penguin\penguin_12s.jpg	11	-1	0	0	penguin_12s.jpg	0	0	0	42.3873045625514	42.4372876421548	0.0499830796034075
48569	50	169	0	0	buckle	210	169	0	stimuli\buckle\buckle_11s.jpg	10	-1	0	0	buckle_11s.jpg	0	0	0	42.4873131446075	42.5372891537845	0.049976009177044
48669	50	170	0	0	racket	1270	170	0	stimuli\racket\racket_10s.jpg	9	-1	0	0	racket_10s.jpg	0	0	0	42.5872951514903	42.6372801816324	0.0499850301421247
48769	50	171	0	0	timer	1661	171	0	stimuli\timer\timer_02s.jpg	1	-1	0	0	timer_02s.jpg	0	0	0	42.6873000764172	42.7372797427233	0.0499796663061716
48869	50	172	0	0	wallet	1776	172	0	stimuli\wallet\wallet_08s.jpg	7	-1	0	0	wallet_08s.jpg	0	0	0	42.7872979309177	42.8372732086573	0.049975277739577
48969	50	173	0	0	emerald	555	173	0	stimuli\emerald\emerald_07s.jpg	6	-1	0	0	emerald_07s.jpg	0	0	0	42.887317728193	42.9373003202491	0.0499825920560397
49069	50	174	0	0	knot	883	174	0	stimuli\knot\knot_10s.jpg	9	-1	0	0	knot_10s.jpg	0	0	0	42.9873207026976	43.0373037823592	0.0499830796616152
49169	50	175	0	0	reel	1299	175	0	stimuli\reel\reel_09s.jpg	8	-1	0	0	reel_09s.jpg	0	0	0	43.0873217266635	43.1372872520587	0.0499655253952369
49269	50	176	0	0	snack	1475	176	0	stimuli\snack\snack_10s.jpg	9	-1	0	0	snack_10s.jpg	0	0	0	43.1873271392542	43.2373107065214	0.0499835672671907
49369	50	177	0	0	slime	1465	177	0	stimuli\slime\slime_06s.jpg	5	-1	0	0	slime_06s.jpg	0	0	0	43.2873276756145	43.3372946638847	0.049966988270171
49469	50	178	0	0	dice	486	178	0	stimuli\dice\dice_05s.jpg	4	-1	0	0	dice_05s.jpg	0	0	0	43.3873591757729	43.4373129983433	0.0499538225703873
49569	50	179	0	0	walnut	1778	179	0	stimuli\walnut\walnut_10s.jpg	9	-1	0	0	walnut_10s.jpg	0	0	0	43.4873336245655	43.5373137785355	0.0499801539699547
49669	50	180	0	0	lantern	895	180	0	stimuli\lantern\lantern_07s.jpg	6	-1	0	0	lantern_07s.jpg	0	0	0	43.5872763781808	43.6373026120709	0.0500262338900939
49769	50	181	0	0	washing_machine	1784	181	0	stimuli\washing_machine\washing_machine_06s.jpg	5	-1	0	0	washing_machine_06s.jpg	0	0	0	43.6873237258988	43.7373319179169	0.0500081920181401
49869	50	182	0	0	nutcracker	1067	182	0	stimuli\nutcracker\nutcracker_05s.jpg	4	-1	0	0	nutcracker_05s.jpg	0	0	0	43.7873371841852	43.8373207514524	0.0499835672671907
49969	50	183	0	0	flute	620	183	0	stimuli\flute\flute_04s.jpg	3	-1	0	0	flute_04s.jpg	0	0	0	43.8873528367258	43.9373254326056	0.0499725958798081
50069	50	184	0	0	pasta	1123	184	0	stimuli\pasta\pasta_02s.jpg	1	-1	0	0	pasta_02s.jpg	0	0	0	43.9873489845777	44.0373276756145	0.049978691036813
50169	50	185	0	0	gopher	694	185	0	stimuli\gopher\gopher_10s.jpg	9	-1	0	0	gopher_10s.jpg	0	0	0	44.0873463514145	44.1373421091121	0.0499957576976158
50269	50	186	0	0	anklet	23	186	0	stimuli\anklet\anklet_09s.jpg	8	-1	0	0	anklet_09s.jpg	0	0	0	44.1873659049161	44.2373345998349	0.049968694918789
50369	50	187	0	0	weather_vane	1798	187	0	stimuli\weather_vane\weather_vane_12s.jpg	11	-1	0	0	weather_vane_12s.jpg	0	0	0	44.2873408413143	44.3373195324093	0.0499786910950206
50469	50	188	0	0	tuning_fork	1728	188	0	stimuli\tuning_fork\tuning_fork_11s.jpg	10	-1	0	0	tuning_fork_11s.jpg	0	0	0	44.3873333320371	44.4373381106416	0.0500047786044888
50569	50	189	0	0	pipe2	1187	189	0	stimuli\pipe2\pipe2_02s.jpg	1	-1	0	0	pipe2_02s.jpg	0	0	0	44.4873628816567	44.5373420603573	0.0499791787005961
50669	50	190	0	0	frog	644	190	0	stimuli\frog\frog_03s.jpg	2	-1	0	0	frog_03s.jpg	0	0	0	44.5873429381172	44.6373443034245	0.0500013653072529
50769	50	191	0	0	turf	1732	191	0	stimuli\turf\turf_10s.jpg	9	-1	0	0	turf_10s.jpg	0	0	0	44.6873671239591	44.7373460588278	0.0499789348687045
50869	50	192	0	0	towel	1692	192	0	stimuli\towel\towel_10s.jpg	9	-1	0	0	towel_10s.jpg	0	0	0	44.7873481556308	44.8373478142894	0.0499996586586349
50969	50	193	0	0	quesadilla	1261	193	0	stimuli\quesadilla\quesadilla_09s.jpg	8	-1	0	0	quesadilla_09s.jpg	0	0	0	44.8873689281754	44.9373507887358	0.049981860560365
51069	50	194	0	0	pocket_watch	1206	194	0	stimuli\pocket_watch\pocket_watch_10s.jpg	9	-1	0	0	pocket_watch_10s.jpg	0	0	0	44.9873716587899	45.0373510813224	0.0499794225324877
51169	50	195	0	0	recliner	1294	195	0	stimuli\recliner\recliner_09s.jpg	8	-1	0	0	recliner_09s.jpg	0	0	0	45.0873743894626	45.1373538119951	0.0499794225324877
51269	50	196	0	0	cardboard	272	196	0	stimuli\cardboard\cardboard_10s.jpg	9	-1	0	0	cardboard_10s.jpg	0	0	0	45.1873766325298	45.2373592245276	0.0499825919978321
51369	50	197	0	0	bike	123	197	0	stimuli\bike\bike_05s.jpg	4	-1	0	0	bike_05s.jpg	0	0	0	45.2873652222333	45.3373461076408	0.0499808854074217
51469	50	198	0	0	recorder	1297	198	0	stimuli\recorder\recorder_07s.jpg	6	-1	0	0	recorder_07s.jpg	0	0	0	45.3873582005617	45.4373627353925	0.0500045348308049
51569	50	199	0	0	raspberry	1284	199	0	stimuli\raspberry\raspberry_03n.jpg	2	-1	0	0	raspberry_03n.jpg	0	0	0	45.4873899444938	45.5373652222333	0.049975277739577
51669	50	200	0	0	glove	680	200	0	stimuli\glove\glove_04s.jpg	3	-1	0	0	glove_04s.jpg	0	0	0	45.5873712199391	45.6373365015024	0.0499652815633453
51769	50	201	0	0	machine_gun	954	201	0	stimuli\machine_gun\machine_gun_09s.jpg	8	-1	0	0	machine_gun_09s.jpg	0	0	0	45.6873895543977	45.7373716587899	0.0499821043922566
51869	50	202	0	0	guinea_pig	722	202	0	stimuli\guinea_pig\guinea_pig_04s.jpg	3	-1	0	0	guinea_pig_04s.jpg	0	0	0	45.7873776564957	45.8373570790282	0.0499794225324877
51969	50	203	0	0	screwdriver	1391	203	0	stimuli\screwdriver\screwdriver_11s.jpg	10	-1	0	0	screwdriver_11s.jpg	0	0	0	45.8874086690485	45.9373771201354	0.0499684510868974
52069	50	204	0	0	thread	1651	204	0	stimuli\thread\thread_05s.jpg	4	-1	0	1	thread_05s.jpg	0	0	0	45.9873823864036	46.0373608336668	0.0499784472631291
52169	50	205	0	0	pudding	1246	205	0	stimuli\pudding\pudding_04s.jpg	3	-1	0	0	pudding_04s.jpg	0	0	0	46.0873992580455	46.1373652709881	0.0499660129426047
52269	50	206	0	0	sink	1447	206	0	stimuli\sink\sink_05s.jpg	4	-1	0	0	sink_05s.jpg	0	0	0	46.1873990629683	46.2373840931104	0.0499850301421247
52369	50	207	0	0	trombone	1716	207	0	stimuli\trombone\trombone_06s.jpg	5	-1	0	0	trombone_06s.jpg	1	0.350162425718736	1	46.2874093517312	46.337371463771	0.0499621120397933
52469	50	208	0	0	speedboat	1511	208	0	stimuli\speedboat\speedboat_10s.jpg	9	-1	0	0	speedboat_10s.jpg	0	0	0	46.3874120824039	46.4373902858351	0.0499782034312375
52569	50	209	0	0	milkshake	1002	209	0	stimuli\milkshake\milkshake_02s.jpg	1	-1	0	0	milkshake_02s.jpg	0	0	0	46.4874118873267	46.5373900908162	0.0499782034894451
52669	50	210	0	0	axe	45	210	0	stimuli\axe\axe_03n.jpg	2	-1	0	0	axe_03n.jpg	0	0	0	46.5874107170384	46.6373916023877	0.0499808853492141
52769	50	211	0	0	pocketknife	1207	211	0	stimuli\pocketknife\pocketknife_06s.jpg	5	-1	0	0	pocketknife_06s.jpg	0	0	0	46.6874158857972	46.7373945768923	0.0499786910950206
52869	50	212	0	0	bikini	124	212	0	stimuli\bikini\bikini_10s.jpg	9	-1	0	0	bikini_10s.jpg	0	0	0	46.7874010622036	46.8373990142136	0.0499979520100169
52969	50	213	0	0	scorpion	1384	213	0	stimuli\scorpion\scorpion_07s.jpg	6	-1	0	0	scorpion_07s.jpg	0	0	0	46.8874203718733	46.937383946788	0.0499635749147274
53069	50	214	0	0	avocado	43	214	0	stimuli\avocado\avocado_10s.jpg	9	-1	0	0	avocado_10s.jpg	0	0	0	46.9874206644599	47.0373983802856	0.049977715825662
53169	50	215	0	0	hash	756	215	0	stimuli\hash\hash_05s.jpg	4	-1	0	0	hash_05s.jpg	0	0	0	47.0874243703438	47.13740403665	0.0499796663061716
53269	50	216	0	0	dragonfly	514	216	0	stimuli\dragonfly\dragonfly_12s.jpg	11	-1	0	0	dragonfly_12s.jpg	0	0	0	47.1874319771887	47.2374048168422	0.049972839653492
53369	50	217	0	0	ratchet	1286	217	0	stimuli\ratchet\ratchet_01s.jpg	0	-1	0	0	ratchet_01s.jpg	0	0	0	47.2874251992907	47.3374060846982	0.0499808854074217
53469	50	218	0	0	lip_balm	934	218	0	stimuli\lip_balm\lip_balm_07s.jpg	6	-1	0	0	lip_balm_07s.jpg	0	0	0	47.387428417569	47.437409790582	0.0499813730129972
53569	50	219	0	0	flashlight	611	219	0	stimuli\flashlight\flashlight_03s.jpg	2	-1	0	0	flashlight_03s.jpg	0	0	0	47.487429685425	47.5374091078993	0.04997942247428
53669	50	220	0	0	zipper	1852	220	0	stimuli\zipper\zipper_10s.jpg	9	-1	0	0	zipper_10s.jpg	0	0	0	47.5874353417894	47.6374198842677	0.0499845424783416
53769	50	221	0	0	potato	1231	221	0	stimuli\potato\potato_11s.jpg	10	-1	0	0	potato_11s.jpg	0	0	0	47.6874383162358	47.7374187139794	0.0499803977436386
53869	50	222	0	0	garbage	655	222	0	stimuli\garbage\garbage_07s.jpg	6	-1	0	0	garbage_07s.jpg	0	0	0	47.7874383649905	47.8374190065661	0.0499806415755302
53969	50	223	0	0	clothespin	363	223	0	stimuli\clothespin\clothespin_07s.jpg	6	-1	0	0	clothespin_07s.jpg	0	0	0	47.8874430461437	47.9374229562818	0.0499799101380631
54069	50	224	0	0	handbrake	745	224	0	stimuli\handbrake\handbrake_12s.jpg	11	-1	0	0	handbrake_12s.jpg	0	0	0	47.9874421196873	48.0374271497712	0.0499850300839171
54169	50	225	0	0	coffee_filter	379	225	0	stimuli\coffee_filter\coffee_filter_04s.jpg	3	-1	0	0	coffee_filter_04s.jpg	0	0	0	48.0874463131768	48.137429880444	0.0499835672671907
54269	50	226	0	0	freezer	640	226	0	stimuli\freezer\freezer_05s.jpg	4	-1	0	0	freezer_05s.jpg	0	0	0	48.1874512381619	48.2374177387683	0.0499665006063879
54369	50	227	0	0	whiteboard	1813	227	0	stimuli\whiteboard\whiteboard_05s.jpg	4	-1	0	0	whiteboard_05s.jpg	0	0	0	48.2874493364361	48.3374368046061	0.0499874681700021
54469	50	228	0	0	telegraph	1638	228	0	stimuli\telegraph\telegraph_12s.jpg	11	-1	0	0	telegraph_12s.jpg	0	0	0	48.3874527984881	48.4374200305319	0.0499672320438549
54569	50	229	0	0	tortilla	1687	229	0	stimuli\tortilla\tortilla_03s.jpg	2	-1	0	0	tortilla_03s.jpg	0	0	0	48.4874457768165	48.5374264183338	0.0499806415173225
54669	50	230	0	0	earring	540	230	0	stimuli\earring\earring_06n.jpg	5	-1	0	0	earring_06n.jpg	0	0	0	48.5874675245723	48.637428417569	0.0499608929967508
54769	50	231	0	0	flipper	615	231	0	stimuli\flipper\flipper_06s.jpg	5	-1	0	0	flipper_06s.jpg	0	0	0	48.6874668419478	48.7374484587344	0.0499816167866811
54869	50	232	0	0	tackle	1612	232	0	stimuli\tackle\tackle_02s.jpg	1	-1	0	0	tackle_02s.jpg	0	0	0	48.7874512869166	48.8374314408284	0.049980153911747
54969	50	233	0	0	heater	772	233	0	stimuli\heater\heater_10s.jpg	9	-1	0	0	heater_10s.jpg	0	0	0	48.8874701089808	48.9374495314551	0.04997942247428
55069	50	234	0	0	bull	214	234	0	stimuli\bull\bull_02s.jpg	1	-1	0	0	bull_02s.jpg	0	0	0	48.9874733272591	49.0374361707363	0.0499628434772603
55169	50	235	0	0	suitcase	1581	235	0	stimuli\suitcase\suitcase_06s.jpg	5	-1	0	0	suitcase_06s.jpg	0	0	0	49.0874614293571	49.137454261363	0.0499928320059553
55269	50	236	0	0	bagel	55	236	0	stimuli\bagel\bagel_05s.jpg	4	-1	0	0	bagel_05s.jpg	0	0	0	49.1874775695032	49.2374445577734	0.049966988270171
55369	50	237	0	0	wing	1827	237	0	stimuli\wing\wing_12s.jpg	11	-1	0	0	wing_12s.jpg	0	0	0	49.287480300176	49.3374450941337	0.0499647939577699
55469	50	238	0	0	seaweed	1400	238	0	stimuli\seaweed\seaweed_03s.jpg	2	-1	0	0	seaweed_03s.jpg	0	0	0	49.3874837622861	49.4374651352409	0.0499813729547895
55569	50	239	0	0	spareribs	1505	239	0	stimuli\spareribs\spareribs_10s.jpg	9	-1	0	0	spareribs_10s.jpg	0	0	0	49.4874840548728	49.5374642087845	0.049980153911747
55669	50	240	0	0	car_seat	269	240	0	stimuli\car_seat\car_seat_12s.jpg	11	-1	0	0	car_seat_12s.jpg	0	0	0	49.5874870293192	49.6374701089808	0.0499830796616152
55769	50	241	0	0	trident	1712	241	0	stimuli\trident\trident_02s.jpg	1	-1	0	0	trident_02s.jpg	0	0	0	49.6874897599919	49.7374540663441	0.0499643063521944
55869	50	242	0	0	motherboard	1024	242	0	stimuli\motherboard\motherboard_02s.jpg	1	-1	0	0	motherboard_02s.jpg	0	0	0	49.7874751801719	49.8374738636194	0.0499986834474839
55969	50	243	0	0	crystal_ball	455	243	0	stimuli\crystal_ball\crystal_ball_09s.jpg	8	-1	0	0	crystal_ball_09s.jpg	0	0	0	49.8874779108446	49.9374602590688	0.0499823482241482
56069	50	244	0	0	ruby	1338	244	0	stimuli\ruby\ruby_09s.jpg	8	-1	0	0	ruby_09s.jpg	0	0	0	49.9874789348687	50.0374590887805	0.049980153911747
56169	50	245	0	0	wheat	1805	245	0	stimuli\wheat\wheat_04s.jpg	3	-1	0	0	wheat_04s.jpg	0	0	0	50.0874850788387	50.1374664518517	0.0499813730129972
56269	50	246	0	0	dirt_bike	488	246	0	stimuli\dirt_bike\dirt_bike_12s.jpg	11	-1	0	0	dirt_bike_12s.jpg	0	0	0	50.1875129218679	50.2374879557756	0.0499750339076854
56369	50	247	0	0	generator	671	247	0	stimuli\generator\generator_01b.jpg	0	-1	0	0	generator_01b.jpg	0	0	0	50.2875039496575	50.3374858102761	0.0499818606185727
56469	50	248	0	0	coffin	383	248	0	stimuli\coffin\coffin_01b.jpg	0	-1	0	0	coffin_01b.jpg	0	0	0	50.3875078993733	50.4374748876435	0.049966988270171
56569	50	249	0	0	screen1	1388	249	0	stimuli\screen1\screen1_09s.jpg	8	-1	0	0	screen1_09s.jpg	0	0	0	50.4874930757796	50.5374746925663	0.0499816167866811
56669	50	250	0	0	lamp	891	250	0	stimuli\lamp\lamp_07s.jpg	6	-1	0	0	lamp_07s.jpg	0	0	0	50.5874960502842	50.6374961965485	0.0500001462642103
56769	50	251	0	0	rooster	1330	251	0	stimuli\rooster\rooster_10s.jpg	9	-1	0	0	rooster_10s.jpg	0	0	0	50.6875399847049	50.7374796663062	0.049939681601245
56869	50	252	0	0	shortbread	1429	252	0	stimuli\shortbread\shortbread_04s.jpg	3	-1	0	0	shortbread_04s.jpg	0	0	0	50.7874993173173	50.8374999511871	0.0500006338697858
56969	50	253	0	0	breathalyzer	198	253	0	stimuli\breathalyzer\breathalyzer_02s.jpg	1	-1	0	0	breathalyzer_02s.jpg	0	0	0	50.8875232593855	50.9375014628167	0.0499782034312375
57069	50	254	0	0	bubble_wrap	208	254	0	stimuli\bubble_wrap\bubble_wrap_04s.jpg	3	-1	0	0	bubble_wrap_04s.jpg	0	0	0	50.9875223328709	51.0375022430089	0.0499799101380631
57169	50	255	0	0	pot	1230	255	0	stimuli\pot\pot_02s.jpg	1	-1	0	0	pot_02s.jpg	0	0	0	51.087527257856	51.1375074117677	0.049980153911747
57269	50	256	0	0	garter	659	256	0	stimuli\garter\garter_07s.jpg	6	-1	0	0	garter_07s.jpg	0	0	0	51.1875268190051	51.2374911252991	0.0499643062939867
57369	50	257	0	0	goalpost	683	257	0	stimuli\goalpost\goalpost_09s.jpg	8	-1	0	0	goalpost_09s.jpg	0	0	0	51.2875297934515	51.3375114102382	0.0499816167866811
57469	50	258	0	0	scooter	1382	258	0	stimuli\scooter\scooter_10s.jpg	9	-1	0	0	scooter_10s.jpg	0	0	0	51.387518626987	51.437498780957	0.0499801539699547
57569	50	259	0	0	cummerbund	459	259	0	stimuli\cummerbund\cummerbund_08s.jpg	7	-1	0	0	cummerbund_08s.jpg	0	0	0	51.4875208700541	51.5374988297117	0.0499779596575536
57669	50	260	0	0	laptop	897	260	0	stimuli\laptop\laptop_11s.jpg	10	-1	0	0	laptop_11s.jpg	0	0	0	51.5875192121603	51.637522527948	0.0500033157877624
57769	50	261	0	0	cigarette_holder	346	261	0	stimuli\cigarette_holder\cigarette_holder_07s.jpg	6	-1	0	0	cigarette_holder_07s.jpg	0	0	0	51.687542422791	51.7375052662683	0.0499628434772603
57869	50	262	0	0	bonnet	163	262	0	stimuli\bonnet\bonnet_10s.jpg	9	-1	0	0	bonnet_10s.jpg	0	0	0	51.7875400334597	51.8375062902342	0.0499662567744963
57969	50	263	0	0	visor	1766	263	0	stimuli\visor\visor_02s.jpg	1	-1	0	0	visor_02s.jpg	0	0	0	51.8875449583866	51.937530719908	0.0499857615213841
58069	50	264	0	0	spoon	1519	264	0	stimuli\spoon\spoon_05n.jpg	4	-1	0	0	spoon_05n.jpg	0	0	0	51.9875340357539	52.0375307687209	0.0499967329669744
58169	50	265	0	0	root	1331	265	0	stimuli\root\root_08s.jpg	7	-1	0	0	root_08s.jpg	0	0	0	52.0875513949431	52.1375364250853	0.0499850301421247
58269	50	266	0	0	crow	446	266	0	stimuli\crow\crow_02s.jpg	1	-1	0	0	crow_02s.jpg	0	0	0	52.1875529065728	52.2375181881362	0.0499652815633453
58369	50	267	0	0	photograph	1164	267	0	stimuli\photograph\photograph_04s.jpg	3	-1	0	0	photograph_04s.jpg	0	0	0	52.2875405210652	52.3375360349892	0.0499955139239319
58469	50	268	0	0	lid	923	268	0	stimuli\lid\lid_03s.jpg	2	-1	0	0	lid_03s.jpg	0	0	0	52.3875571488752	52.4375370589551	0.0499799100798555
58569	50	269	0	0	elephant	554	269	0	stimuli\elephant\elephant_11n.jpg	10	-1	0	0	elephant_11n.jpg	0	0	0	52.4875591481104	52.5375239420682	0.0499647939577699
58669	50	270	0	0	cup	460	270	0	stimuli\cup\cup_11s.jpg	10	-1	0	0	cup_11s.jpg	0	0	0	52.587561878725	52.637544470781	0.0499825920560397
58769	50	271	0	0	camera2	247	271	0	stimuli\camera2\camera2_11s.jpg	10	-1	0	0	camera2_11s.jpg	0	0	0	52.6875641217921	52.7375472014537	0.0499830796616152
58869	50	272	0	0	bank	69	272	0	stimuli\bank\bank_08s.jpg	7	-1	0	0	bank_08s.jpg	0	0	0	52.787551004847	52.8375501759001	0.0499991710530594
58969	50	273	0	0	ostrich	1084	273	0	stimuli\ostrich\ostrich_02s.jpg	1	-1	0	0	ostrich_02s.jpg	0	0	0	52.8875717773917	52.9375521751354	0.0499803977436386
59069	50	274	0	0	combination_lock	390	274	0	stimuli\combination_lock\combination_lock_12s.jpg	11	-1	0	0	combination_lock_12s.jpg	0	0	0	52.9875581728411	53.0375358886668	0.049977715825662
59169	50	275	0	0	fruit	645	275	0	stimuli\fruit\fruit_04s.jpg	3	-1	0	0	fruit_04s.jpg	0	0	0	53.0875733377761	53.1375593431294	0.0499860053532757
59269	50	276	0	0	pin	1177	276	0	stimuli\pin\pin_10s.jpg	9	-1	0	0	pin_10s.jpg	0	0	0	53.1875599770574	53.2375581728411	0.0499981957837008
59369	50	277	0	0	coconut	375	277	0	stimuli\coconut\coconut_01b.jpg	0	-1	0	0	coconut_01b.jpg	0	0	0	53.2875651458162	53.3375579778221	0.0499928320059553
59469	50	278	0	0	face_mask	570	278	0	stimuli\face_mask\face_mask_12s.jpg	11	-1	0	0	face_mask_12s.jpg	0	0	0	53.3875849430915	53.4375482741743	0.0499633310828358
59569	50	279	0	0	gourd	696	279	0	stimuli\gourd\gourd_07s.jpg	6	-1	0	0	gourd_07s.jpg	0	0	0	53.4875713385409	53.5375661210273	0.0499947824864648
59669	50	280	0	0	riser	1314	280	0	stimuli\riser\riser_08s.jpg	7	-1	0	0	riser_08s.jpg	0	0	0	53.5875886977883	53.6375520288711	0.0499633310828358
59769	50	281	0	0	bow2	175	281	0	stimuli\bow2\bow2_04s.jpg	3	-1	0	0	bow2_04s.jpg	0	0	0	53.6875919160666	53.7375718261464	0.0499799100798555
59869	50	282	0	0	rack1	1268	282	0	stimuli\rack1\rack1_02s.jpg	1	-1	0	0	rack1_02s.jpg	0	0	0	53.787590989552	53.8375721187331	0.0499811291811056
59969	50	283	0	0	grate	707	283	0	stimuli\grate\grate_01b.jpg	0	-1	0	0	grate_01b.jpg	0	0	0	53.8875988402287	53.9375738741364	0.0499750339076854
60069	50	284	0	0	tennis_ball	1642	284	0	stimuli\tennis_ball\tennis_ball_09s.jpg	8	-1	0	0	tennis_ball_09s.jpg	0	0	0	53.9875971823349	54.0375624638982	0.0499652815633453
60169	50	285	0	0	cap	265	285	0	stimuli\cap\cap_12s.jpg	11	-1	0	0	cap_12s.jpg	0	0	0	54.0875830901787	54.137585674529	0.0500025843502954
60269	50	286	0	0	windsock	1822	286	0	stimuli\windsock\windsock_02s.jpg	1	-1	0	0	windsock_02s.jpg	0	0	0	54.187604106497	54.2375852356781	0.0499811291811056
60369	50	287	0	0	uniform	1747	287	0	stimuli\uniform\uniform_10s.jpg	9	-1	0	0	uniform_10s.jpg	0	0	0	54.2875875762547	54.3375721187331	0.0499845424783416
60469	50	288	0	0	noodle	1061	288	0	stimuli\noodle\noodle_07s.jpg	6	-1	0	0	noodle_07s.jpg	0	0	0	54.3876107868855	54.4375987427193	0.0499879558337852
60569	50	289	0	0	toothpaste	1680	289	0	stimuli\toothpaste\toothpaste_03s.jpg	2	-1	0	0	toothpaste_03s.jpg	0	0	0	54.4875964508974	54.537574410555	0.0499779596575536
60669	50	290	0	0	macadamia	951	290	0	stimuli\macadamia\macadamia_11s.jpg	10	-1	0	0	macadamia_11s.jpg	0	0	0	54.5876123472699	54.6375949392677	0.0499825919978321
60769	50	291	0	0	gravel	709	291	0	stimuli\gravel\gravel_05n.jpg	4	-1	0	0	gravel_05n.jpg	0	0	0	54.6876031312859	54.737580359506	0.0499772282200865
60869	50	292	0	0	red_carpet	1298	292	0	stimuli\red_carpet\red_carpet_09s.jpg	8	-1	0	0	red_carpet_09s.jpg	0	0	0	54.7876009857282	54.8375801644288	0.0499791787005961
60969	50	293	0	0	jug	853	293	0	stimuli\jug\jug_03s.jpg	2	-1	0	0	jug_03s.jpg	0	0	0	54.8876295601949	54.9376019122428	0.0499723520479165
61069	50	294	0	0	firecracker	594	294	0	stimuli\firecracker\firecracker_08s.jpg	7	-1	0	0	firecracker_08s.jpg	0	0	0	54.9876052280306	55.037602692435	0.0499974644044414
61169	50	295	0	0	jumpsuit	859	295	0	stimuli\jumpsuit\jumpsuit_11s.jpg	10	-1	0	0	jumpsuit_11s.jpg	0	0	0	55.0876240500947	55.137606154487	0.0499821043922566
61269	50	296	0	0	photo_booth	1163	296	0	stimuli\photo_booth\photo_booth_03s.jpg	2	-1	0	0	photo_booth_03s.jpg	0	0	0	55.1876141026733	55.2376069346792	0.0499928320059553
61369	50	297	0	0	jalapeno	838	297	0	stimuli\jalapeno\jalapeno_11s.jpg	10	-1	0	0	jalapeno_11s.jpg	0	0	0	55.2876170771779	55.337610884395	0.0499938072171062
61469	50	298	0	0	barbell	72	298	0	stimuli\barbell\barbell_01s.jpg	0	-1	0	0	barbell_01s.jpg	0	0	0	55.3876168821007	55.4376182474662	0.0500013653654605
61569	50	299	0	0	jersey	846	299	0	stimuli\jersey\jersey_01b.jpg	0	-1	0	0	jersey_01b.jpg	0	0	0	55.4876191251678	55.5376163457404	0.0499972205725498
61669	50	300	0	0	train_set	1700	300	0	stimuli\train_set\train_set_03s.jpg	2	-1	0	0	train_set_03s.jpg	0	0	0	55.5876213681768	55.6376237087534	0.0500023405766115
61769	50	301	0	0	cordon_bleu	408	301	0	stimuli\cordon_bleu\cordon_bleu_07s.jpg	6	-1	0	0	cordon_bleu_07s.jpg	0	0	0	55.6876394588617	55.7376237575081	0.04998429864645
61869	50	302	0	0	aircraft_carrier	9	302	0	stimuli\aircraft_carrier\aircraft_carrier_04s.jpg	3	-1	0	0	aircraft_carrier_04s.jpg	0	0	0	55.7876431647455	55.8376228310517	0.0499796663061716
61969	50	303	0	0	marshmallow	977	303	0	stimuli\marshmallow\marshmallow_10s.jpg	9	-1	0	0	marshmallow_10s.jpg	0	0	0	55.8876456515864	55.9376270245411	0.0499813729547895
62069	50	304	0	0	raft	1275	304	0	stimuli\raft\raft_07s.jpg	6	-1	0	0	raft_07s.jpg	0	0	0	55.987645944173	56.0376290237764	0.0499830796034075
62169	50	305	0	0	mustard	1044	305	0	stimuli\mustard\mustard_11s.jpg	10	-1	0	0	mustard_11s.jpg	0	0	0	56.0876394100487	56.1376151754521	0.0499757654033601
62269	50	306	0	0	lamb	889	306	0	stimuli\lamb\lamb_02s.jpg	1	-1	0	0	lamb_02s.jpg	0	0	0	56.1876360455062	56.2376378984773	0.050001852971036
62369	50	307	0	0	pendulum	1144	307	0	stimuli\pendulum\pendulum_10s.jpg	9	-1	0	0	pendulum_10s.jpg	0	0	0	56.2876541361329	56.3376364843571	0.0499823482241482
62470	50	308	0	0	workbench	1835	308	0	stimuli\workbench\workbench_02s.jpg	1	-1	0	0	workbench_02s.jpg	0	0	0	56.3876627182472	56.4376426283852	0.0499799101380631
70570	50	309	0	0	crystal2	454	0	1	stimuli\crystal2\crystal2_04s.jpg	3	-1	1	0	crystal2_04s.jpg	0	0	0	64.4878592772293	64.537838212098	0.0499789348687045
70670	50	310	0	0	bandage	66	1	1	stimuli\bandage\bandage_05s.jpg	4	-1	1	0	bandage_05s.jpg	0	0	0	64.5878600574215	64.6378448437317	0.0499847863102332
70770	50	311	0	0	squash	1526	2	1	stimuli\squash\squash_07s.jpg	6	-1	1	0	squash_07s.jpg	0	0	0	64.6878623004304	64.7378439172171	0.0499816167866811
70870	50	312	0	0	lip_gloss	935	3	1	stimuli\lip_gloss\lip_gloss_04s.jpg	3	-1	1	0	lip_gloss_04s.jpg	0	0	0	64.7878716139821	64.8378500612453	0.0499784472631291
70970	50	313	0	0	sandwich	1357	4	1	stimuli\sandwich\sandwich_10s.jpg	9	-1	1	0	sandwich_10s.jpg	0	0	0	64.887871418905	64.9378491347306	0.049977715825662
71070	50	314	0	0	stained_glass	1531	5	1	stimuli\stained_glass\stained_glass_08s.jpg	7	-1	1	0	stained_glass_08s.jpg	0	0	0	64.9878714676597	65.0378521092352	0.0499806415755302
71170	50	315	0	0	noose	1062	6	1	stimuli\noose\noose_11s.jpg	10	-1	1	0	noose_11s.jpg	0	0	0	65.0878741983324	65.1378558151191	0.0499816167866811
71270	50	316	0	0	fire_alarm	591	7	1	stimuli\fire_alarm\fire_alarm_12s.jpg	11	-1	1	0	fire_alarm_12s.jpg	0	0	0	65.1878769290051	65.2378544009989	0.0499774719937705
71370	50	317	0	0	paper_bag	1113	8	1	stimuli\paper_bag\paper_bag_01b.jpg	0	-1	1	0	paper_bag_01b.jpg	0	0	0	65.2878784406348	65.3378615202382	0.0499830796034075
71470	50	318	0	0	grain	698	9	1	stimuli\grain\grain_09s.jpg	8	-1	1	0	grain_09s.jpg	0	0	0	65.3878804398701	65.4378459652071	0.0499655253370292
71570	50	319	0	0	curtain	465	10	1	stimuli\curtain\curtain_09s.jpg	8	-1	1	0	curtain_09s.jpg	0	0	0	65.4878697610111	65.5378518654034	0.0499821043922566
71670	50	320	0	0	blimp	139	11	1	stimuli\blimp\blimp_03n.jpg	2	-1	1	0	blimp_03n.jpg	0	0	0	65.5879015049431	65.6378697122564	0.0499682073132135
71770	50	321	0	0	pocket	1205	12	1	stimuli\pocket\pocket_11s.jpg	10	-1	1	0	pocket_11s.jpg	0	0	0	65.6878918013535	65.7378544009989	0.0499625996453688
71870	50	322	0	0	filter	587	13	1	stimuli\filter\filter_11s.jpg	10	-1	1	0	filter_11s.jpg	0	0	0	65.7878930691513	65.8378551811911	0.0499621120397933
71970	50	323	0	0	camel	245	14	1	stimuli\camel\camel_11n.jpg	10	-1	1	0	camel_11n.jpg	0	0	0	65.8878977503045	65.9378603499499	0.0499625996453688
72070	50	324	0	0	dollhouse	500	15	1	stimuli\dollhouse\dollhouse_01b.jpg	0	-1	1	0	dollhouse_01b.jpg	0	0	0	65.987885364797	66.0378838044126	0.0499984396155924
72170	50	325	0	0	trunk	1722	16	1	stimuli\trunk\trunk_09s.jpg	8	-1	1	0	trunk_09s.jpg	0	0	0	66.0878990668571	66.1378797084326	0.0499806415755302
72270	50	326	0	0	barbed_wire	71	17	1	stimuli\barbed_wire\barbed_wire_04s.jpg	3	-1	1	0	barbed_wire_04s.jpg	0	0	0	66.1879035041784	66.2378868276719	0.0499833234935068
72370	50	327	0	0	shield	1420	18	1	stimuli\shield\shield_08n.jpg	7	-1	1	0	shield_08n.jpg	0	0	0	66.2879055034136	66.3378873640322	0.0499818606185727
72470	50	328	0	0	nail_polish	1049	19	1	stimuli\nail_polish\nail_polish_06s.jpg	5	-1	1	0	nail_polish_06s.jpg	0	0	0	66.3879106721724	66.4378740033135	0.0499633311410435
72570	50	329	0	0	coral	406	20	1	stimuli\coral\coral_08s.jpg	7	-1	1	0	coral_08s.jpg	0	0	0	66.4878946295357	66.5378742958419	0.0499796663061716
72670	50	330	0	0	knitting	880	21	1	stimuli\knitting\knitting_10s.jpg	9	-1	1	0	knitting_10s.jpg	0	0	0	66.5879139392055	66.637894580781	0.0499806415755302
72770	50	331	0	0	watermelon	1793	22	1	stimuli\watermelon\watermelon_03s.jpg	2	-1	1	0	watermelon_03s.jpg	0	0	0	66.6879169137101	66.7378970676218	0.049980153911747
72870	50	332	0	0	beaker	101	23	1	stimuli\beaker\beaker_03s.jpg	2	-1	1	0	beaker_03s.jpg	0	0	0	66.7879198881565	66.837900529732	0.0499806415755302
72970	50	333	0	0	wrist	1842	24	1	stimuli\wrist\wrist_08s.jpg	7	-1	1	0	wrist_08s.jpg	0	0	0	66.8879072588752	66.9378852185328	0.0499779596575536
73070	50	334	0	0	mattress	985	25	1	stimuli\mattress\mattress_09s.jpg	8	-1	1	0	mattress_09s.jpg	0	0	0	66.9879270561505	67.0378862424986	0.0499591863481328
73170	50	335	0	0	sundae	1582	26	1	stimuli\sundae\sundae_11s.jpg	10	-1	1	0	sundae_11s.jpg	0	0	0	67.0879300306551	67.137915060739	0.0499850300839171
73270	50	336	0	0	clasp	351	27	1	stimuli\clasp\clasp_05s.jpg	4	-1	1	0	clasp_05s.jpg	0	0	0	67.1879164261045	67.2378931666608	0.0499767405563034
73370	50	337	0	0	mousse	1030	28	1	stimuli\mousse\mousse_06s.jpg	5	-1	1	0	mousse_06s.jpg	0	0	0	67.2879308596021	67.3378949221224	0.0499640625203028
73470	50	338	0	0	flip_flop	614	29	1	stimuli\flip_flop\flip_flop_12s.jpg	11	-1	1	0	flip_flop_12s.jpg	0	0	0	67.3879362721345	67.4379152070615	0.0499789349269122
73570	50	339	0	0	dish	489	30	1	stimuli\dish\dish_04s.jpg	3	-1	1	0	dish_04s.jpg	0	0	0	67.4879338828032	67.5379169624648	0.0499830796616152
73670	50	340	0	0	star_fruit	1540	31	1	stimuli\star_fruit\star_fruit_12s.jpg	11	-1	1	0	star_fruit_12s.jpg	0	0	0	67.5879400268313	67.6379070150433	0.0499669882119633
73770	50	341	0	0	arugula	40	32	1	stimuli\arugula\arugula_05s.jpg	4	-1	1	0	arugula_05s.jpg	0	0	0	67.6879442203208	67.7379219361464	0.049977715825662
73870	50	342	0	0	olive	1075	33	1	stimuli\olive\olive_12s.jpg	11	-1	1	0	olive_12s.jpg	0	0	0	67.7879430500325	67.8379249106511	0.0499818606185727
73970	50	343	0	0	pajamas	1099	34	1	stimuli\pajamas\pajamas_01b.jpg	0	-1	1	0	pajamas_01b.jpg	0	0	0	67.8879496816662	67.9379273974919	0.049977715825662
74070	50	344	0	0	jet	847	35	1	stimuli\jet\jet_10s.jpg	9	-1	1	0	jet_10s.jpg	0	0	0	67.9879309571115	68.0379347605631	0.0500038034515455
74170	50	345	0	0	bedpan	109	36	1	stimuli\bedpan\bedpan_04s.jpg	3	-1	1	0	bedpan_04s.jpg	0	0	0	68.0879524610937	68.1379338340485	0.0499813729547895
74270	50	346	0	0	pumpkin	1253	37	1	stimuli\pumpkin\pumpkin_10s.jpg	9	-1	1	0	pumpkin_10s.jpg	0	0	0	68.1879383689375	68.2379338828032	0.0499955138657242
74370	50	347	0	0	cabbage	232	38	1	stimuli\cabbage\cabbage_12s.jpg	11	-1	1	0	cabbage_12s.jpg	0	0	0	68.2879579224391	68.3379419773119	0.0499840548727661
74470	50	348	0	0	gramophone	699	39	1	stimuli\gramophone\gramophone_11s.jpg	10	-1	1	0	gramophone_11s.jpg	0	0	0	68.3879618720966	68.4379381251056	0.0499762530089356
74570	50	349	0	0	candy_bar	256	40	1	stimuli\candy_bar\candy_bar_05s.jpg	4	-1	1	0	candy_bar_05s.jpg	0	0	0	68.4879453418544	68.537942318595	0.0499969767406583
74670	50	350	0	0	dreidel	517	41	1	stimuli\dreidel\dreidel_01b.jpg	0	-1	1	0	dreidel_01b.jpg	0	0	0	68.5879695277545	68.6379440740566	0.04997454630211
74770	50	351	0	0	wood	1833	42	1	stimuli\wood\wood_06s.jpg	5	-1	1	0	wood_06s.jpg	0	0	0	68.6879707955522	68.7379697227734	0.0499989272211678
74870	50	352	0	0	stethoscope	1550	43	1	stimuli\stethoscope\stethoscope_08s.jpg	7	-1	1	0	stethoscope_08s.jpg	0	0	0	68.787970844307	68.8379505106132	0.0499796663061716
74970	50	353	0	0	bin	125	44	1	stimuli\bin\bin_07s.jpg	6	-1	1	0	bin_07s.jpg	0	0	0	68.8879816206754	68.9379549479345	0.0499733272590674
75070	50	354	0	0	guardrail	720	45	1	stimuli\guardrail\guardrail_03s.jpg	2	-1	1	0	guardrail_03s.jpg	0	0	0	68.9879563132417	69.0379549966892	0.0499986834474839
75170	50	355	0	0	crutch	452	46	1	stimuli\crutch\crutch_11s.jpg	10	-1	1	0	crutch_11s.jpg	0	0	0	69.0879761105753	69.1379584587994	0.0499823482241482
75270	50	356	0	0	tray	1705	47	1	stimuli\tray\tray_11s.jpg	10	-1	1	0	tray_11s.jpg	0	0	0	69.1879790850217	69.2379614332458	0.0499823482241482
75370	50	357	0	0	can	250	48	1	stimuli\can\can_02s.jpg	1	-1	1	0	can_02s.jpg	0	0	0	69.2879652366973	69.3379473410896	0.0499821043922566
75470	50	358	0	0	paddle	1094	49	1	stimuli\paddle\paddle_04s.jpg	3	-1	1	0	paddle_04s.jpg	0	0	0	69.387965529284	69.437950315536	0.0499847862520255
75570	50	359	0	0	camcorder	244	50	1	stimuli\camcorder\camcorder_06s.jpg	5	-1	1	0	camcorder_06s.jpg	0	0	0	69.4879689913359	69.5379630423849	0.0499940510489978
75670	50	360	0	0	clarinet	350	51	1	stimuli\clarinet\clarinet_04s.jpg	3	-1	1	0	clarinet_04s.jpg	0	0	0	69.5879729410517	69.6379704054561	0.0499974644044414
75770	50	361	0	0	dishrag	490	52	1	stimuli\dishrag\dishrag_02s.jpg	1	-1	1	0	dishrag_02s.jpg	0	0	0	69.6879951764713	69.7379753303831	0.049980153911747
75870	50	362	0	0	espresso	560	53	1	stimuli\espresso\espresso_09s.jpg	8	-1	1	0	espresso_09s.jpg	0	0	0	69.7880276518408	69.8379765981808	0.0499489463400096
75970	50	363	0	0	cantaloupe	263	54	1	stimuli\cantaloupe\cantaloupe_09s.jpg	8	-1	1	0	cantaloupe_09s.jpg	0	0	0	69.887984790199	69.9379600679385	0.049975277739577
76070	50	364	0	0	alpaca	15	55	1	stimuli\alpaca\alpaca_07s.jpg	6	-1	1	0	alpaca_07s.jpg	0	0	0	69.9879841075162	70.0379632862168	0.0499791787005961
76170	50	365	0	0	microphone	998	56	1	stimuli\microphone\microphone_09s.jpg	8	-1	1	0	microphone_09s.jpg	0	0	0	70.0880048800609	70.1379825958866	0.049977715825662
76270	50	366	0	0	rattle	1287	57	1	stimuli\rattle\rattle_09s.jpg	8	-1	1	0	rattle_09s.jpg	0	0	0	70.1880244335625	70.2379863018286	0.0499618682661094
76370	50	367	0	0	piecrust	1169	58	1	stimuli\piecrust\piecrust_09s.jpg	8	-1	1	0	piecrust_09s.jpg	0	0	0	70.2880057090078	70.3379865943571	0.0499808853492141
76470	50	368	0	0	ice_cube	819	59	1	stimuli\ice_cube\ice_cube_06s.jpg	5	-1	1	0	ice_cube_06s.jpg	0	0	0	70.3879969806294	70.4379907879047	0.0499938072753139
76570	50	369	0	0	bean	102	60	1	stimuli\bean\bean_05s.jpg	4	-1	1	0	bean_05s.jpg	0	0	0	70.4880111703533	70.5379944937886	0.0499833234352991
76670	50	370	0	0	stove2	1564	61	1	stimuli\stove2\stove2_11s.jpg	10	-1	1	0	stove2_11s.jpg	0	0	0	70.5880121943192	70.6379957615864	0.0499835672671907
76770	50	371	0	0	doorhandle	508	62	1	stimuli\doorhandle\doorhandle_04s.jpg	3	-1	1	0	doorhandle_04s.jpg	0	0	0	70.6880168754724	70.737996054173	0.0499791787005961
76870	50	372	0	0	eggplant	550	63	1	stimuli\eggplant\eggplant_07s.jpg	6	-1	1	0	eggplant_07s.jpg	0	0	0	70.7880188747076	70.8379995162832	0.0499806415755302
76970	50	373	0	0	rabbit	1265	64	1	stimuli\rabbit\rabbit_10n.jpg	9	-1	1	0	rabbit_10n.jpg	0	0	0	70.888021849154	70.9379910316784	0.0499691825243644
77070	50	374	0	0	orange_rind	1079	65	1	stimuli\orange_rind\orange_rind_05s.jpg	4	-1	1	0	orange_rind_05s.jpg	0	0	0	70.98802311701	71.0380049775704	0.049981860560365
77170	50	375	0	0	notebook	1064	66	1	stimuli\notebook\notebook_06s.jpg	5	-1	1	0	notebook_06s.jpg	0	0	0	71.0880258476245	71.1380057577626	0.0499799101380631
77270	50	376	0	0	keg	866	67	1	stimuli\keg\keg_12s.jpg	11	-1	1	0	keg_12s.jpg	0	0	0	71.1880305287777	71.2380089760409	0.0499784472631291
77370	50	377	0	0	beanie	104	68	1	stimuli\beanie\beanie_08s.jpg	7	-1	1	0	beanie_08s.jpg	0	0	0	71.2880381356226	71.338013901026	0.0499757654033601
77470	50	378	0	0	whale	1804	69	1	stimuli\whale\whale_02s.jpg	1	-1	1	0	whale_02s.jpg	0	0	0	71.3880364777287	71.4380168754724	0.0499803977436386
77570	50	379	0	0	gasket	661	70	1	stimuli\gasket\gasket_06s.jpg	5	-1	1	0	gasket_06s.jpg	0	0	0	71.4880370140891	71.53801058518	0.049973571090959
77670	50	380	0	0	acorn	3	71	1	stimuli\acorn\acorn_10s.jpg	9	-1	1	0	acorn_10s.jpg	0	0	0	71.5880251162453	71.6380069768056	0.049981860560365
77770	50	381	0	0	beehive	112	72	1	stimuli\beehive\beehive_10s.jpg	9	-1	1	0	beehive_10s.jpg	0	0	0	71.6880441820831	71.738021897967	0.0499777158838697
77870	50	382	0	0	canister	259	73	1	stimuli\canister\canister_06s.jpg	5	-1	1	0	canister_06s.jpg	0	0	0	71.7880434994586	71.8380258476245	0.0499823481659405
77970	50	383	0	0	baton3	94	74	1	stimuli\baton3\baton3_08s.jpg	7	-1	1	0	baton3_08s.jpg	0	0	0	71.8880513500771	71.9380351611762	0.0499838110990822
78070	50	384	0	0	candy	255	75	1	stimuli\candy\candy_04s.jpg	3	-1	1	0	candy_04s.jpg	0	0	0	71.9880331131862	72.0380320404074	0.0499989272211678
78170	50	385	0	0	snowplow	1484	76	1	stimuli\snowplow\snowplow_02s.jpg	1	-1	1	0	snowplow_02s.jpg	0	0	0	72.0880348685896	72.1380342834746	0.049999414884951
78270	50	386	0	0	blind	140	77	1	stimuli\blind\blind_03s.jpg	2	-1	1	0	blind_03s.jpg	0	0	0	72.1880534468801	72.2380182407796	0.0499647938995622
78370	50	387	0	0	meat_grinder	988	78	1	stimuli\meat_grinder\meat_grinder_09s.jpg	8	-1	1	0	meat_grinder_09s.jpg	0	0	0	72.2880561774946	72.3380365752382	0.0499803977436386
78470	50	388	0	0	bandanna	67	79	1	stimuli\bandanna\bandanna_02s.jpg	1	-1	1	0	bandanna_02s.jpg	0	0	0	72.388043791987	72.4380222392501	0.0499784472631291
78570	50	389	0	0	skunk	1459	80	1	stimuli\skunk\skunk_04s.jpg	3	-1	1	0	skunk_04s.jpg	0	0	0	72.4880445721792	72.5380422804155	0.049997708236333
78670	50	390	0	0	bow3	176	81	1	stimuli\bow3\bow3_05s.jpg	4	-1	1	0	bow3_05s.jpg	0	0	0	72.5880658323877	72.6380445234245	0.049978691036813
78770	50	391	0	0	needle	1055	82	1	stimuli\needle\needle_10n.jpg	9	-1	1	0	needle_10n.jpg	0	0	0	72.6880544220912	72.7380489607458	0.0499945386545733
78870	50	392	0	0	mousepad	1028	83	1	stimuli\mousepad\mousepad_10s.jpg	9	-1	1	0	mousepad_10s.jpg	0	0	0	72.7880730003235	72.8380487657269	0.0499757654033601
78970	50	393	0	0	minivan	1003	84	1	stimuli\minivan\minivan_08s.jpg	7	-1	1	0	minivan_08s.jpg	0	0	0	72.8880567139131	72.9380529592163	0.0499962453031912
79070	50	394	0	0	fruitcake	646	85	1	stimuli\fruitcake\fruitcake_06s.jpg	5	-1	1	0	fruitcake_06s.jpg	0	0	0	72.9880760235828	73.0380552022834	0.0499791787005961
79170	50	395	0	0	chick	321	86	1	stimuli\chick\chick_05s.jpg	4	-1	1	0	chick_05s.jpg	0	0	0	73.0880807047361	73.1380413539009	0.0499606491648592
79270	50	396	0	0	tiramisu	1663	87	1	stimuli\tiramisu\tiramisu_07s.jpg	6	-1	1	1	tiramisu_07s.jpg	0	0	0	73.1880634430563	73.2380645645317	0.0500011214753613
79370	50	397	0	0	blowfish	146	88	1	stimuli\blowfish\blowfish_08s.jpg	7	-1	1	0	blowfish_08s.jpg	0	0	0	73.288081533683	73.3380658323877	0.0499842987046577
79470	50	398	0	0	guacamole	719	89	1	stimuli\guacamole\guacamole_03s.jpg	2	-1	1	0	guacamole_03s.jpg	1	0.250155062647536	1	73.3880598834367	73.4380419878289	0.0499821043922566
79570	50	399	0	0	totem_pole	1689	90	1	stimuli\totem_pole\totem_pole_03s.jpg	2	-1	1	0	totem_pole_03s.jpg	0	0	0	73.488057737879	73.5380381356226	0.0499803977436386
79670	50	400	0	0	roller	1324	91	1	stimuli\roller\roller_04s.jpg	3	-1	1	0	roller_04s.jpg	0	0	0	73.5880724152084	73.6380440358189	0.0499716206104495
79770	50	401	0	0	horn	797	92	1	stimuli\horn\horn_05s.jpg	4	-1	1	0	horn_05s.jpg	0	0	0	73.6880697820452	73.7380730978912	0.0500033158459701
79870	50	402	0	0	pliers	1201	93	1	stimuli\pliers\pliers_04s.jpg	3	-1	1	0	pliers_04s.jpg	0	0	0	73.7880956745939	73.8380482781213	0.0499526035273448
79970	50	403	0	0	flypaper	622	94	1	stimuli\flypaper\flypaper_02s.jpg	1	-1	1	0	flypaper_02s.jpg	0	0	0	73.8880703672185	73.9380536906538	0.0499833234352991
80070	50	404	0	0	hairspray	738	95	1	stimuli\hairspray\hairspray_06s.jpg	5	-1	1	0	hairspray_06s.jpg	0	0	0	73.9880740731023	74.0380539832404	0.0499799101380631
80170	50	405	0	0	easel	542	96	1	stimuli\easel\easel_10s.jpg	9	-1	1	0	easel_10s.jpg	0	0	0	74.0880721713766	74.1380528129521	0.0499806415755302
80270	50	406	0	0	comic_book	391	97	1	stimuli\comic_book\comic_book_11s.jpg	10	-1	1	0	comic_book_11s.jpg	0	0	0	74.1880763649242	74.2380543245818	0.0499779596575536
80370	50	407	0	0	ginger	673	98	1	stimuli\ginger\ginger_03s.jpg	2	-1	1	0	ginger_03s.jpg	0	0	0	74.28808031464	74.3380590056768	0.049978691036813
80470	50	408	0	0	knee	877	99	1	stimuli\knee\knee_05s.jpg	4	-1	1	0	knee_05s.jpg	0	0	0	74.3880815824377	74.4380614925758	0.0499799101380631
80570	50	409	0	0	candle	253	100	1	stimuli\candle\candle_09n.jpg	8	-1	1	0	candle_09n.jpg	0	0	0	74.4880806559813	74.5380700746318	0.0499894186505117
80670	50	410	0	0	cannonball	261	101	1	stimuli\cannonball\cannonball_06s.jpg	5	-1	1	0	cannonball_06s.jpg	0	0	0	74.5881136189564	74.6381179100135	0.050004291057121
80770	50	411	0	0	pedometer	1137	102	1	stimuli\pedometer\pedometer_09s.jpg	8	-1	1	0	pedometer_09s.jpg	0	0	0	74.6880927001475	74.7380718788481	0.0499791787005961
80870	50	412	0	0	airbag	7	103	1	stimuli\airbag\airbag_11s.jpg	10	-1	1	0	airbag_11s.jpg	0	0	0	74.7881244440796	74.8381033789483	0.0499789348687045
80970	50	413	0	0	highlighter	778	104	1	stimuli\highlighter\highlighter_07s.jpg	6	-1	1	0	highlighter_07s.jpg	0	0	0	74.8881222985801	74.9381039153668	0.0499816167866811
81070	50	414	0	0	wig	1816	105	1	stimuli\wig\wig_06s.jpg	5	-1	1	0	wig_06s.jpg	0	0	0	74.988126004464	75.0381025012466	0.0499764967826195
81170	50	415	0	0	pheasant	1160	106	1	stimuli\pheasant\pheasant_11s.jpg	10	-1	1	0	pheasant_11s.jpg	0	0	0	75.088125809445	75.1380945043056	0.0499686948605813
81270	50	416	0	0	clove	365	107	1	stimuli\clove\clove_12s.jpg	11	-1	1	0	clove_12s.jpg	0	0	0	75.188115374418	75.2381108882837	0.0499955138657242
81370	50	417	0	0	whisk	1811	108	1	stimuli\whisk\whisk_07s.jpg	6	-1	1	0	whisk_07s.jpg	0	0	0	75.2881332212128	75.338115325605	0.0499821043922566
81470	50	418	0	0	headlamp	764	109	1	stimuli\headlamp\headlamp_12s.jpg	11	-1	1	0	headlamp_12s.jpg	0	0	0	75.388135220448	75.4381146429805	0.0499794225324877
81570	50	419	0	0	log	943	110	1	stimuli\log\log_09s.jpg	8	-1	1	0	log_09s.jpg	0	0	0	75.4881281987764	75.5381068898132	0.049978691036813
81670	50	420	0	0	power_line	1237	111	1	stimuli\power_line\power_line_03s.jpg	2	-1	1	0	power_line_03s.jpg	0	0	0	75.5881316608284	75.6381110833609	0.0499794225324877
81770	50	421	0	0	sushi	1588	112	1	stimuli\sushi\sushi_09s.jpg	8	-1	1	0	sushi_09s.jpg	0	0	0	75.6881343915011	75.7381162521197	0.0499818606185727
81870	50	422	0	0	pants	1108	113	1	stimuli\pants\pants_07s.jpg	6	-1	1	0	pants_07s.jpg	0	0	0	75.7881380973849	75.8381136189564	0.0499755215714686
81970	50	423	0	0	shutter	1440	114	1	stimuli\shutter\shutter_12s.jpg	11	-1	1	0	shutter_12s.jpg	0	0	0	75.8881403404521	75.9381173248403	0.049976984388195
82070	50	424	0	0	retainer	1303	115	1	stimuli\retainer\retainer_08s.jpg	7	-1	1	0	retainer_08s.jpg	0	0	0	75.9881411206443	76.0381210307823	0.0499799101380631
82170	50	425	0	0	bat2	88	116	1	stimuli\bat2\bat2_07s.jpg	6	-1	1	0	bat2_07s.jpg	0	0	0	76.0881431198795	76.1381242490606	0.0499811291811056
82270	50	426	0	0	stereo	1549	117	1	stimuli\stereo\stereo_10s.jpg	9	-1	1	0	stereo_10s.jpg	0	0	0	76.1881463381578	76.2381289301557	0.0499825919978321
82370	50	427	0	0	toothbrush	1679	118	1	stimuli\toothbrush\toothbrush_01s.jpg	0	-1	1	0	toothbrush_01s.jpg	0	0	0	76.2881554078776	76.3381319046603	0.0499764967826195
82470	50	428	0	0	bed	108	119	1	stimuli\bed\bed_11n.jpg	10	-1	1	0	bed_11n.jpg	0	0	0	76.3881503366283	76.4381295153289	0.0499791787005961
82570	50	429	0	0	headband	762	120	1	stimuli\headband\headband_10s.jpg	9	-1	1	0	headband_10s.jpg	0	0	0	76.4881562368246	76.5381359031308	0.0499796663061716
82670	50	430	0	0	rat	1285	121	1	stimuli\rat\rat_01b.jpg	0	-1	1	0	rat_01b.jpg	0	0	0	76.5881570170168	76.6381371709285	0.049980153911747
82770	50	431	0	0	mongoose	1016	122	1	stimuli\mongoose\mongoose_02s.jpg	1	-1	1	0	mongoose_02s.jpg	0	0	0	76.6881604790688	76.7381374635152	0.0499769844464026
82870	50	432	0	0	subway	1578	123	1	stimuli\subway\subway_09s.jpg	8	-1	1	0	subway_09s.jpg	0	0	0	76.7881661354913	76.8381460455712	0.0499799100798555
82970	50	433	0	0	kaleidoscope	861	124	1	stimuli\kaleidoscope\kaleidoscope_03s.jpg	2	-1	1	0	kaleidoscope_03s.jpg	0	0	0	76.8881644775392	76.9381460943259	0.0499816167866811
83070	50	434	0	0	juicer2	856	125	1	stimuli\juicer2\juicer2_07s.jpg	6	-1	1	0	juicer2_07s.jpg	0	0	0	76.9881659891689	77.038149800268	0.0499838110990822
83170	50	435	0	0	shower_cap	1434	126	1	stimuli\shower_cap\shower_cap_04s.jpg	3	-1	1	0	shower_cap_04s.jpg	0	0	0	77.0881701827166	77.1381481423741	0.0499779596575536
83270	50	436	0	0	arm	36	127	1	stimuli\arm\arm_12s.jpg	11	-1	1	0	arm_12s.jpg	0	0	0	77.1881702314713	77.2381520920317	0.049981860560365
83370	50	437	0	0	dolly	501	128	1	stimuli\dolly\dolly_02s.jpg	1	-1	1	0	dolly_02s.jpg	0	0	0	77.2881790573592	77.338160430314	0.0499813729547895
83470	50	438	0	0	crowbar	447	129	1	stimuli\crowbar\crowbar_05n.jpg	4	-1	1	0	crowbar_05n.jpg	0	0	0	77.3881847137236	77.4381621857756	0.0499774720519781
83570	50	439	0	0	paintbrush	1097	130	1	stimuli\paintbrush\paintbrush_12s.jpg	11	-1	1	0	paintbrush_12s.jpg	0	0	0	77.4881842748728	77.5381685735774	0.0499842987046577
83670	50	440	0	0	electric_chair	553	131	1	stimuli\electric_chair\electric_chair_08s.jpg	7	-1	1	0	electric_chair_08s.jpg	0	0	0	77.5881874931511	77.6381656965823	0.0499782034312375
83770	50	441	0	0	pogo_stick	1208	132	1	stimuli\pogo_stick\pogo_stick_08s.jpg	7	-1	1	0	pogo_stick_08s.jpg	0	0	0	77.6881882733433	77.7381691586925	0.0499808853492141
83870	50	442	0	0	skin	1456	133	1	stimuli\skin\skin_01b.jpg	0	-1	1	0	skin_01b.jpg	0	0	0	77.7881931982702	77.8381723769708	0.0499791787005961
83970	50	443	0	0	keyboard	870	134	1	stimuli\keyboard\keyboard_04s.jpg	3	-1	1	0	keyboard_04s.jpg	0	0	0	77.8881951975054	77.9381773018977	0.0499821043922566
84070	50	444	0	0	sweeper	1594	135	1	stimuli\sweeper\sweeper_05s.jpg	4	-1	1	0	sweeper_05s.jpg	0	0	0	77.9881957339239	78.0381768630468	0.049981129122898
84170	50	445	0	0	kilt	872	136	1	stimuli\kilt\kilt_03s.jpg	2	-1	1	0	kilt_03s.jpg	0	0	0	78.0882021217258	78.138179106114	0.049976984388195
84270	50	446	0	0	cape	266	137	1	stimuli\cape\cape_05s.jpg	4	-1	1	0	cape_05s.jpg	0	0	0	78.1882004637737	78.2381820805604	0.0499816167866811
84370	50	447	0	0	baklava	57	138	1	stimuli\baklava\baklava_10s.jpg	9	-1	1	0	baklava_10s.jpg	0	0	0	78.2882049011532	78.338188956026	0.0499840548727661
84470	50	448	0	0	gazelle	666	139	1	stimuli\gazelle\gazelle_05s.jpg	4	-1	1	0	gazelle_05s.jpg	0	0	0	78.3882095822482	78.4381880295114	0.0499784472631291
84570	50	449	0	0	headphones	766	140	1	stimuli\headphones\headphones_03s.jpg	2	-1	1	0	headphones_03s.jpg	0	0	0	78.4882113377098	78.5381888097036	0.0499774719937705
84670	50	450	0	0	steering_wheel	1546	141	1	stimuli\steering_wheel\steering_wheel_04s.jpg	3	-1	1	0	steering_wheel_04s.jpg	0	0	0	78.588205535023	78.6381912966026	0.0499857615795918
84770	50	451	0	0	dynamite	536	142	1	stimuli\dynamite\dynamite_02s.jpg	1	-1	1	0	dynamite_02s.jpg	0	0	0	78.6882150923484	78.7381964653032	0.0499813729547895
84870	50	452	0	0	camera_lens	248	143	1	stimuli\camera_lens\camera_lens_06s.jpg	5	-1	1	0	camera_lens_06s.jpg	0	0	0	78.7882175791892	78.8381955388468	0.0499779596575536
84970	50	453	0	0	lunchbox	950	144	1	stimuli\lunchbox\lunchbox_02s.jpg	1	-1	1	0	lunchbox_02s.jpg	0	0	0	78.8882190908189	78.938199000957	0.0499799101380631
85070	50	454	0	0	candelabra	252	145	1	stimuli\candelabra\candelabra_01b.jpg	0	-1	1	0	candelabra_01b.jpg	0	0	0	78.9882254786207	79.0382041697158	0.0499786910950206
85170	50	455	0	0	sandpaper	1356	146	1	stimuli\sandpaper\sandpaper_06s.jpg	5	-1	1	0	sandpaper_06s.jpg	0	0	0	79.0882269902504	79.1382059251191	0.0499789348687045
85270	50	456	0	0	otter	1085	147	1	stimuli\otter\otter_02s.jpg	1	-1	1	0	otter_02s.jpg	0	0	0	79.1882333780522	79.2381920767366	0.0499586986843497
85370	50	457	0	0	hearing_aid	770	148	1	stimuli\hearing_aid\hearing_aid_11s.jpg	10	-1	1	0	hearing_aid_11s.jpg	0	0	0	79.2882326953695	79.3382099235896	0.0499772282200865
85470	50	458	0	0	sawhorse	1367	149	1	stimuli\sawhorse\sawhorse_09s.jpg	8	-1	1	0	sawhorse_09s.jpg	0	0	0	79.3882334755617	79.4382109476137	0.0499774720519781
85570	50	459	0	0	bunkbed	222	150	1	stimuli\bunkbed\bunkbed_07s.jpg	6	-1	1	0	bunkbed_07s.jpg	0	0	0	79.4882342557539	79.538214165892	0.0499799101380631
85670	50	460	0	0	fuse	652	151	1	stimuli\fuse\fuse_02s.jpg	1	-1	1	0	fuse_02s.jpg	0	0	0	79.5882389369071	79.6382193346508	0.0499803977436386
85770	50	461	0	0	perfume	1154	152	1	stimuli\perfume\perfume_11s.jpg	10	-1	1	0	perfume_11s.jpg	0	0	0	79.6882445932715	79.7382191395736	0.04997454630211
85870	50	462	0	0	oven	1089	153	1	stimuli\oven\oven_08s.jpg	7	-1	1	0	oven_08s.jpg	0	0	0	79.7882434229832	79.8382230892894	0.0499796663061716
85970	50	463	0	0	buffet	211	154	1	stimuli\buffet\buffet_07s.jpg	6	-1	1	0	buffet_07s.jpg	0	0	0	79.888242008863	79.9382292332593	0.0499872243963182
86070	50	464	0	0	plum	1203	155	1	stimuli\plum\plum_04s.jpg	3	-1	1	0	plum_04s.jpg	0	0	0	79.9882481528912	80.0382309887209	0.0499828358297236
86170	50	465	0	0	airplane	10	156	1	stimuli\airplane\airplane_10n.jpg	9	-1	1	0	airplane_10n.jpg	0	0	0	80.088250639732	80.1382283555577	0.049977715825662
86270	50	466	0	0	mantle	969	157	1	stimuli\mantle\mantle_03s.jpg	2	-1	1	0	mantle_03s.jpg	0	0	0	80.1882277704426	80.2382318176678	0.0500040472252294
86370	50	467	0	0	cellphone	293	158	1	stimuli\cellphone\cellphone_06s.jpg	5	-1	1	0	cellphone_06s.jpg	0	0	0	80.2882570762886	80.3382338169031	0.0499767406145111
86470	50	468	0	0	tripod	1714	159	1	stimuli\tripod\tripod_07s.jpg	6	-1	1	0	tripod_07s.jpg	0	0	0	80.3882571250433	80.4382392294356	0.0499821043922566
86570	50	469	0	0	hopscotch	796	160	1	stimuli\hopscotch\hopscotch_08s.jpg	7	-1	1	0	hopscotch_08s.jpg	0	0	0	80.4882974023349	80.5382429353776	0.0499455330427736
86670	50	470	0	0	tulip	1726	161	1	stimuli\tulip\tulip_11s.jpg	10	-1	1	0	tulip_11s.jpg	0	0	0	80.5882645368692	80.638243471738	0.0499789348687045
86770	50	471	0	0	snow	1479	162	1	stimuli\snow\snow_04s.jpg	3	-1	1	0	snow_04s.jpg	0	0	0	80.688264585624	80.738244495762	0.0499799101380631
86870	50	472	0	0	bracelet2	188	163	1	stimuli\bracelet2\bracelet2_09s.jpg	8	-1	1	0	bracelet2_09s.jpg	0	0	0	80.7882670724648	80.8382469826029	0.0499799101380631
86970	50	473	0	0	periscope	1155	164	1	stimuli\periscope\periscope_08s.jpg	7	-1	1	0	periscope_08s.jpg	0	0	0	80.8882693155319	80.9382492256118	0.0499799100798555
87070	50	474	0	0	broom	203	165	1	stimuli\broom\broom_11s.jpg	10	-1	1	0	broom_11s.jpg	0	0	0	80.9882752157282	81.0382561010774	0.0499808853492141
87170	50	475	0	0	saltshaker	1350	166	1	stimuli\saltshaker\saltshaker_11s.jpg	10	-1	1	0	saltshaker_11s.jpg	0	0	0	81.0882735577761	81.1382522488711	0.0499786910950206
87270	50	476	0	0	headset	769	167	1	stimuli\headset\headset_03s.jpg	2	-1	1	0	headset_03s.jpg	0	0	0	81.1882787265349	81.2382403509691	0.0499616244342178
87370	50	477	0	0	clover	366	168	1	stimuli\clover\clover_09s.jpg	8	-1	1	0	clover_09s.jpg	0	0	0	81.2882834076881	81.3382591730333	0.0499757653451525
87470	50	478	0	0	backgammon	48	169	1	stimuli\backgammon\backgammon_05s.jpg	4	-1	1	0	backgammon_05s.jpg	0	0	0	81.3882607821724	81.4382472751895	0.0499864930170588
87570	50	479	0	0	toaster	1666	170	1	stimuli\toaster\toaster_06s.jpg	5	-1	1	0	toaster_06s.jpg	0	0	0	81.4882676576381	81.5382707295939	0.0500030719558708
87670	50	480	0	0	seed	1401	171	1	stimuli\seed\seed_04s.jpg	3	-1	1	0	seed_04s.jpg	0	0	0	81.5882947691716	81.6382600507932	0.049965281621553
87770	50	481	0	0	badge	52	172	1	stimuli\badge\badge_04s.jpg	3	-1	1	0	badge_04s.jpg	0	0	0	81.6882931112777	81.7382908195141	0.049997708236333
87870	50	482	0	0	cactus	235	173	1	stimuli\cactus\cactus_08n.jpg	7	-1	1	0	cactus_08n.jpg	0	0	0	81.7882938914699	81.83827111969	0.0499772282200865
87970	50	483	0	0	measuring_cup	986	174	1	stimuli\measuring_cup\measuring_cup_02s.jpg	1	-1	1	0	measuring_cup_02s.jpg	0	0	0	81.8882802869193	81.938283846539	0.050003559619654
88070	50	484	0	0	figurine	582	175	1	stimuli\figurine\figurine_07s.jpg	6	-1	1	0	figurine_07s.jpg	0	0	0	81.9883017909015	82.0382639029413	0.0499621120397933
88170	50	485	0	0	pinwheel	1185	176	1	stimuli\pinwheel\pinwheel_02s.jpg	1	-1	1	0	pinwheel_02s.jpg	0	0	0	82.0882823349093	82.1382634640904	0.0499811291811056
88270	50	486	0	0	flatiron	613	177	1	stimuli\flatiron\flatiron_05s.jpg	4	-1	1	0	flatiron_05s.jpg	0	0	0	82.1882875036681	82.2382535166689	0.0499660130008124
88370	50	487	0	0	tuxedo	1738	178	1	stimuli\tuxedo\tuxedo_04s.jpg	3	-1	1	0	tuxedo_04s.jpg	0	0	0	82.2883073010016	82.3382874549134	0.049980153911747
88470	50	488	0	0	bark	74	179	1	stimuli\bark\bark_09s.jpg	8	-1	1	0	bark_09s.jpg	0	0	0	82.3883127135341	82.4382765322807	0.0499638187466189
88570	50	489	0	0	scuba	1392	180	1	stimuli\scuba\scuba_03s.jpg	2	-1	1	0	scuba_03s.jpg	0	0	0	82.4883125185152	82.5382948667393	0.0499823482241482
88670	50	490	0	0	nail_clippers	1047	181	1	stimuli\nail_clippers\nail_clippers_12s.jpg	11	-1	1	0	nail_clippers_12s.jpg	0	0	0	82.5883242700947	82.6382805307512	0.0499562606564723
88770	50	491	0	0	origami	1083	182	1	stimuli\origami\origami_03s.jpg	2	-1	1	0	origami_03s.jpg	0	0	0	82.6883199302829	82.738301059464	0.0499811291811056
88870	50	492	0	0	tab	1607	183	1	stimuli\tab\tab_09s.jpg	8	-1	1	0	tab_09s.jpg	0	0	0	82.7883243676624	82.8382862358703	0.0499618682079017
88970	50	493	0	0	bulletproof_vest	218	184	1	stimuli\bulletproof_vest\bulletproof_vest_08s.jpg	7	-1	1	0	bulletproof_vest_08s.jpg	0	0	0	82.8883217344992	82.9383026198484	0.0499808853492141
89070	50	494	0	0	pecan	1135	185	1	stimuli\pecan\pecan_06s.jpg	5	-1	1	0	pecan_06s.jpg	0	0	0	82.9883249527775	83.038305594353	0.0499806415755302
89170	50	495	0	0	brownie	204	186	1	stimuli\brownie\brownie_06s.jpg	5	-1	1	0	brownie_06s.jpg	0	0	0	83.088315005356	83.1383080811938	0.0499930758378468
89270	50	496	0	0	pear	1133	187	1	stimuli\pear\pear_06s.jpg	5	-1	1	0	pear_06s.jpg	0	0	0	83.1883155417163	83.2383108118665	0.049995270150248
89370	50	497	0	0	soy_sauce	1500	188	1	stimuli\soy_sauce\soy_sauce_10s.jpg	9	-1	1	0	soy_sauce_10s.jpg	0	0	0	83.2883353390498	83.3383159806253	0.0499806415755302
89470	50	498	0	0	patty	1126	189	1	stimuli\patty\patty_09s.jpg	8	-1	1	0	patty_09s.jpg	0	0	0	83.388332218281	83.4383121284191	0.0499799101380631
89570	50	499	0	0	gauze	664	190	1	stimuli\gauze\gauze_07s.jpg	6	-1	1	0	gauze_07s.jpg	0	0	0	83.4883378746454	83.5383226609556	0.0499847863102332
89670	50	500	0	0	scone	1380	191	1	stimuli\scone\scone_03s.jpg	2	-1	1	0	scone_03s.jpg	0	0	0	83.5883374357945	83.6383417268516	0.050004291057121
89770	50	501	0	0	coat	369	192	1	stimuli\coat\coat_06s.jpg	5	-1	1	0	coat_06s.jpg	0	0	0	83.6883389474242	83.7383210518165	0.0499821043922566
89870	50	502	0	0	bologna	158	193	1	stimuli\bologna\bologna_09s.jpg	8	-1	1	0	bologna_09s.jpg	0	0	0	83.7883460666635	83.8383247577003	0.049978691036813
89970	50	503	0	0	dog	495	194	1	stimuli\dog\dog_11s.jpg	10	-1	1	0	dog_11s.jpg	0	0	0	83.8883475782932	83.9383252941188	0.049977715825662
90070	50	504	0	0	coaster	368	195	1	stimuli\coaster\coaster_06s.jpg	5	-1	1	0	coaster_06s.jpg	0	0	0	83.9883561603492	84.0383270495222	0.0499708891729824
90170	50	505	0	0	rocking_horse	1322	196	1	stimuli\rocking_horse\rocking_horse_08s.jpg	7	-1	1	0	rocking_horse_08s.jpg	0	0	0	84.0883493824513	84.1383314868435	0.0499821043922566
90270	50	506	0	0	doormat	511	197	1	stimuli\doormat\doormat_04s.jpg	3	-1	1	0	doormat_04s.jpg	0	0	0	84.1883545512101	84.2383356803912	0.0499811291811056
90370	50	507	0	0	lime	930	198	1	stimuli\lime\lime_06s.jpg	5	-1	1	0	lime_06s.jpg	0	0	0	84.2883560628397	84.3383367043571	0.0499806415173225
90470	50	508	0	0	tile	1660	199	1	stimuli\tile\tile_12s.jpg	11	-1	1	0	tile_12s.jpg	0	0	0	84.3883561115945	84.4383360217325	0.0499799101380631
90570	50	509	0	0	hotplate	806	200	1	stimuli\hotplate\hotplate_05s.jpg	4	-1	1	0	hotplate_05s.jpg	0	0	0	84.4883603050839	84.5383407028276	0.0499803977436386
90670	50	510	0	0	spaghetti	1503	201	1	stimuli\spaghetti\spaghetti_07s.jpg	6	-1	1	0	spaghetti_07s.jpg	0	0	0	84.588387172902	84.6383412392461	0.0499540663440712
90770	50	511	0	0	hard_disk	752	202	1	stimuli\hard_disk\hard_disk_02s.jpg	1	-1	1	0	hard_disk_02s.jpg	0	0	0	84.688371374039	84.7383439699188	0.0499725958798081
90870	50	512	0	0	porthole	1227	203	1	stimuli\porthole\porthole_08s.jpg	7	-1	1	0	porthole_08s.jpg	0	0	0	84.78837117902	84.8383515767637	0.0499803977436386
90970	50	513	0	0	hummus	812	204	1	stimuli\hummus\hummus_11s.jpg	10	-1	1	0	hummus_11s.jpg	0	0	0	84.8883722029859	84.9383504064754	0.0499782034894451
91070	50	514	0	0	grits	717	205	1	stimuli\grits\grits_09s.jpg	8	-1	1	0	grits_09s.jpg	0	0	0	84.98837322701	85.0383548437967	0.0499816167866811
91170	50	515	0	0	peg	1139	206	1	stimuli\peg\peg_10s.jpg	9	-1	1	0	peg_10s.jpg	0	0	0	85.0883774204995	85.138354161114	0.0499767406145111
91270	50	516	0	0	shell3	1419	207	1	stimuli\shell3\shell3_10s.jpg	9	-1	1	0	shell3_10s.jpg	0	0	0	85.1883784445236	85.2383581108297	0.0499796663061716
91370	50	517	0	0	bottle	170	208	1	stimuli\bottle\bottle_11s.jpg	10	-1	1	0	bottle_11s.jpg	0	0	0	85.2883792247158	85.3383610852761	0.049981860560365
91470	50	518	0	0	headscarf	768	209	1	stimuli\headscarf\headscarf_12s.jpg	11	-1	1	0	headscarf_12s.jpg	0	0	0	85.3883892696467	85.4383652788238	0.049976009177044
91570	50	519	0	0	tack	1611	210	1	stimuli\tack\tack_03s.jpg	2	-1	1	0	tack_03s.jpg	0	0	0	85.4883883431903	85.5383702037507	0.049981860560365
91670	50	520	0	0	dessert	481	211	1	stimuli\dessert\dessert_06s.jpg	5	-1	1	0	dessert_06s.jpg	0	0	0	85.5883874166757	85.6383427020628	0.0499552853871137
91770	50	521	0	0	jellyfish	845	212	1	stimuli\jellyfish\jellyfish_05s.jpg	4	-1	1	0	jellyfish_05s.jpg	0	0	0	85.6883716178709	85.7383795660571	0.0500079481862485
91870	50	522	0	0	chime	328	213	1	stimuli\chime\chime_03s.jpg	2	-1	1	0	chime_03s.jpg	0	0	0	85.7883955599391	85.8383759576827	0.0499803977436386
91970	50	523	0	0	toast	1665	214	1	stimuli\toast\toast_08s.jpg	7	-1	1	0	toast_08s.jpg	0	0	0	85.8883834182052	85.9383630845114	0.0499796663061716
92070	50	524	0	0	sunroof	1586	215	1	stimuli\sunroof\sunroof_06s.jpg	5	-1	1	0	sunroof_06s.jpg	0	0	0	85.9883985831402	86.038383857056	0.0499852739158086
92170	50	525	0	0	toad	1664	216	1	stimuli\toad\toad_10s.jpg	9	-1	1	0	toad_10s.jpg	0	0	0	86.0884039957309	86.1383668392082	0.0499628434772603
92270	50	526	0	0	nightstand	1059	217	1	stimuli\nightstand\nightstand_01b.jpg	0	-1	1	0	nightstand_01b.jpg	0	0	0	86.188393316872	86.2383907812764	0.0499974644044414
92370	50	527	0	0	tweezers	1739	218	1	stimuli\tweezers\tweezers_08s.jpg	7	-1	1	0	tweezers_08s.jpg	0	0	0	86.2884116513305	86.3383918052423	0.049980153911747
92470	50	528	0	0	sticker	1553	219	1	stimuli\sticker\sticker_09s.jpg	8	-1	1	0	sticker_09s.jpg	0	0	0	86.3884131629602	86.438390634954	0.0499774719937705
92570	50	529	0	0	roadsweeper	1316	220	1	stimuli\roadsweeper\roadsweeper_12s.jpg	11	-1	1	0	roadsweeper_12s.jpg	0	0	0	86.4884190630983	86.5383938532323	0.0499747901340015
92670	50	530	0	0	icemaker	821	221	1	stimuli\icemaker\icemaker_04s.jpg	3	-1	1	0	icemaker_04s.jpg	0	0	0	86.5884159423877	86.6383973153424	0.0499813729547895
92770	50	531	0	0	chandelier	305	222	1	stimuli\chandelier\chandelier_03s.jpg	2	-1	1	0	chandelier_03s.jpg	0	0	0	86.6884033130482	86.7384007774526	0.0499974644044414
92870	50	532	0	0	chinchilla	332	223	1	stimuli\chinchilla\chinchilla_03s.jpg	2	-1	1	0	chinchilla_03s.jpg	0	0	0	86.7884262799053	86.8384054585476	0.0499791786423884
92970	50	533	0	0	breadstick	196	224	1	stimuli\breadstick\breadstick_10s.jpg	9	-1	1	0	breadstick_10s.jpg	0	0	0	86.8884219400934	86.9384062387398	0.04998429864645
93070	50	534	0	0	mop	1019	225	1	stimuli\mop\mop_01b.jpg	0	-1	1	0	mop_01b.jpg	0	0	0	86.9884261335828	87.0383911713725	0.0499650377896614
93170	50	535	0	0	rollerblade	1326	226	1	stimuli\rollerblade\rollerblade_02s.jpg	1	-1	1	0	rollerblade_02s.jpg	0	0	0	87.0884317899472	87.1384104810422	0.0499786910950206
93270	50	536	0	0	rollerskate	1327	227	1	stimuli\rollerskate\rollerskate_09s.jpg	8	-1	1	0	rollerskate_09s.jpg	0	0	0	87.1884298882796	87.2384127241094	0.0499828358297236
93370	50	537	0	0	leash	907	228	1	stimuli\leash\leash_12s.jpg	11	-1	1	0	leash_12s.jpg	0	0	0	87.2884348132065	87.3384144795127	0.0499796663061716
93470	50	538	0	0	skewer	1451	229	1	stimuli\skewer\skewer_03s.jpg	2	-1	1	0	skewer_03s.jpg	0	0	0	87.3884421762195	87.4384162349161	0.0499740586965345
93570	50	539	0	0	coffee_table	381	230	1	stimuli\coffee_table\coffee_table_05s.jpg	4	-1	1	0	coffee_table_05s.jpg	0	0	0	87.4884422249743	87.5384187218151	0.0499764968408272
93670	50	540	0	0	cash_machine	279	231	1	stimuli\cash_machine\cash_machine_09s.jpg	8	-1	1	0	cash_machine_09s.jpg	0	0	0	87.5884417861234	87.6384102372103	0.0499684510868974
93770	50	541	0	0	egg_roll	547	232	1	stimuli\egg_roll\egg_roll_03n.jpg	2	-1	1	0	egg_roll_03n.jpg	0	0	0	87.6884272063617	87.7384236954967	0.0499964891350828
93870	50	542	0	0	cord	407	233	1	stimuli\cord\cord_07s.jpg	6	-1	1	0	cord_07s.jpg	0	0	0	87.788449685555	87.8384122852585	0.0499625997035764
93970	50	543	0	0	chair	300	234	1	stimuli\chair\chair_09s.jpg	8	-1	1	0	chair_09s.jpg	0	0	0	87.8884324238752	87.9384352520574	0.0500028281821869
94070	50	544	0	0	playing_card	1199	235	1	stimuli\playing_card\playing_card_08s.jpg	7	-1	1	0	playing_card_08s.jpg	0	0	0	87.9884531964199	88.0384331065579	0.0499799101380631
94170	50	545	0	0	wedge	1801	236	1	stimuli\wedge\wedge_08s.jpg	7	-1	1	0	wedge_08s.jpg	0	0	0	88.0884371537832	88.1384331553127	0.0499960015295073
94270	50	546	0	0	skirt	1457	237	1	stimuli\skirt\skirt_03s.jpg	2	-1	1	0	skirt_03s.jpg	0	0	0	88.1884608520195	88.2384397868882	0.0499789348687045
94370	50	547	0	0	volleyball	1767	238	1	stimuli\volleyball\volleyball_08s.jpg	7	-1	1	0	volleyball_08s.jpg	0	0	0	88.2884596817312	88.3384459309164	0.0499862491851673
94470	50	548	0	0	pallet	1101	239	1	stimuli\pallet\pallet_08s.jpg	7	-1	1	0	pallet_08s.jpg	0	0	0	88.3884641190525	88.4384272063617	0.0499630873091519
94570	50	549	0	0	flag	605	240	1	stimuli\flag\flag_11s.jpg	10	-1	1	0	flag_11s.jpg	0	0	0	88.4884651430766	88.5384457845939	0.0499806415173225
94670	50	550	0	0	stiletto	1554	241	1	stimuli\stiletto\stiletto_08s.jpg	7	-1	1	0	stiletto_08s.jpg	0	0	0	88.5884678737493	88.638446808618	0.0499789348687045
94770	50	551	0	0	tape_recorder	1624	242	1	stimuli\tape_recorder\tape_recorder_06s.jpg	5	-1	1	0	tape_recorder_06s.jpg	0	0	0	88.6884688977152	88.7384507583338	0.0499818606185727
94870	50	552	0	0	plate	1197	243	1	stimuli\plate\plate_06s.jpg	5	-1	1	0	plate_06s.jpg	0	0	0	88.7884718722198	88.8384539766121	0.0499821043922566
94970	50	553	0	0	reindeer	1301	244	1	stimuli\reindeer\reindeer_03s.jpg	2	-1	1	0	reindeer_03s.jpg	0	0	0	88.8884650943219	88.938456219621	0.0499911252991296
95070	50	554	0	0	rim	1312	245	1	stimuli\rim\rim_02s.jpg	1	-1	1	0	rim_02s.jpg	0	0	0	88.9884814782999	89.0384589502937	0.0499774719937705
95170	50	555	0	0	crouton	445	246	1	stimuli\crouton\crouton_04n.jpg	3	-1	1	0	crouton_04n.jpg	0	0	0	89.0884810394491	89.1384441267001	0.0499630872509442
95270	50	556	0	0	football	629	247	1	stimuli\football\football_11s.jpg	10	-1	1	0	football_11s.jpg	0	0	0	89.1884823072469	89.2384648992447	0.0499825919978321
95370	50	557	0	0	backdrop	47	248	1	stimuli\backdrop\backdrop_07s.jpg	6	-1	1	0	backdrop_07s.jpg	0	0	0	89.2884850379196	89.3384700680035	0.0499850300839171
95470	50	558	0	0	eggnog	549	249	1	stimuli\eggnog\eggnog_06s.jpg	5	-1	1	0	eggnog_06s.jpg	0	0	0	89.388471433369	89.4384664596291	0.0499950262601487
95570	50	559	0	0	mast	981	250	1	stimuli\mast\mast_02s.jpg	1	-1	1	0	mast_02s.jpg	0	0	0	89.4884902554331	89.538471384556	0.049981129122898
95670	50	560	0	0	hockey_stick	783	251	1	stimuli\hockey_stick\hockey_stick_09s.jpg	8	-1	1	0	hockey_stick_09s.jpg	0	0	0	89.5884764070506	89.6384716771427	0.0499952700920403
95770	50	561	0	0	corkboard	410	252	1	stimuli\corkboard\corkboard_02s.jpg	1	-1	1	0	corkboard_02s.jpg	0	0	0	89.6884944976773	89.7384746516473	0.0499801539699547
95870	50	562	0	0	clay	352	253	1	stimuli\clay\clay_10s.jpg	9	-1	1	0	clay_10s.jpg	0	0	0	89.7885018607485	89.8384603156592	0.0499584549106658
95970	50	563	0	0	pickle	1167	254	1	stimuli\pickle\pickle_10n.jpg	9	-1	1	0	pickle_10n.jpg	0	0	0	89.8884970333311	89.938464021543	0.0499669882119633
96070	50	564	0	0	skateboard	1449	255	1	stimuli\skateboard\skateboard_09s.jpg	8	-1	1	0	skateboard_09s.jpg	0	0	0	89.9885036649066	90.0384879636113	0.0499842987046577
96170	50	565	0	0	spider_web	1514	256	1	stimuli\spider_web\spider_web_07s.jpg	6	-1	1	0	spider_web_07s.jpg	0	0	0	90.0885039574932	90.1384850866743	0.0499811291811056
96270	50	566	0	0	whip	1809	257	1	stimuli\whip\whip_07s.jpg	6	-1	1	0	whip_07s.jpg	0	0	0	90.188507907209	90.2384890363901	0.0499811291811056
96370	50	567	0	0	sling	1466	258	1	stimuli\sling\sling_05s.jpg	4	-1	1	0	sling_05s.jpg	0	0	0	90.2885089311749	90.3384732375271	0.0499643063521944
96470	50	568	0	0	cement_mixer	294	259	1	stimuli\cement_mixer\cement_mixer_03s.jpg	2	-1	1	0	cement_mixer_03s.jpg	0	0	0	90.3885123932851	90.4384962043841	0.0499838110990822
96570	50	569	0	0	rubber_band	1337	260	1	stimuli\rubber_band\rubber_band_05s.jpg	4	-1	1	0	rubber_band_05s.jpg	0	0	0	90.4885012268205	90.5384977159556	0.0499964891350828
96670	50	570	0	0	mat	982	261	1	stimuli\mat\mat_08s.jpg	7	-1	1	0	mat_08s.jpg	0	0	0	90.5884968870087	90.6384748466662	0.0499779596575536
96770	50	571	0	0	porcupine	1226	262	1	stimuli\porcupine\porcupine_04s.jpg	3	-1	1	1	porcupine_04s.jpg	0	0	0	90.688504006248	90.7384741639835	0.0499701577355154
96870	50	572	0	0	cotton_candy	421	263	1	stimuli\cotton_candy\cotton_candy_11s.jpg	10	-1	1	0	cotton_candy_11s.jpg	0	0	0	90.7885042988346	90.8384834775352	0.0499791787005961
96970	50	573	0	0	magnifying_glass	958	264	1	stimuli\magnifying_glass\magnifying_glass_10s.jpg	9	-1	1	0	magnifying_glass_10s.jpg	0	0	0	90.8885233646724	90.938504006248	0.0499806415755302
97070	50	574	0	0	pistachio	1188	265	1	stimuli\pistachio\pistachio_07n.jpg	6	-1	1	0	pistachio_07n.jpg	0	0	0	90.9885338972672	91.0385111254873	0.0499772282200865
97170	50	575	0	0	pelican	1140	266	1	stimuli\pelican\pelican_01b.jpg	0	-1	1	0	pelican_01b.jpg	1	0.392197081702761	1	91.0885349212331	91.1385097113671	0.0499747901340015
97270	50	576	0	0	bagpipe	56	267	1	stimuli\bagpipe\bagpipe_05s.jpg	4	-1	1	0	bagpipe_05s.jpg	0	0	0	91.1885327757336	91.2385148801259	0.0499821043922566
97370	50	577	0	0	suspenders	1589	268	1	stimuli\suspenders\suspenders_03s.jpg	2	-1	1	0	suspenders_03s.jpg	0	0	0	91.2885355064063	91.3385156603181	0.049980153911747
97470	50	578	0	0	blowtorch	148	269	1	stimuli\blowtorch\blowtorch_02s.jpg	1	-1	1	0	blowtorch_02s.jpg	0	0	0	91.3885333608487	91.4385140024242	0.0499806415755302
97570	50	579	0	0	snowshoe	1485	270	1	stimuli\snowshoe\snowshoe_04s.jpg	3	-1	1	0	snowshoe_04s.jpg	0	0	0	91.4885390172713	91.5385167330969	0.049977715825662
97670	50	580	0	0	baton2	93	271	1	stimuli\baton2\baton2_08s.jpg	7	-1	1	0	baton2_08s.jpg	0	0	0	91.5885415041121	91.6385180008947	0.0499764967826195
97770	50	581	0	0	magnifier	957	272	1	stimuli\magnifier\magnifier_01b.jpg	0	-1	1	0	magnifier_01b.jpg	0	0	0	91.6885430157417	91.7385243886965	0.0499813729547895
97870	50	582	0	0	daisy	470	273	1	stimuli\daisy\daisy_09s.jpg	8	-1	1	0	daisy_09s.jpg	0	0	0	91.7885494035436	91.8385312641039	0.049981860560365
97970	50	583	0	0	desk	480	274	1	stimuli\desk\desk_08s.jpg	7	-1	1	0	desk_08s.jpg	0	0	0	91.8885465265485	91.9385400899919	0.0499935634434223
98070	50	584	0	0	blinder	141	275	1	stimuli\blinder\blinder_12s.jpg	11	-1	1	0	blinder_12s.jpg	0	0	0	91.988547062967	92.038534531137	0.0499874681700021
98170	50	585	0	0	stool	1561	276	1	stimuli\stool\stool_04s.jpg	3	-1	1	0	stool_04s.jpg	0	0	0	92.0885507688508	92.1385301913833	0.0499794225324877
98270	50	586	0	0	drill	520	277	1	stimuli\drill\drill_01b.jpg	0	-1	1	0	drill_01b.jpg	0	0	0	92.1885549623985	92.2385326782241	0.049977715825662
98370	50	587	0	0	school_bus	1378	278	1	stimuli\school_bus\school_bus_05s.jpg	4	-1	1	0	school_bus_05s.jpg	0	0	0	92.2885645196657	92.3385393097997	0.0499747901340015
98470	50	588	0	0	column	388	279	1	stimuli\column\column_11s.jpg	10	-1	1	0	column_11s.jpg	0	0	0	92.3885592046427	92.4385430157417	0.0499838110990822
98570	50	589	0	0	duffel_bag	529	280	1	stimuli\duffel_bag\duffel_bag_11s.jpg	10	-1	1	0	duffel_bag_11s.jpg	0	0	0	92.4885612038779	92.5385428206646	0.0499816167866811
98670	50	590	0	0	cashew	281	281	1	stimuli\cashew\cashew_08s.jpg	7	-1	1	0	cashew_08s.jpg	0	0	0	92.5885644221562	92.6385431132512	0.0499786910950206
98770	50	591	0	0	syrup	1605	282	1	stimuli\syrup\syrup_06s.jpg	5	-1	1	0	syrup_06s.jpg	0	0	0	92.6885698347469	92.7385490134475	0.0499791787005961
98870	50	592	0	0	barnacle	75	283	1	stimuli\barnacle\barnacle_10n.jpg	9	-1	1	0	barnacle_10n.jpg	0	0	0	92.7885730530252	92.8385500374134	0.049976984388195
98970	50	593	0	0	drum	522	284	1	stimuli\drum\drum_01b.jpg	0	-1	1	0	drum_01b.jpg	0	0	0	92.8885723703424	92.9385527680861	0.0499803977436386
99070	50	594	0	0	cilantro	347	285	1	stimuli\cilantro\cilantro_06s.jpg	5	-1	1	0	cilantro_06s.jpg	0	0	0	92.9885787581443	93.0385528168408	0.0499740586965345
99170	50	595	0	0	squid	1528	286	1	stimuli\squid\squid_04s.jpg	3	-1	1	0	squid_04s.jpg	0	0	0	93.0885753936018	93.1385570103885	0.0499816167866811
99270	50	596	0	0	french_fries	641	287	1	stimuli\french_fries\french_fries_11s.jpg	10	-1	1	0	french_fries_11s.jpg	0	0	0	93.1885559376096	93.2385631543584	0.0500072167487815
99370	50	597	0	0	stump	1576	288	1	stimuli\stump\stump_08s.jpg	7	-1	1	0	stump_08s.jpg	0	0	0	93.2885864624986	93.3385624716757	0.049976009177044
99470	50	598	0	0	snake	1477	289	1	stimuli\snake\snake_08s.jpg	7	-1	1	0	snake_08s.jpg	0	0	0	93.3885865112534	93.4385398462182	0.0499533349648118
99570	50	599	0	0	brace	186	290	1	stimuli\brace\brace_01b.jpg	0	-1	1	0	brace_01b.jpg	0	0	0	93.4885889981524	93.5385689082323	0.0499799100798555
99670	50	600	0	0	stretcher	1572	291	1	stimuli\stretcher\stretcher_05s.jpg	4	-1	1	0	stretcher_05s.jpg	0	0	0	93.5885912411613	93.6385692008189	0.0499779596575536
99770	50	601	0	0	calf1	241	292	1	stimuli\calf1\calf1_03s.jpg	2	-1	1	0	calf1_03s.jpg	0	0	0	93.6885649585747	93.7385719314916	0.0500069729168899
99870	50	602	0	0	bracket	189	293	1	stimuli\bracket\bracket_03s.jpg	2	-1	1	0	bracket_03s.jpg	0	0	0	93.7885967025068	93.8385729555157	0.0499762530089356
99970	50	603	0	0	earwig	541	294	1	stimuli\earwig\earwig_10n.jpg	9	-1	1	0	earwig_10n.jpg	0	0	0	93.8885991893476	93.9385693471413	0.049970157793723
100070	50	604	0	0	strainer	1566	295	1	stimuli\strainer\strainer_06s.jpg	5	-1	1	0	strainer_06s.jpg	0	0	0	93.9886002133717	94.0385842682444	0.0499840548727661
100170	50	605	0	0	woman	1832	296	1	stimuli\woman\woman_04s.jpg	3	-1	1	0	woman_04s.jpg	0	0	0	94.0885983116459	94.1385811474756	0.0499828358297236
100270	50	606	0	0	gyro	730	297	1	stimuli\gyro\gyro_06s.jpg	5	-1	1	0	gyro_06s.jpg	0	0	0	94.1886042118422	94.2385850971914	0.0499808853492141
100370	50	607	0	0	light_switch	926	298	1	stimuli\light_switch\light_switch_09s.jpg	8	-1	1	0	light_switch_09s.jpg	0	0	0	94.2886037729913	94.3385868525947	0.0499830796034075
100470	50	608	0	0	raincoat	1279	299	1	stimuli\raincoat\raincoat_01s.jpg	0	-1	1	0	raincoat_01s.jpg	0	0	0	94.3886108922306	94.4385886080563	0.049977715825662
100570	50	609	0	0	swab	1590	300	1	stimuli\swab\swab_02s.jpg	1	-1	1	0	swab_02s.jpg	0	0	0	94.4886155733257	94.5385959710693	0.0499803977436386
100670	50	610	0	0	tricycle	1711	301	1	stimuli\tricycle\tricycle_09s.jpg	8	-1	1	0	tricycle_09s.jpg	0	0	0	94.5886131839943	94.6385972388671	0.0499840548727661
100770	50	611	0	0	balloon	60	302	1	stimuli\balloon\balloon_11s.jpg	10	-1	1	0	balloon_11s.jpg	0	0	0	94.6886171337101	94.7385980190593	0.0499808853492141
100870	50	612	0	0	goblet	685	303	1	stimuli\goblet\goblet_07s.jpg	6	-1	1	0	goblet_07s.jpg	0	0	0	94.7886191329453	94.8386022126069	0.0499830796616152
100970	50	613	0	0	glasses	678	304	1	stimuli\glasses\glasses_03s.jpg	2	-1	1	0	glasses_03s.jpg	0	0	0	94.8886243017041	94.9386098194518	0.0499855177477002
101070	50	614	0	0	washboard	1782	305	1	stimuli\washboard\washboard_07s.jpg	6	-1	1	0	washboard_07s.jpg	0	0	0	94.9886238628533	95.0386069425149	0.0499830796616152
101170	50	615	0	0	highchair	777	306	1	stimuli\highchair\highchair_06s.jpg	5	-1	1	0	highchair_06s.jpg	0	0	0	95.0886283001746	95.1386062598322	0.0499779596575536
101270	50	616	0	0	memory_stick	995	307	1	stimuli\memory_stick\memory_stick_11s.jpg	10	-1	1	0	memory_stick_11s.jpg	0	0	0	95.1886298118043	95.238608746673	0.0499789348687045
101370	50	617	0	0	bolt	159	308	1	stimuli\bolt\bolt_05s.jpg	4	-1	1	0	bolt_05s.jpg	0	0	0	95.2886296167271	95.3386151344748	0.0499855177477002
107554	50	618	0	0	cranberry	430	0	2	stimuli\cranberry\cranberry_04n.jpg	3	-1	2	0	cranberry_04n.jpg	0	0	0	101.472128951631	101.522103985597	0.0499750339658931
107654	50	619	0	0	waffle	1770	1	2	stimuli\waffle\waffle_05s.jpg	4	-1	2	0	waffle_05s.jpg	0	0	0	101.572126074694	101.622106960043	0.0499808853492141
107754	50	620	0	0	sled	1460	2	2	stimuli\sled\sled_08s.jpg	7	-1	2	0	sled_08s.jpg	0	0	0	101.672129780578	101.722111397365	0.0499816167866811
107854	50	621	0	0	hose	800	3	2	stimuli\hose\hose_06s.jpg	5	-1	2	0	hose_06s.jpg	0	0	0	101.772118126508	101.8221133966	0.0499952700920403
107954	50	622	0	0	spam	1504	4	2	stimuli\spam\spam_05s.jpg	4	-1	2	0	spam_05s.jpg	0	0	0	101.872118175263	101.922124660574	0.0500064853113145
108054	50	623	0	0	zebra	1851	5	2	stimuli\zebra\zebra_05s.jpg	4	-1	2	0	zebra_05s.jpg	0	0	0	101.972141629725	102.022118857945	0.0499772282200865
108154	50	624	0	0	sea_urchin	1393	6	2	stimuli\sea_urchin\sea_urchin_04s.jpg	3	-1	2	0	sea_urchin_04s.jpg	0	0	0	102.072137777519	102.122107203875	0.049969426356256
108254	50	625	0	0	soldering_iron	1494	7	2	stimuli\soldering_iron\soldering_iron_05s.jpg	4	-1	2	0	soldering_iron_05s.jpg	0	0	0	102.172145384364	102.222123100189	0.049977715825662
108354	50	626	0	0	exhaust_pipe	562	8	2	stimuli\exhaust_pipe\exhaust_pipe_06s.jpg	5	-1	2	0	exhaust_pipe_06s.jpg	0	0	0	102.272144701739	102.322127293737	0.0499825919978321
108454	50	627	0	0	bok_choy	156	9	2	stimuli\bok_choy\bok_choy_02s.jpg	1	-1	2	0	bok_choy_02s.jpg	0	0	0	102.372153527627	102.422383342171	0.0502298145438544
108554	50	628	0	0	lab_coat	885	10	2	stimuli\lab_coat\lab_coat_06s.jpg	5	-1	2	0	lab_coat_06s.jpg	0	0	0	102.47215333255	102.52213056077	0.0499772282200865
108654	50	629	0	0	button1	230	11	2	stimuli\button1\button1_09s.jpg	8	-1	2	0	button1_09s.jpg	0	0	0	102.572152162262	102.622133291443	0.0499811291811056
108754	50	630	0	0	sweatsuit	1593	12	2	stimuli\sweatsuit\sweatsuit_10s.jpg	9	-1	2	0	sweatsuit_10s.jpg	0	0	0	102.672154892934	102.722113591677	0.0499586987425573
108854	50	631	0	0	orangutan	1080	13	2	stimuli\orangutan\orangutan_01b.jpg	0	-1	2	0	orangutan_01b.jpg	0	0	0	102.772130073165	102.822109495639	0.04997942247428
108954	50	632	0	0	dough	513	14	2	stimuli\dough\dough_07s.jpg	6	-1	2	0	dough_07s.jpg	0	0	0	102.872127683833	102.92214319011	0.0500155062763952
109054	50	633	0	0	switch	1600	15	2	stimuli\switch\switch_03s.jpg	2	-1	2	0	switch_03s.jpg	0	0	0	102.972162841121	103.022143238864	0.0499803977436386
109154	50	634	0	0	pool_table	1222	16	2	stimuli\pool_table\pool_table_12s.jpg	11	-1	2	0	pool_table_12s.jpg	0	0	0	103.072164108919	103.122128171439	0.0499640625203028
109254	50	635	0	0	sequin	1404	17	2	stimuli\sequin\sequin_02s.jpg	1	-1	2	0	sequin_02s.jpg	0	0	0	103.172167083423	103.22214577446	0.049978691036813
109354	50	636	0	0	harness	754	18	2	stimuli\harness\harness_01b.jpg	0	-1	2	0	harness_01b.jpg	0	0	0	103.272152503603	103.322133876558	0.0499813729547895
109454	50	637	0	0	licorice	922	19	2	stimuli\licorice\licorice_08s.jpg	7	-1	2	0	licorice_08s.jpg	0	0	0	103.372154990444	103.42215269868	0.049997708236333
109554	50	638	0	0	revolver	1304	20	2	stimuli\revolver\revolver_02s.jpg	1	-1	2	0	revolver_02s.jpg	0	0	0	103.472174543946	103.522138850298	0.0499643063521944
109654	50	639	0	0	easter_egg	543	21	2	stimuli\easter_egg\easter_egg_05s.jpg	4	-1	2	0	easter_egg_05s.jpg	0	0	0	103.572162158438	103.622159135237	0.0499969767988659
109754	50	640	0	0	bumper	219	22	2	stimuli\bumper\bumper_12s.jpg	11	-1	2	0	bumper_12s.jpg	0	0	0	103.672172447201	103.722146018292	0.049973571090959
109854	50	641	0	0	goose	693	23	2	stimuli\goose\goose_01b.jpg	0	-1	2	0	goose_01b.jpg	0	0	0	103.772169570264	103.822153381305	0.0499838110408746
109954	50	642	0	0	petri_dish	1159	24	2	stimuli\petri_dish\petri_dish_02s.jpg	1	-1	2	0	petri_dish_02s.jpg	0	0	0	103.872174982796	103.922161963419	0.0499869806226343
110054	50	643	0	0	painting	1098	25	2	stimuli\painting\painting_09s.jpg	8	-1	2	0	painting_09s.jpg	0	0	0	103.972177957301	104.022159330256	0.0499813729547895
110154	50	644	0	0	omelet	1076	26	2	stimuli\omelet\omelet_06s.jpg	5	-1	2	0	omelet_06s.jpg	0	0	0	104.072182394622	104.122162792366	0.0499803977436386
110254	50	645	0	0	spark_plug	1506	27	2	stimuli\spark_plug\spark_plug_04s.jpg	3	-1	2	0	spark_plug_04s.jpg	0	0	0	104.172202191898	104.222180395387	0.0499782034894451
110354	50	646	0	0	modem	1011	28	2	stimuli\modem\modem_03s.jpg	2	-1	2	0	modem_03s.jpg	0	0	0	104.272193951183	104.32215947652	0.0499655253370292
110454	50	647	0	0	music_box	1041	29	2	stimuli\music_box\music_box_08s.jpg	7	-1	2	0	music_box_08s.jpg	0	0	0	104.372186441848	104.422193658596	0.0500072167487815
110554	50	648	0	0	guillotine	721	30	2	stimuli\guillotine\guillotine_04s.jpg	3	-1	2	0	guillotine_04s.jpg	0	0	0	104.472205995349	104.522165181697	0.0499591863481328
110654	50	649	0	0	berry	121	31	2	stimuli\berry\berry_02s.jpg	1	-1	2	0	berry_02s.jpg	0	0	0	104.572188002232	104.622187904723	0.0499999024905264
110754	50	650	0	0	fishhook	602	32	2	stimuli\fishhook\fishhook_02s.jpg	1	-1	2	0	fishhook_02s.jpg	0	0	0	104.672203898604	104.72218722204	0.0499833234352991
110854	50	651	0	0	polar_bear	1211	33	2	stimuli\polar_bear\polar_bear_11s.jpg	10	-1	2	0	polar_bear_11s.jpg	0	0	0	104.772208092094	104.822175080364	0.049966988270171
110954	50	652	0	0	cockatoo	372	34	2	stimuli\cockatoo\cockatoo_08s.jpg	7	-1	2	0	cockatoo_08s.jpg	0	0	0	104.872192780895	104.922190489073	0.0499977081781253
111054	50	653	0	0	chaps	306	35	2	stimuli\chaps\chaps_02s.jpg	1	-1	2	0	chaps_02s.jpg	0	0	0	104.972213553439	105.02219273214	0.0499791787005961
111154	50	654	0	0	washcloth	1783	36	2	stimuli\washcloth\washcloth_06s.jpg	5	-1	2	0	washcloth_06s.jpg	0	0	0	105.072212870757	105.122196194192	0.0499833234352991
111254	50	655	0	0	hatchet	759	37	2	stimuli\hatchet\hatchet_12s.jpg	11	-1	2	1	hatchet_12s.jpg	0	0	0	105.172200241417	105.222175275383	0.0499750339658931
111354	50	656	0	0	sail	1346	38	2	stimuli\sail\sail_01b.jpg	0	-1	2	0	sail_01b.jpg	0	0	0	105.272221745399	105.322186051751	0.0499643063521944
111454	50	657	0	0	seatbelt	1399	39	2	stimuli\seatbelt\seatbelt_02s.jpg	1	-1	2	0	seatbelt_02s.jpg	0	0	0	105.372222037986	105.422210725257	0.0499886872712523
