onset	duration	eventnumber	blocksequencenumber	isteststim	object	objectnumber	presentationnumber	sequencenumber	stim	stimnumber	teststimnumber	withinsequencenumber	istarget	stimname	response	rt	correct	time_stimon	time_stimoff	stimdur
13070	50	0	0	0	coyote	427	0	0	stimuli\coyote\coyote_05s.jpg	4	-1	0	0	coyote_05s.jpg	0	0	0	142.973281675033	143.023261597336	0.0499799223034643
13170	50	1	0	0	anklet	23	1	0	stimuli\anklet\anklet_02s.jpg	1	-1	0	0	anklet_02s.jpg	0	0	0	143.073286136743	143.123266546667	0.0499804099235917
13270	50	2	0	0	nutcracker	1067	2	0	stimuli\nutcracker\nutcracker_10s.jpg	9	-1	0	0	nutcracker_10s.jpg	0	0	0	143.173285234647	143.223261012201	0.0499757775542093
13369	50	3	0	0	sparkler	1507	3	0	stimuli\sparkler\sparkler_03s.jpg	2	-1	0	0	sparkler_03s.jpg	0	0	0	143.273277505898	143.323259378682	0.0499818727839738
13469	50	4	0	0	bark	74	4	0	stimuli\bark\bark_04s.jpg	3	-1	0	0	bark_04s.jpg	0	0	0	143.373278798084	143.423249455649	0.0499706575646996
13569	50	5	0	0	chicken2	323	5	0	stimuli\chicken2\chicken2_03s.jpg	2	-1	0	0	chicken2_03s.jpg	0	0	0	143.473271556955	143.523862465256	0.0505909083003644
13670	50	6	0	0	dish	489	6	0	stimuli\dish\dish_05s.jpg	4	-1	0	0	dish_05s.jpg	0	0	0	143.573292841495	143.623256672392	0.0499638308974681
13769	50	7	0	0	aquarium	34	7	0	stimuli\aquarium\aquarium_09s.jpg	8	-1	0	0	aquarium_09s.jpg	0	0	0	143.673272922286	143.723268692193	0.0499957699066726
13869	50	8	0	0	beehive	112	8	0	stimuli\beehive\beehive_07s.jpg	6	-1	0	0	beehive_07s.jpg	0	0	0	143.773291037316	143.823259012963	0.0499679756467231
13969	50	9	0	0	wedge	1801	9	0	stimuli\wedge\wedge_06s.jpg	5	-1	0	0	wedge_06s.jpg	0	0	0	143.87329013522	143.92326981372	0.0499796785006765
14070	50	10	0	0	thermostat	1648	10	0	stimuli\thermostat\thermostat_11s.jpg	10	-1	0	0	thermostat_11s.jpg	0	0	0	143.973298741679	144.023274519233	0.0499757775542093
14170	50	11	0	0	seagull	1395	11	0	stimuli\seagull\seagull_04s.jpg	3	-1	0	0	seagull_04s.jpg	0	0	0	144.0732980834	144.123303849483	0.0500057660829043
14270	50	12	0	0	chalice	301	12	0	stimuli\chalice\chalice_03s.jpg	2	-1	0	0	chalice_03s.jpg	0	0	0	144.173318392714	144.223281248371	0.0499628556572134
14370	50	13	0	0	veil	1755	13	0	stimuli\veil\veil_11s.jpg	10	-1	0	0	veil_11s.jpg	0	0	0	144.27331870966	144.323307896717	0.0499891870567808
14470	50	14	0	0	shirt	1422	14	0	stimuli\shirt\shirt_06s.jpg	5	-1	0	0	shirt_06s.jpg	0	0	0	144.373322927568	144.423309920341	0.0499869927734835
14570	50	15	0	0	hard_disk	752	15	0	stimuli\hard_disk\hard_disk_02s.jpg	1	-1	0	0	hard_disk_02s.jpg	0	0	0	144.473326901658	144.523288050652	0.0499611489940435
14670	50	16	0	0	dishrag	490	16	0	stimuli\dishrag\dishrag_02s.jpg	1	-1	0	0	dishrag_02s.jpg	0	0	0	144.573306007194	144.623307628528	0.0500016213336494
14770	50	17	0	0	calamari	239	17	0	stimuli\calamari\calamari_01b.jpg	0	-1	0	0	calamari_01b.jpg	0	0	0	144.673344114592	144.723313309281	0.0499691946897656
14870	50	18	0	0	gong	692	18	0	stimuli\gong\gong_12s.jpg	11	-1	0	0	gong_12s.jpg	0	0	0	144.773335166785	144.823303386249	0.0499682194640627
14970	50	19	0	0	maggot	955	19	0	stimuli\maggot\maggot_08s.jpg	7	-1	0	0	maggot_08s.jpg	0	0	0	144.873328169459	144.923321988899	0.049993819440715
15070	50	20	0	0	skeleton	1450	20	0	stimuli\skeleton\skeleton_05s.jpg	4	-1	0	0	skeleton_05s.jpg	0	0	0	144.973339945442	145.023321086803	0.0499811413610587
15170	50	21	0	0	gurney	728	21	0	stimuli\gurney\gurney_06s.jpg	5	-1	0	0	gurney_06s.jpg	0	0	0	145.073338799542	145.123304337103	0.049965537560638
15270	50	22	0	0	feather	574	22	0	stimuli\feather\feather_06s.jpg	5	-1	0	0	feather_06s.jpg	0	0	0	145.173342286012	145.223301728343	0.0499594423308736
15370	50	23	0	0	hot_chocolate	803	23	0	stimuli\hot_chocolate\hot_chocolate_07s.jpg	6	-1	0	0	hot_chocolate_07s.jpg	0	0	0	145.273323342044	145.323307165294	0.0499838232499314
15470	50	24	0	0	earplug	539	24	0	stimuli\earplug\earplug_03s.jpg	2	-1	0	0	earplug_03s.jpg	0	0	0	145.373331460883	145.423337470784	0.050006009900244
15570	50	25	0	0	grass	705	25	0	stimuli\grass\grass_09s.jpg	8	-1	0	0	grass_09s.jpg	0	0	0	145.473376638736	145.523333642981	0.0499570042447885
15670	50	26	0	0	cymbal	468	26	0	stimuli\cymbal\cymbal_07s.jpg	6	-1	0	0	cymbal_07s.jpg	0	0	0	145.57335745095	145.623339811355	0.0499823604041012
15770	50	27	0	0	velcro	1756	27	0	stimuli\velcro\velcro_09s.jpg	8	-1	0	0	velcro_09s.jpg	0	0	0	145.673363375521	145.723325499755	0.0499621242342982
15870	50	28	0	0	couch	422	28	0	stimuli\couch\couch_05s.jpg	4	-1	0	0	couch_05s.jpg	0	0	0	145.773361985805	145.823331911932	0.0499699261272326
15970	50	29	0	0	water_heater	1791	29	0	stimuli\water_heater\water_heater_09s.jpg	8	-1	0	0	water_heater_09s.jpg	0	0	0	145.873349868489	145.923348076481	0.0499982079927577
16070	50	30	0	0	gun	727	30	0	stimuli\gun\gun_12s.jpg	11	-1	0	0	gun_12s.jpg	0	0	0	145.973349210195	146.023348637245	0.0499994270503521
16170	50	31	0	0	teacup	1633	31	0	stimuli\teacup\teacup_11s.jpg	10	-1	0	0	teacup_11s.jpg	0	0	0	146.073349283339	146.123332131363	0.0499828480242286
16270	50	32	0	0	french_fries	641	32	0	stimuli\french_fries\french_fries_04s.jpg	3	-1	0	0	french_fries_04s.jpg	0	0	0	146.173375200262	146.223351465436	0.0499762651743367
16370	50	33	0	0	cucumber	457	33	0	stimuli\cucumber\cucumber_07s.jpg	6	-1	0	0	cucumber_07s.jpg	0	0	0	146.273357231519	146.323339591923	0.0499823604041012
16470	50	34	0	0	folder	625	34	0	stimuli\folder\folder_10s.jpg	9	-1	0	0	folder_10s.jpg	0	0	0	146.373373883689	146.423344053634	0.0499701699445723
16570	50	35	0	0	soccer_ball	1488	35	0	stimuli\soccer_ball\soccer_ball_01b.jpg	0	-1	0	0	soccer_ball_01b.jpg	0	0	0	146.473384196826	146.523342907734	0.0499587109079584
16670	50	36	0	0	nail_clippers	1047	36	0	stimuli\nail_clippers\nail_clippers_06s.jpg	5	-1	0	0	nail_clippers_06s.jpg	0	0	0	146.573385976633	146.623347369445	0.0499613928113831
16770	50	37	0	0	kaleidoscope	861	37	0	stimuli\kaleidoscope\kaleidoscope_12s.jpg	11	-1	0	0	kaleidoscope_12s.jpg	0	0	0	146.67336654503	146.723343541627	0.0499769965972519
16870	50	38	0	0	dart	473	38	0	stimuli\dart\dart_05s.jpg	4	-1	0	0	dart_05s.jpg	0	0	0	146.773365155328	146.823345321434	0.049980166106252
16970	50	39	0	0	pineapple	1182	39	0	stimuli\pineapple\pineapple_08s.jpg	7	-1	0	0	pineapple_08s.jpg	0	0	0	146.873391072251	146.923370994555	0.0499799223034643
17070	50	40	0	0	lingerie	932	40	0	stimuli\lingerie\lingerie_06s.jpg	5	-1	0	0	lingerie_06s.jpg	0	0	0	146.973390413958	147.023372042939	0.0499816289811861
17170	50	41	0	0	trumpet	1721	41	0	stimuli\trumpet\trumpet_01s.jpg	0	-1	0	0	trumpet_01s.jpg	0	0	0	147.073396582331	147.123377967495	0.0499813851638464
17270	50	42	0	0	jumpsuit	859	42	0	stimuli\jumpsuit\jumpsuit_01b.jpg	0	-1	0	0	jumpsuit_01b.jpg	0	0	0	147.173396899292	147.223360973992	0.0499640747002559
17370	50	43	0	0	milkshake	1002	43	0	stimuli\milkshake\milkshake_02s.jpg	1	-1	0	0	milkshake_02s.jpg	0	0	0	147.273400873382	147.32336567952	0.0499648061377229
17470	50	44	0	0	bone	161	44	0	stimuli\bone\bone_11s.jpg	10	-1	0	0	bone_11s.jpg	0	0	0	147.373406797939	147.42338281931	0.049976021371549
17570	50	45	0	0	loincloth	944	45	0	stimuli\loincloth\loincloth_12s.jpg	11	-1	0	0	loincloth_12s.jpg	0	0	0	147.473389073013	147.523369239134	0.0499801661208039
17670	50	46	0	0	pesto	1156	46	0	stimuli\pesto\pesto_07s.jpg	6	-1	0	0	pesto_07s.jpg	0	0	0	147.573407431846	147.623386622727	0.0499791908805491
17770	50	47	0	0	tee	1636	47	0	stimuli\tee\tee_06s.jpg	5	-1	0	0	tee_06s.jpg	0	0	0	147.67340848023	147.723373286368	0.0499648061377229
17870	50	48	0	0	hairpin	737	48	0	stimuli\hairpin\hairpin_01b.jpg	0	-1	0	0	hairpin_01b.jpg	0	0	0	147.773410747657	147.823392864244	0.0499821165867615
17970	50	49	0	0	laser_pointer	899	49	0	stimuli\laser_pointer\laser_pointer_05s.jpg	4	-1	0	0	laser_pointer_05s.jpg	0	0	0	147.873417403651	147.923398057377	0.0499806537263794
18070	50	50	0	0	pickax	1166	50	0	stimuli\pickax\pickax_03s.jpg	2	-1	0	0	pickax_03s.jpg	0	0	0	147.973415526314	148.023399837184	0.0499843108700588
18170	50	51	0	0	fruit	645	51	0	stimuli\fruit\fruit_08s.jpg	7	-1	0	0	fruit_08s.jpg	0	0	0	148.073420475645	148.123405761755	0.0499852861103136
18270	50	52	0	0	ship	1421	52	0	stimuli\ship\ship_05s.jpg	4	-1	0	0	ship_05s.jpg	0	0	0	148.173425668778	148.223404128235	0.049978459457634
18370	50	53	0	0	rocking_horse	1322	53	0	stimuli\rocking_horse\rocking_horse_01s.jpg	0	-1	0	0	rocking_horse_01s.jpg	0	0	0	148.273416964788	148.323390791862	0.0499738270736998
18470	50	54	0	0	licorice	922	54	0	stimuli\licorice\licorice_09s.jpg	8	-1	0	0	licorice_09s.jpg	0	0	0	148.373429472209	148.423390133583	0.0499606613739161
18570	50	55	0	0	ink	829	55	0	stimuli\ink\ink_04s.jpg	3	-1	0	0	ink_04s.jpg	0	0	0	148.473430764396	148.523409711459	0.0499789470632095
18670	50	56	0	0	swan	1591	56	0	stimuli\swan\swan_05s.jpg	4	-1	0	1	swan_05s.jpg	0	0	0	148.573430837539	148.62341002842	0.0499791908805491
18770	50	57	0	0	vulture	1768	57	0	stimuli\vulture\vulture_06s.jpg	5	-1	0	0	vulture_06s.jpg	0	0	0	148.67341652594	148.723395229201	0.0499787032604218
18870	50	58	0	0	tie	1658	58	0	stimuli\tie\tie_08s.jpg	7	-1	0	0	tie_08s.jpg	0	0	0	148.773421231454	148.823397496628	0.0499762651743367
18970	50	59	0	0	bison	134	59	0	stimuli\bison\bison_08s.jpg	7	-1	0	0	bison_08s.jpg	1	0.350136911089066	1	148.873423255063	148.923391230725	0.049967975661275
19070	50	60	0	0	mint	1004	60	0	stimuli\mint\mint_02s.jpg	1	-1	0	0	mint_02s.jpg	0	0	0	148.973423815827	149.023398618141	0.0499748023139546
19170	50	61	0	0	trophy	1717	61	0	stimuli\trophy\trophy_02s.jpg	1	-1	0	0	trophy_02s.jpg	0	0	0	149.073415843275	149.123432580775	0.0500167374993907
19270	50	62	0	0	arrow	38	62	0	stimuli\arrow\arrow_10s.jpg	9	-1	0	0	arrow_10s.jpg	0	0	0	149.173431276402	149.223427533929	0.0499962575268
19370	50	63	0	0	cookie	400	63	0	stimuli\cookie\cookie_12s.jpg	11	-1	0	0	cookie_12s.jpg	0	0	0	149.273455974268	149.323415172796	0.0499591985280858
19470	50	64	0	0	catfish	287	64	0	stimuli\catfish\catfish_09s.jpg	8	-1	0	0	catfish_09s.jpg	0	0	0	149.373439468385	149.423415002122	0.0499755337368697
19570	50	65	0	0	pacifier	1093	65	0	stimuli\pacifier\pacifier_05s.jpg	4	-1	0	0	pacifier_05s.jpg	0	0	0	149.473435396765	149.523411418137	0.049976021371549
19670	50	66	0	0	clay	352	66	0	stimuli\clay\clay_01b.jpg	0	-1	0	0	clay_01b.jpg	0	0	0	149.573462045126	149.623376382748	0.0499143376218854
19770	50	67	0	0	puppet	1257	67	0	stimuli\puppet\puppet_10s.jpg	9	-1	0	0	puppet_10s.jpg	0	0	0	149.673454560179	149.7234347263	0.0499801661208039
19870	50	68	0	0	tab	1607	68	0	stimuli\tab\tab_10s.jpg	9	-1	0	0	tab_10s.jpg	0	0	0	149.77344536857	149.823421633744	0.0499762651743367
19970	50	69	0	0	sheep	1414	69	0	stimuli\sheep\sheep_04n.jpg	3	-1	0	0	sheep_04n.jpg	0	0	0	149.873461289317	149.923441943043	0.0499806537263794
20070	50	70	0	0	tuning_fork	1728	70	0	stimuli\tuning_fork\tuning_fork_04s.jpg	3	-1	0	0	tuning_fork_04s.jpg	0	0	0	149.973461118643	150.023442991427	0.0499818727839738
20170	50	71	0	0	slug	1472	71	0	stimuli\slug\slug_09s.jpg	8	-1	0	0	slug_09s.jpg	0	0	0	150.073467774637	150.123446721715	0.0499789470777614
20270	50	72	0	0	arch	35	72	0	stimuli\arch\arch_02s.jpg	1	-1	0	0	arch_02s.jpg	0	0	0	150.173451024952	150.223436067245	0.049985042292974
20370	50	73	0	0	film	586	73	0	stimuli\film\film_03s.jpg	2	-1	0	0	film_03s.jpg	0	0	0	150.273472065688	150.323433702302	0.0499616366141709
20470	50	74	0	0	otter	1085	74	0	stimuli\otter\otter_08n.jpg	7	-1	0	0	otter_08n.jpg	0	0	0	150.373447514095	150.423453036376	0.0500055222801166
20570	50	75	0	0	mold2	1013	75	0	stimuli\mold2\mold2_07s.jpg	6	-1	0	0	mold2_07s.jpg	0	0	0	150.473461484362	150.523453840942	0.0499923565803329
20670	50	76	0	0	checkbook	310	76	0	stimuli\checkbook\checkbook_02s.jpg	1	-1	0	0	checkbook_02s.jpg	0	0	0	150.573479355575	150.623439529343	0.0499601737683406
20770	50	77	0	0	van	1752	77	0	stimuli\van\van_09s.jpg	8	-1	0	0	van_09s.jpg	0	0	0	150.673455291602	150.72343326344	0.0499779718375066
20870	50	78	0	0	brownie	204	78	0	stimuli\brownie\brownie_03s.jpg	2	-1	0	0	brownie_03s.jpg	0	0	0	150.773454877126	150.82343577467	0.049980897543719
20970	50	79	0	0	cake_mix	238	79	0	stimuli\cake_mix\cake_mix_09s.jpg	8	-1	0	0	cake_mix_09s.jpg	0	0	0	150.87349030262	150.923450232571	0.049959929951001
21070	50	80	0	0	hubcap	809	80	0	stimuli\hubcap\hubcap_06s.jpg	5	-1	0	0	hubcap_06s.jpg	0	0	0	150.973492082427	151.023469566644	0.0499774842173792
21170	50	81	0	0	battery	97	81	0	stimuli\battery\battery_10s.jpg	9	-1	0	0	battery_10s.jpg	0	0	0	151.073491424133	151.123455742651	0.0499643185175955
21270	50	82	0	0	boa	150	82	0	stimuli\boa\boa_12s.jpg	11	-1	0	0	boa_12s.jpg	0	0	0	151.173472480164	151.223445331998	0.049972851833445
21370	50	83	0	0	mail	959	83	0	stimuli\mail\mail_01b.jpg	0	-1	0	0	mail_01b.jpg	0	0	0	151.273466458064	151.323452719414	0.0499862613505684
21470	50	84	0	0	snowshoe	1485	84	0	stimuli\snowshoe\snowshoe_12s.jpg	11	-1	0	0	snowshoe_12s.jpg	0	0	0	151.373472138832	151.423455962082	0.0499838232499314
21570	50	85	0	0	whistle	1812	85	0	stimuli\whistle\whistle_06s.jpg	5	-1	0	0	whistle_06s.jpg	0	0	0	151.473475381485	151.523454084745	0.0499787032604218
21670	50	86	0	0	pedal	1136	86	0	stimuli\pedal\pedal_07s.jpg	6	-1	0	0	pedal_07s.jpg	0	0	0	151.573475942248	151.623455620749	0.0499796785006765
21770	50	87	0	0	flag	605	87	0	stimuli\flag\flag_11s.jpg	10	-1	0	0	flag_11s.jpg	0	0	0	151.673475283969	151.723456425316	0.0499811413465068
21870	50	88	0	0	icepick	822	88	0	stimuli\icepick\icepick_04s.jpg	3	-1	0	0	icepick_04s.jpg	0	0	0	151.77347925806	151.823475759389	0.0499965013295878
21970	50	89	0	0	mousepad	1028	89	0	stimuli\mousepad\mousepad_12s.jpg	11	-1	0	0	mousepad_12s.jpg	0	0	0	151.873517365442	151.923493142996	0.0499757775542093
22070	50	90	0	0	dashboard	475	90	0	stimuli\dashboard\dashboard_11s.jpg	10	-1	0	0	dashboard_11s.jpg	0	0	0	151.973512806217	152.023493947563	0.0499811413465068
22170	50	91	0	0	coal	367	91	0	stimuli\coal\coal_11s.jpg	10	-1	0	0	coal_11s.jpg	0	0	0	152.073518243153	152.123485731194	0.0499674880411476
22270	50	92	0	0	paper_bag	1113	92	0	stimuli\paper_bag\paper_bag_08s.jpg	7	-1	0	0	paper_bag_08s.jpg	0	0	0	152.17349417918	152.223475808161	0.0499816289811861
22370	50	93	0	0	motherboard	1024	93	0	stimuli\motherboard\motherboard_09s.jpg	8	-1	0	0	motherboard_09s.jpg	0	0	0	152.273494739944	152.32350367555	0.0500089356064564
22470	50	94	0	0	gum	724	94	0	stimuli\gum\gum_08s.jpg	7	-1	0	0	gum_08s.jpg	0	0	0	152.373525045434	152.423492289658	0.0499672442238079
22570	50	95	0	0	bomb	160	95	0	stimuli\bomb\bomb_04s.jpg	3	-1	0	0	bomb_04s.jpg	0	0	0	152.47353194523	152.523490168518	0.0499582232878311
22670	50	96	0	0	dessert	481	96	0	stimuli\dessert\dessert_08s.jpg	7	-1	0	0	dessert_08s.jpg	0	0	0	152.573527386005	152.623490973085	0.0499635870801285
22770	50	97	0	0	forklift	635	97	0	stimuli\forklift\forklift_07s.jpg	6	-1	0	0	forklift_07s.jpg	0	0	0	152.673508198219	152.723494947175	0.0499867489561439
22870	50	98	0	0	fountain_pen	637	98	0	stimuli\fountain_pen\fountain_pen_03s.jpg	2	-1	0	0	fountain_pen_03s.jpg	0	0	0	152.773504614219	152.82348575558	0.0499811413610587
22970	50	99	0	0	chisel	336	99	0	stimuli\chisel\chisel_12s.jpg	11	-1	0	0	chisel_12s.jpg	0	0	0	152.873506637843	152.923487047767	0.0499804099235917
23070	50	100	0	0	totem_pole	1689	100	0	stimuli\totem_pole\totem_pole_01b.jpg	0	-1	0	0	totem_pole_01b.jpg	0	0	0	152.973511830976	153.023490534237	0.0499787032604218
23170	50	101	0	0	ram	1282	101	0	stimuli\ram\ram_04s.jpg	3	-1	0	0	ram_04s.jpg	0	0	0	153.073522387916	153.123492801664	0.04997041374736
23270	50	102	0	0	furnace	651	102	0	stimuli\furnace\furnace_11s.jpg	10	-1	0	0	furnace_11s.jpg	0	0	0	153.173513683927	153.223493362428	0.0499796785006765
23370	50	103	0	0	hoodie	792	103	0	stimuli\hoodie\hoodie_09s.jpg	8	-1	0	0	hoodie_09s.jpg	0	0	0	153.27351936468	153.323497580321	0.0499782156402944
23470	50	104	0	0	marker	975	104	0	stimuli\marker\marker_12s.jpg	11	-1	0	0	marker_12s.jpg	0	0	0	153.373522119728	153.423499360128	0.0499772404000396
23570	50	105	0	0	goldfish	688	105	0	stimuli\goldfish\goldfish_06s.jpg	5	-1	0	0	goldfish_06s.jpg	0	0	0	153.473522924294	153.523503578035	0.0499806537409313
23670	50	106	0	0	lavender	904	106	0	stimuli\lavender\lavender_08s.jpg	7	-1	0	0	lavender_08s.jpg	0	0	0	153.573527873625	153.623510234029	0.0499823604041012
23770	50	107	0	0	swizzle_stick	1601	107	0	stimuli\swizzle_stick\swizzle_stick_07s.jpg	6	-1	0	0	swizzle_stick_07s.jpg	0	0	0	153.673533066758	153.723511038595	0.0499779718375066
23870	50	108	0	0	boar	151	108	0	stimuli\boar\boar_10s.jpg	9	-1	0	0	boar_10s.jpg	0	0	0	153.773532408479	153.823514768868	0.0499823603895493
23970	50	109	0	0	stethoscope	1550	109	0	stimuli\stethoscope\stethoscope_05s.jpg	4	-1	0	0	stethoscope_05s.jpg	0	0	0	153.873534675906	153.923543123892	0.050008447986329
24070	50	110	0	0	trolley	1715	110	0	stimuli\trolley\trolley_06s.jpg	5	-1	0	0	trolley_06s.jpg	0	0	0	153.973547914749	154.023544659896	0.0499967451469274
24170	50	111	0	0	taxi	1630	111	0	stimuli\taxi\taxi_12s.jpg	11	-1	0	0	taxi_12s.jpg	0	0	0	154.073546281215	154.123521083529	0.0499748023139546
24270	50	112	0	0	engine	557	112	0	stimuli\engine\engine_10s.jpg	9	-1	0	0	engine_10s.jpg	0	0	0	154.173539527706	154.22352042525	0.049980897543719
24370	50	113	0	0	maple_syrup	971	113	0	stimuli\maple_syrup\maple_syrup_05s.jpg	4	-1	0	0	maple_syrup_05s.jpg	0	0	0	154.27353960085	154.323530250767	0.049990649917163
24470	50	114	0	0	celery	291	114	0	stimuli\celery\celery_08n.jpg	7	-1	0	0	celery_08n.jpg	0	0	0	154.373545525406	154.42352788581	0.0499823604041012
24570	50	115	0	0	cage	236	115	0	stimuli\cage\cage_03s.jpg	2	-1	0	0	cage_03s.jpg	0	0	0	154.47354706141	154.523529421815	0.0499823604041012
24670	50	116	0	0	scrabble	1385	116	0	stimuli\scrabble\scrabble_01b.jpg	0	-1	0	0	scrabble_01b.jpg	0	0	0	154.573554448827	154.623562409208	0.0500079603807535
24770	50	117	0	0	mitten	1008	117	0	stimuli\mitten\mitten_08s.jpg	7	-1	0	0	mitten_08s.jpg	0	0	0	154.67358085337	154.723562969972	0.0499821166013135
24870	50	118	0	0	horse	798	118	0	stimuli\horse\horse_01b.jpg	0	-1	0	0	horse_01b.jpg	0	0	0	154.773584827461	154.823568163105	0.049983335644356
24970	50	119	0	0	hearing_aid	770	119	0	stimuli\hearing_aid\hearing_aid_10s.jpg	9	-1	0	0	hearing_aid_10s.jpg	0	0	0	154.873589776791	154.923568967672	0.0499791908805491
25070	50	120	0	0	apple_tree	31	120	0	stimuli\apple_tree\apple_tree_01b.jpg	0	-1	0	0	apple_tree_01b.jpg	0	0	0	154.973573270909	155.023585132221	0.0500118613126688
25170	50	121	0	0	truck	1720	121	0	stimuli\truck\truck_07s.jpg	6	-1	0	0	truck_07s.jpg	0	0	0	155.073594555448	155.123575696809	0.0499811413610587
25270	50	122	0	0	dumpling	532	122	0	stimuli\dumpling\dumpling_01b.jpg	0	-1	0	0	dumpling_01b.jpg	0	0	0	155.173596091452	155.223573575669	0.0499774842173792
25370	50	123	0	0	sponge	1517	123	0	stimuli\sponge\sponge_02s.jpg	1	-1	0	0	sponge_02s.jpg	0	0	0	155.273596652216	155.323577793562	0.0499811413465068
25470	50	124	0	0	bracket	189	124	0	stimuli\bracket\bracket_01b.jpg	0	-1	0	0	bracket_01b.jpg	0	0	0	155.373584291083	155.423580304807	0.0499960137240123
25570	50	125	0	0	finger	588	125	0	stimuli\finger\finger_06s.jpg	5	-1	0	0	finger_06s.jpg	0	0	0	155.473603137536	155.523582084614	0.0499789470777614
25670	50	126	0	0	birdhouse	131	126	0	stimuli\birdhouse\birdhouse_06s.jpg	5	-1	0	0	birdhouse_06s.jpg	0	0	0	155.573606867823	155.623590447271	0.0499835794471437
25770	50	127	0	0	basketball_hoop	84	127	0	stimuli\basketball_hoop\basketball_hoop_11s.jpg	10	-1	0	0	basketball_hoop_11s.jpg	0	0	0	155.67360669715	155.723588082314	0.0499813851638464
25870	50	128	0	0	webcam	1799	128	0	stimuli\webcam\webcam_09s.jpg	8	-1	0	0	webcam_09s.jpg	0	0	0	155.773613109341	155.823575964998	0.0499628556572134
25970	50	129	0	0	berry	121	129	0	stimuli\berry\berry_07s.jpg	6	-1	0	0	berry_07s.jpg	0	0	0	155.873620252954	155.923579207665	0.0499589547107462
26070	50	130	0	0	drum	522	130	0	stimuli\drum\drum_08s.jpg	7	-1	0	0	drum_08s.jpg	0	0	0	155.973597895645	156.023600004584	0.0500021089392249
26170	50	131	0	0	chicken_wire	324	131	0	stimuli\chicken_wire\chicken_wire_01b.jpg	0	-1	0	0	chicken_wire_01b.jpg	0	0	0	156.073613084955	156.123577403472	0.0499643185175955
26270	50	132	0	0	torso	1685	132	0	stimuli\torso\torso_08s.jpg	7	-1	0	0	torso_08s.jpg	0	0	0	156.173595603832	156.223577476616	0.0499818727839738
26370	50	133	0	0	moth	1023	133	0	stimuli\moth\moth_01b.jpg	0	-1	0	0	moth_01b.jpg	0	0	0	156.273613718862	156.323583157369	0.0499694385071052
26470	50	134	0	0	pet_food	1157	134	0	stimuli\pet_food\pet_food_01b.jpg	0	-1	0	0	pet_food_01b.jpg	0	0	0	156.373630127229	156.423604929543	0.0499748023139546
26570	50	135	0	0	mattress	985	135	0	stimuli\mattress\mattress_12s.jpg	11	-1	0	0	mattress_12s.jpg	0	0	0	156.473627762272	156.523595981736	0.0499682194640627
26670	50	136	0	0	mosquito	1020	136	0	stimuli\mosquito\mosquito_05s.jpg	4	-1	0	0	mosquito_05s.jpg	0	0	0	156.573606867823	156.623579719657	0.049972851833445
26770	50	137	0	0	bat2	88	137	0	stimuli\bat2\bat2_07s.jpg	6	-1	0	0	bat2_07s.jpg	0	0	0	156.673602552401	156.723585156607	0.0499826042068889
26870	50	138	0	0	vial	1760	138	0	stimuli\vial\vial_04s.jpg	3	-1	0	0	vial_04s.jpg	0	0	0	156.773626031223	156.823591324981	0.0499652937578503
26970	50	139	0	0	binder	126	139	0	stimuli\binder\binder_06s.jpg	5	-1	0	0	binder_06s.jpg	0	0	0	156.873610012961	156.923588716221	0.0499787032604218
27070	50	140	0	0	twig	1740	140	0	stimuli\twig\twig_07s.jpg	6	-1	0	0	twig_07s.jpg	0	0	0	156.973607404201	157.023592934129	0.0499855299276533
27170	50	141	0	0	bookshelf	167	141	0	stimuli\bookshelf\bookshelf_02s.jpg	1	-1	0	0	bookshelf_02s.jpg	0	0	0	157.073633077322	157.123595201541	0.0499621242197463
27270	50	142	0	0	wetsuit	1803	142	0	stimuli\wetsuit\wetsuit_07s.jpg	6	-1	0	0	wetsuit_07s.jpg	0	0	0	157.173617302862	157.223597468968	0.049980166106252
27370	50	143	0	0	loom	946	143	0	stimuli\loom\loom_09s.jpg	8	-1	0	0	loom_09s.jpg	0	0	0	157.273619326472	157.323607294486	0.0499879680137383
27470	50	144	0	0	dartboard	474	144	0	stimuli\dartboard\dartboard_06s.jpg	5	-1	0	0	dartboard_06s.jpg	0	0	0	157.373625738663	157.423607367629	0.0499816289666342
27570	50	145	0	0	sweater	1592	145	0	stimuli\sweater\sweater_07s.jpg	6	-1	0	0	sweater_07s.jpg	0	0	0	157.473623861326	157.523608659816	0.0499847984901862
27670	50	146	0	0	steering_wheel	1546	146	0	stimuli\steering_wheel\steering_wheel_02s.jpg	1	-1	0	0	steering_wheel_02s.jpg	0	0	0	157.573625641133	157.623611414863	0.049985773730441
27770	50	147	0	0	polisher	1215	147	0	stimuli\polisher\polisher_03s.jpg	2	-1	0	0	polisher_03s.jpg	0	0	0	157.673628639983	157.723610756584	0.0499821166013135
27870	50	148	0	0	letter_opener	919	148	0	stimuli\letter_opener\letter_opener_07s.jpg	6	-1	0	0	letter_opener_07s.jpg	0	0	0	157.773631151227	157.823599370691	0.0499682194640627
27970	50	149	0	0	shell2	1418	149	0	stimuli\shell2\shell2_07s.jpg	6	-1	0	0	shell2_07s.jpg	0	0	0	157.873665845284	157.923648205688	0.0499823604041012
28070	50	150	0	0	snail	1476	150	0	stimuli\snail\snail_02s.jpg	1	-1	0	0	snail_02s.jpg	0	0	0	157.97366664985	158.023646815971	0.0499801661208039
28170	50	151	0	0	drumstick	523	151	0	stimuli\drumstick\drumstick_04s.jpg	3	-1	0	0	drumstick_04s.jpg	0	0	0	158.073615035435	158.123647620538	0.0500325851025991
28270	50	152	0	0	screen2	1389	152	0	stimuli\screen2\screen2_07s.jpg	6	-1	0	0	screen2_07s.jpg	0	0	0	158.173668258998	158.223625750848	0.049957491850364
28370	50	153	0	0	bouquet	173	153	0	stimuli\bouquet\bouquet_07s.jpg	6	-1	0	0	bouquet_07s.jpg	0	0	0	158.273645414069	158.323628018275	0.0499826042068889
28470	50	154	0	0	pulley	1250	154	0	stimuli\pulley\pulley_01b.jpg	0	-1	0	0	pulley_01b.jpg	0	0	0	158.373652313865	158.423657348525	0.0500050346599892
28570	50	155	0	0	amber	18	155	0	stimuli\amber\amber_09s.jpg	8	-1	0	0	amber_09s.jpg	0	0	0	158.473678962211	158.523659859769	0.049980897558271
28670	50	156	0	0	beetle	115	156	0	stimuli\beetle\beetle_02n.jpg	1	-1	0	0	beetle_02n.jpg	0	0	0	158.573680742033	158.623660420519	0.0499796784861246
28770	50	157	0	0	go-kart	682	157	0	stimuli\go-kart\go-kart_09s.jpg	8	-1	0	0	go-kart_09s.jpg	0	0	0	158.673687398012	158.723671708896	0.0499843108846107
28870	50	158	0	0	statue	1543	158	0	stimuli\statue\statue_10s.jpg	9	-1	0	0	statue_10s.jpg	0	0	0	158.773684057829	158.82366422395	0.0499801661208039
28970	50	159	0	0	rolling_pin	1328	159	0	stimuli\rolling_pin\rolling_pin_01b.jpg	0	-1	0	0	rolling_pin_01b.jpg	0	0	0	158.873694858587	158.923669417083	0.0499745584966149
29070	50	160	0	0	highchair	777	160	0	stimuli\highchair\highchair_06s.jpg	5	-1	0	0	highchair_06s.jpg	0	0	0	158.973662261284	159.023669002607	0.0500067413231591
29170	50	161	0	0	ladybug	888	161	0	stimuli\ladybug\ladybug_08s.jpg	7	-1	0	0	ladybug_08s.jpg	0	0	0	159.073660383947	159.123672976697	0.0500125927501358
29270	50	162	0	0	gravy	711	162	0	stimuli\gravy\gravy_10s.jpg	9	-1	0	0	gravy_10s.jpg	0	0	0	159.173693127537	159.223673293658	0.0499801661208039
29370	50	163	0	0	beet	114	163	0	stimuli\beet\beet_04s.jpg	3	-1	0	1	beet_04s.jpg	0	0	0	159.273697589248	159.323677999171	0.0499804099235917
29470	50	164	0	0	raccoon	1266	164	0	stimuli\raccoon\raccoon_04n.jpg	3	-1	0	0	raccoon_04n.jpg	0	0	0	159.373697662391	159.423686118025	0.0499884556338657
29570	50	165	0	0	silicone	1444	165	0	stimuli\silicone\silicone_04s.jpg	3	-1	0	0	silicone_04s.jpg	0	0	0	159.473700905044	159.523682534025	0.0499816289811861
29670	50	166	0	0	flower	619	166	0	stimuli\flower\flower_01b.jpg	0	-1	0	0	flower_01b.jpg	0	0	0	159.573702684866	159.623685289072	0.0499826042068889
29770	50	167	0	0	pomegranate	1219	167	0	stimuli\pomegranate\pomegranate_02s.jpg	1	-1	0	0	pomegranate_02s.jpg	1	0.408026737102773	1	159.673707146561	159.723687068879	0.0499799223180162
29870	50	168	0	0	leggings	912	168	0	stimuli\leggings\leggings_12s.jpg	11	-1	0	0	leggings_12s.jpg	0	0	0	159.773711852089	159.823686898206	0.0499750461167423
29970	50	169	0	0	fox	638	169	0	stimuli\fox\fox_04s.jpg	3	-1	0	0	fox_04s.jpg	0	0	0	159.873714850939	159.923691116113	0.0499762651743367
30070	50	170	0	0	pasta	1123	170	0	stimuli\pasta\pasta_02s.jpg	1	-1	0	0	pasta_02s.jpg	0	0	0	159.973712242179	160.023695090204	0.0499828480242286
30170	50	171	0	0	top_hat	1682	171	0	stimuli\top_hat\top_hat_12s.jpg	11	-1	0	0	top_hat_12s.jpg	0	0	0	160.073719873413	160.123700039534	0.0499801661208039
30270	50	172	0	0	banana	63	172	0	stimuli\banana\banana_06s.jpg	5	-1	0	0	banana_06s.jpg	0	0	0	160.173717508456	160.223697918394	0.0499804099381436
30370	50	173	0	0	telephone_pole	1639	173	0	stimuli\telephone_pole\telephone_pole_04s.jpg	3	-1	0	0	telephone_pole_04s.jpg	0	0	0	160.27372416445	160.323700673427	0.0499765089771245
30470	50	174	0	0	knob	882	174	0	stimuli\knob\knob_04s.jpg	3	-1	0	0	knob_04s.jpg	0	0	0	160.373721311887	160.423703184671	0.0499818727839738
30570	50	175	0	0	honey	788	175	0	stimuli\honey\honey_02s.jpg	1	-1	0	0	honey_02s.jpg	0	0	0	160.473723579315	160.523686191169	0.0499626118544256
30670	50	176	0	0	apple	30	176	0	stimuli\apple\apple_11s.jpg	10	-1	0	0	apple_11s.jpg	0	0	0	160.573707561038	160.623686751918	0.0499791908805491
30770	50	177	0	0	scaffolding	1370	177	0	stimuli\scaffolding\scaffolding_11s.jpg	10	-1	0	0	scaffolding_11s.jpg	0	0	0	160.673717874175	160.723718276466	0.0500004022906069
30870	50	178	0	0	green_beans	712	178	0	stimuli\green_beans\green_beans_05s.jpg	4	-1	0	0	green_beans_05s.jpg	0	0	0	160.773745985382	160.823704696289	0.0499587109079584
30970	50	179	0	0	quiche	1262	179	0	stimuli\quiche\quiche_06s.jpg	5	-1	0	0	quiche_06s.jpg	0	0	0	160.873725090933	160.923705257053	0.0499801661208039
31070	50	180	0	0	hookah	795	180	0	stimuli\hookah\hookah_07s.jpg	6	-1	0	0	hookah_07s.jpg	0	0	0	160.973721019313	161.023693871161	0.0499728518479969
31170	50	181	0	0	noodle	1061	181	0	stimuli\noodle\noodle_06s.jpg	5	-1	0	0	noodle_06s.jpg	0	0	0	161.073706220093	161.123696626193	0.0499904060998233
31270	50	182	0	0	air_mattress	5	182	0	stimuli\air_mattress\air_mattress_11s.jpg	10	-1	0	0	air_mattress_11s.jpg	0	0	0	161.173718727514	161.22369889362	0.049980166106252
31370	50	183	0	0	cement_mixer	294	183	0	stimuli\cement_mixer\cement_mixer_10s.jpg	9	-1	0	0	cement_mixer_10s.jpg	0	0	0	161.273719775883	161.323701648667	0.0499818727839738
31470	50	184	0	0	dragonfly	514	184	0	stimuli\dragonfly\dragonfly_01b.jpg	0	-1	0	0	dragonfly_01b.jpg	0	0	0	161.373726675694	161.423705866575	0.0499791908805491
31570	50	185	0	0	doorknocker	510	185	0	stimuli\doorknocker\doorknocker_05s.jpg	4	-1	0	0	doorknocker_05s.jpg	0	0	0	161.473726505021	161.523705695901	0.0499791908805491
31670	50	186	0	0	mosquito_net	1021	186	0	stimuli\mosquito_net\mosquito_net_11s.jpg	10	-1	0	0	mosquito_net_11s.jpg	0	0	0	161.573728041025	161.623708450948	0.0499804099235917
31770	50	187	0	0	nail_polish	1049	187	0	stimuli\nail_polish\nail_polish_04s.jpg	3	-1	0	0	nail_polish_04s.jpg	0	0	0	161.673730796072	161.723709255515	0.0499784594430821
31870	50	188	0	0	glass	677	188	0	stimuli\glass\glass_02s.jpg	1	-1	0	0	glass_02s.jpg	0	0	0	161.773733063499	161.823715180086	0.0499821165867615
31970	50	189	0	0	gavel	665	189	0	stimuli\gavel\gavel_11s.jpg	10	-1	0	0	gavel_11s.jpg	0	0	0	161.873733380446	161.923717691316	0.0499843108700588
32070	50	190	0	0	doll	499	190	0	stimuli\doll\doll_04s.jpg	3	-1	0	0	doll_04s.jpg	0	0	0	161.97374101168	162.023724347309	0.0499833356298041
32170	50	191	0	0	seed	1401	191	0	stimuli\seed\seed_08s.jpg	7	-1	0	1	seed_08s.jpg	0	0	0	162.073760589556	162.123735148067	0.0499745585111668
32270	50	192	0	0	pliers	1201	192	0	stimuli\pliers\pliers_10s.jpg	9	-1	0	0	pliers_10s.jpg	0	0	0	162.173772853159	162.22378739639	0.0500145432306454
32370	50	193	0	0	frog	644	193	0	stimuli\frog\frog_11s.jpg	10	-1	0	0	frog_11s.jpg	0	0	0	162.273775120586	162.323754799087	0.0499796785006765
32470	50	194	0	0	mistletoe	1007	194	0	stimuli\mistletoe\mistletoe_07s.jpg	6	-1	0	0	mistletoe_07s.jpg	0	0	0	162.37377568135	162.423758773177	0.0499830918270163
32570	50	195	0	0	fuse	652	195	0	stimuli\fuse\fuse_07s.jpg	6	-1	0	0	fuse_07s.jpg	0	0	0	162.47378014306	162.523758602518	0.049978459457634
32670	50	196	0	0	toilet_paper	1671	196	0	stimuli\toilet_paper\toilet_paper_04s.jpg	3	-1	0	0	toilet_paper_04s.jpg	1	0.492175551436958	1	162.57378460477	162.623746241385	0.0499616366141709
32770	50	197	0	0	praying_mantis	1238	197	0	stimuli\praying_mantis\praying_mantis_02s.jpg	1	-1	0	0	praying_mantis_02s.jpg	0	0	0	162.673784921717	162.723764600218	0.0499796785006765
32870	50	198	0	0	wine	1823	198	0	stimuli\wine\wine_08s.jpg	7	-1	0	0	wine_08s.jpg	0	0	0	162.773778412011	162.823745412432	0.0499670004210202
32970	50	199	0	0	shredder	1437	199	0	stimuli\shredder\shredder_04s.jpg	3	-1	0	0	shredder_04s.jpg	0	0	0	162.873775315631	162.923772792215	0.0499974765843945
33070	50	200	0	0	cupcake	461	200	0	stimuli\cupcake\cupcake_08s.jpg	7	-1	0	0	cupcake_08s.jpg	0	0	0	162.973793186859	163.02375311681	0.049959929951001
33170	50	201	0	0	gourd	696	201	0	stimuli\gourd\gourd_02s.jpg	1	-1	0	0	gourd_02s.jpg	0	0	0	163.073793016185	163.123750264233	0.0499572480475763
33270	50	202	0	0	bench	120	202	0	stimuli\bench\bench_09s.jpg	8	-1	0	0	bench_09s.jpg	0	0	0	163.173771390313	163.22374741167	0.0499760213569971
33370	50	203	0	0	water_bottle	1787	203	0	stimuli\water_bottle\water_bottle_01b.jpg	0	-1	0	0	water_bottle_01b.jpg	0	0	0	163.273770975837	163.32375187338	0.049980897543719
33470	50	204	0	0	ring	1313	204	0	stimuli\ring\ring_06s.jpg	5	-1	0	0	ring_06s.jpg	0	0	0	163.373771292783	163.423751215087	0.0499799223034643
33570	50	205	0	0	muffin	1035	205	0	stimuli\muffin\muffin_06n.jpg	5	-1	0	0	muffin_06n.jpg	0	0	0	163.47378014306	163.523758846321	0.0499787032604218
33670	50	206	0	0	sofa_bed	1492	206	0	stimuli\sofa_bed\sofa_bed_04s.jpg	3	-1	0	0	sofa_bed_04s.jpg	0	0	0	163.573780216204	163.623763551834	0.0499833356298041
33770	50	207	0	0	bungee	221	207	0	stimuli\bungee\bungee_06s.jpg	5	-1	0	0	bungee_06s.jpg	0	0	0	163.673779070305	163.723763137357	0.0499840670527192
33870	50	208	0	0	snowman	1482	208	0	stimuli\snowman\snowman_06s.jpg	5	-1	0	0	snowman_06s.jpg	0	0	0	163.773786213904	163.823762722881	0.0499765089771245
33970	50	209	0	0	pincushion	1179	209	0	stimuli\pincushion\pincushion_07s.jpg	6	-1	0	0	pincushion_07s.jpg	0	0	0	163.873784336582	163.923766209366	0.0499818727839738
34070	50	210	0	0	ice-cream_cone	817	210	0	stimuli\ice-cream_cone\ice-cream_cone_08s.jpg	7	-1	0	0	ice-cream_cone_08s.jpg	0	0	0	163.973788554475	164.023770671076	0.0499821166013135
34170	50	211	0	0	goblet	685	211	0	stimuli\goblet\goblet_03s.jpg	2	-1	0	0	goblet_03s.jpg	0	0	0	164.073811058071	164.1237702566	0.0499591985280858
34270	50	212	0	0	cantaloupe	263	212	0	stimuli\cantaloupe\cantaloupe_10s.jpg	9	-1	0	1	cantaloupe_10s.jpg	0	0	0	164.173792357906	164.22377471831	0.0499823604041012
34370	50	213	0	0	gold	687	213	0	stimuli\gold\gold_07s.jpg	6	-1	0	0	gold_07s.jpg	0	0	0	164.273795600573	164.323775766679	0.049980166106252
34470	50	214	0	0	broccoli	201	214	0	stimuli\broccoli\broccoli_05s.jpg	4	-1	0	0	broccoli_05s.jpg	0	0	0	164.373827856529	164.42380802265	0.0499801661208039
34570	50	215	0	0	weed	1802	215	0	stimuli\weed\weed_06s.jpg	5	-1	0	0	weed_06s.jpg	1	0.292240989845595	1	164.47381403255	164.523798099617	0.0499840670672711
34670	50	216	0	0	grapefruit	703	216	0	stimuli\grapefruit\grapefruit_07s.jpg	6	-1	0	0	grapefruit_07s.jpg	0	0	0	164.57383775519	164.623813532744	0.0499757775542093
34770	50	217	0	0	llama	938	217	0	stimuli\llama\llama_10s.jpg	9	-1	0	0	llama_10s.jpg	0	0	0	164.673833927387	164.723816531594	0.0499826042068889
34870	50	218	0	0	spear	1510	218	0	stimuli\spear\spear_05s.jpg	4	-1	0	0	spear_05s.jpg	0	0	0	164.773820103394	164.823796856188	0.0499767527944641
34970	50	219	0	0	punching_bag	1256	219	0	stimuli\punching_bag\punching_bag_12s.jpg	11	-1	0	0	punching_bag_12s.jpg	0	0	0	164.873811643221	164.923791565525	0.0499799223034643
35070	50	220	0	0	parrot	1121	220	0	stimuli\parrot\parrot_10s.jpg	9	-1	0	0	parrot_10s.jpg	0	0	0	164.973817567778	165.023792613909	0.0499750461312942
35170	50	221	0	0	quilt	1264	221	0	stimuli\quilt\quilt_02s.jpg	1	-1	0	0	quilt_02s.jpg	0	0	0	165.073860063727	165.123828770811	0.0499687070841901
35270	50	222	0	0	medal	991	222	0	stimuli\medal\medal_11s.jpg	10	-1	0	0	medal_11s.jpg	0	0	0	165.173854773078	165.223833963959	0.0499791908805491
35370	50	223	0	0	pigeon	1171	223	0	stimuli\pigeon\pigeon_03s.jpg	2	-1	0	0	pigeon_03s.jpg	0	0	0	165.273852895742	165.323834768526	0.0499818727839738
35470	50	224	0	0	camera_lens	248	224	0	stimuli\camera_lens\camera_lens_03s.jpg	2	-1	0	0	camera_lens_03s.jpg	0	0	0	165.373837121282	165.423834841669	0.0499977203871822
35570	50	225	0	0	hotplate	806	225	0	stimuli\hotplate\hotplate_03s.jpg	2	-1	0	0	hotplate_03s.jpg	0	0	0	165.473856942976	165.523835646236	0.0499787032604218
35670	50	226	0	0	tadpole	1614	226	0	stimuli\tadpole\tadpole_06s.jpg	5	-1	0	0	tadpole_06s.jpg	0	0	0	165.573859941826	165.623840839369	0.049980897543719
35770	50	227	0	0	pitcher	1190	227	0	stimuli\pitcher\pitcher_03s.jpg	2	-1	0	0	pitcher_03s.jpg	0	0	0	165.673847093087	165.723843838234	0.0499967451469274
35870	50	228	0	0	aircraft_carrier	9	228	0	stimuli\aircraft_carrier\aircraft_carrier_02s.jpg	1	-1	0	0	aircraft_carrier_02s.jpg	0	0	0	165.773863501439	165.823845861843	0.0499823604041012
35970	50	229	0	0	brush	205	229	0	stimuli\brush\brush_10s.jpg	9	-1	0	0	brush_10s.jpg	0	0	0	165.873864549823	165.92384764165	0.0499830918270163
36070	50	230	0	0	swordfish	1603	230	0	stimuli\swordfish\swordfish_06s.jpg	5	-1	0	0	swordfish_06s.jpg	0	0	0	165.973868767731	166.023847714794	0.0499789470632095
36170	50	231	0	0	chessboard	318	231	0	stimuli\chessboard\chessboard_09s.jpg	8	-1	0	0	chessboard_09s.jpg	0	0	0	166.0738698161	166.123852176504	0.0499823604041012
36270	50	232	0	0	wood	1833	232	0	stimuli\wood\wood_10s.jpg	9	-1	0	0	wood_10s.jpg	0	0	0	166.173862331154	166.223853712509	0.04999138135463
36370	50	233	0	0	rust	1342	233	0	stimuli\rust\rust_04s.jpg	3	-1	0	0	rust_04s.jpg	0	0	0	166.273874350954	166.323857442781	0.0499830918270163
36470	50	234	0	0	triangle	1710	234	0	stimuli\triangle\triangle_02s.jpg	1	-1	0	0	triangle_02s.jpg	0	0	0	166.373876618381	166.423857759743	0.0499811413610587
36570	50	235	0	0	chili	327	235	0	stimuli\chili\chili_11s.jpg	10	-1	0	0	chili_11s.jpg	0	0	0	166.473881567712	166.523849543359	0.0499679756467231
36670	50	236	0	0	tank1	1620	236	0	stimuli\tank1\tank1_09s.jpg	8	-1	0	0	tank1_09s.jpg	0	0	0	166.573857747542	166.623834744139	0.0499769965972519
36770	50	237	0	0	cookie_cutter	401	237	0	stimuli\cookie_cutter\cookie_cutter_11s.jpg	10	-1	0	1	cookie_cutter_11s.jpg	0	0	0	166.673857820686	166.723836523946	0.0499787032604218
36870	50	238	0	0	pinwheel	1185	238	0	stimuli\pinwheel\pinwheel_08s.jpg	7	-1	0	0	pinwheel_08s.jpg	0	0	0	166.773861063353	166.823847812324	0.0499867489706958
36970	50	239	0	0	paper_plate	1114	239	0	stimuli\paper_plate\paper_plate_11s.jpg	10	-1	0	0	paper_plate_11s.jpg	0	0	0	166.873870157433	166.923858125447	0.0499879680137383
37070	50	240	0	0	patty	1126	240	0	stimuli\patty\patty_10s.jpg	9	-1	0	0	patty_10s.jpg	1	0.341953697206918	1	166.97389461151	167.023849665275	0.049955053764279
37170	50	241	0	0	teabag	1632	241	0	stimuli\teabag\teabag_03s.jpg	2	-1	0	0	teabag_03s.jpg	0	0	0	167.073871522764	167.123850957461	0.0499794346978888
37270	50	242	0	0	staple_gun	1538	242	0	stimuli\staple_gun\staple_gun_04s.jpg	3	-1	0	0	staple_gun_04s.jpg	0	0	0	167.173857698785	167.223880043908	0.0500223451235797
37370	50	243	0	0	garter	659	243	0	stimuli\garter\garter_01b.jpg	0	-1	0	0	garter_01b.jpg	0	0	0	167.273902389017	167.323882311335	0.0499799223180162
37470	50	244	0	0	harp	755	244	0	stimuli\harp\harp_08s.jpg	7	-1	0	0	harp_08s.jpg	0	0	0	167.373883445049	167.423858734968	0.04997528991953
37570	50	245	0	0	inkwell	830	245	0	stimuli\inkwell\inkwell_02s.jpg	1	-1	0	0	inkwell_02s.jpg	0	0	0	167.473879617231	167.523857101449	0.0499774842173792
37670	50	246	0	0	denture	478	246	0	stimuli\denture\denture_08s.jpg	7	-1	0	0	denture_08s.jpg	0	0	0	167.573880177995	167.623880824089	0.0500006460933946
37770	50	247	0	0	pelican	1140	247	0	stimuli\pelican\pelican_10s.jpg	9	-1	0	0	pelican_10s.jpg	0	0	0	167.673882445422	167.723912836242	0.0500303908193018
37870	50	248	0	0	roller	1324	248	0	stimuli\roller\roller_11s.jpg	10	-1	0	0	roller_11s.jpg	0	0	0	167.773894709026	167.823901206546	0.0500064975203713
37970	50	249	0	0	notepad	1065	249	0	stimuli\notepad\notepad_02s.jpg	1	-1	0	0	notepad_02s.jpg	0	0	0	167.873915993579	167.92388104352	0.0499650499405107
38070	50	250	0	0	rattle	1287	250	0	stimuli\rattle\rattle_08s.jpg	7	-1	0	0	rattle_08s.jpg	0	0	0	167.973936302893	168.023869901444	0.0499335985514335
38170	50	251	0	0	walker2	1774	251	0	stimuli\walker2\walker2_02s.jpg	1	-1	0	0	walker2_02s.jpg	0	0	0	168.073900048446	168.123871681251	0.0499716328049544
38270	50	252	0	0	walrus	1779	252	0	stimuli\walrus\walrus_12s.jpg	11	-1	0	0	walrus_12s.jpg	0	0	0	168.173893782558	168.223892721988	0.0499989394302247
38370	50	253	0	0	snowboard	1481	253	0	stimuli\snowboard\snowboard_04s.jpg	3	-1	0	0	snowboard_04s.jpg	0	0	0	168.273901169974	168.323890844651	0.0499896746769082
38470	50	254	0	0	magnet	956	254	0	stimuli\magnet\magnet_03s.jpg	2	-1	0	0	magnet_03s.jpg	0	0	0	168.373899536455	168.423881165421	0.0499816289666342
38570	50	255	0	0	plug	1202	255	0	stimuli\plug\plug_01b.jpg	0	-1	0	0	plug_01b.jpg	0	0	0	168.473907411491	168.523874168095	0.0499667566036806
38670	50	256	0	0	chest2	320	256	0	stimuli\chest2\chest2_11s.jpg	10	-1	0	0	chest2_11s.jpg	0	0	0	168.573934791275	168.623913494535	0.0499787032604218
38770	50	257	0	0	skateboard	1449	257	0	stimuli\skateboard\skateboard_12s.jpg	11	-1	0	1	skateboard_12s.jpg	0	0	0	168.673952906305	168.723882847713	0.0499299414077541
38870	50	258	0	0	seismograph	1403	258	0	stimuli\seismograph\seismograph_02s.jpg	1	-1	0	0	seismograph_02s.jpg	0	0	0	168.773944202301	168.823920955096	0.0499767527944641
38970	50	259	0	0	sweeper	1594	259	0	stimuli\sweeper\sweeper_08s.jpg	7	-1	0	0	sweeper_08s.jpg	0	0	0	168.873936961172	168.923924929186	0.0499879680137383
39070	50	260	0	0	goose	693	260	0	stimuli\goose\goose_06s.jpg	5	-1	0	0	goose_06s.jpg	1	0.292150536610279	1	168.973942641926	169.023930366136	0.0499877242109505
39170	50	261	0	0	locker	941	261	0	stimuli\locker\locker_10s.jpg	9	-1	0	0	locker_10s.jpg	0	0	0	169.073945884593	169.12390118216	0.0499552975670667
39270	50	262	0	0	tick	1656	262	0	stimuli\tick\tick_07s.jpg	6	-1	0	0	tick_07s.jpg	0	0	0	169.17392035776	169.223935388611	0.0500150308507727
39370	50	263	0	0	pheasant	1160	263	0	stimuli\pheasant\pheasant_08s.jpg	7	-1	0	0	pheasant_08s.jpg	0	0	0	169.273936766127	169.323930829371	0.0499940632435028
39470	50	264	0	0	sandpaper	1356	264	0	stimuli\sandpaper\sandpaper_04s.jpg	3	-1	0	0	sandpaper_04s.jpg	0	0	0	169.373965852574	169.423937485364	0.0499716327904025
39570	50	265	0	0	jack	835	265	0	stimuli\jack\jack_02s.jpg	1	-1	0	0	jack_02s.jpg	0	0	0	169.47394544573	169.523915371858	0.0499699261272326
39670	50	266	0	0	balance_beam	58	266	0	stimuli\balance_beam\balance_beam_09s.jpg	8	-1	0	0	balance_beam_09s.jpg	0	0	0	169.573933328415	169.623917639285	0.0499843108700588
39770	50	267	0	0	typewriter	1741	267	0	stimuli\typewriter\typewriter_04s.jpg	3	-1	0	0	typewriter_04s.jpg	0	0	0	169.673931207275	169.723919906712	0.0499886994366534
39870	50	268	0	0	golf_club	690	268	0	stimuli\golf_club\golf_club_08s.jpg	7	-1	0	0	golf_club_08s.jpg	0	0	0	169.773938838509	169.823921686519	0.0499828480096767
39970	50	269	0	0	cape	266	269	0	stimuli\cape\cape_12s.jpg	11	-1	0	0	cape_12s.jpg	0	0	0	169.873943300219	169.923916395855	0.0499730956362328
40070	50	270	0	0	stingray	1556	270	0	stimuli\stingray\stingray_02s.jpg	1	-1	0	0	stingray_02s.jpg	0	0	0	169.973956295245	170.023933779463	0.0499774842173792
40170	50	271	0	0	eraser	559	271	0	stimuli\eraser\eraser_03s.jpg	2	-1	0	0	eraser_03s.jpg	0	0	0	170.073955636966	170.123939704034	0.0499840670672711
40270	50	272	0	0	gyroscope	731	272	0	stimuli\gyroscope\gyroscope_10s.jpg	9	-1	0	0	gyroscope_10s.jpg	0	0	0	170.173960586297	170.22396586476	0.0500052784627769
40370	50	273	0	0	coffeemaker	382	273	0	stimuli\coffeemaker\coffeemaker_07s.jpg	6	-1	0	0	coffeemaker_07s.jpg	0	0	0	170.273965535613	170.323988124539	0.0500225889263675
40470	50	274	0	0	bike	123	274	0	stimuli\bike\bike_07s.jpg	6	-1	0	0	bike_07s.jpg	0	0	0	170.373985113503	170.423951626304	0.0499665128008928
40570	50	275	0	0	machine_gun	954	275	0	stimuli\machine_gun\machine_gun_06s.jpg	5	-1	0	0	machine_gun_06s.jpg	0	0	0	170.473986649493	170.523966327994	0.0499796785006765
40670	50	276	0	0	shopping_basket	1427	276	0	stimuli\shopping_basket\shopping_basket_06s.jpg	5	-1	0	0	shopping_basket_06s.jpg	0	0	0	170.57398940454	170.623961524951	0.0499721204105299
40770	50	277	0	0	plaster_cast	1195	277	0	stimuli\plaster_cast\plaster_cast_11s.jpg	10	-1	0	0	plaster_cast_11s.jpg	0	0	0	170.673972167235	170.723948920015	0.0499767527799122
40870	50	278	0	0	crayon	435	278	0	stimuli\crayon\crayon_01b.jpg	0	-1	0	0	crayon_01b.jpg	0	0	0	170.773971508941	170.823950456019	0.0499789470777614
40970	50	279	0	0	broom	203	279	0	stimuli\broom\broom_07s.jpg	6	-1	0	0	broom_07s.jpg	0	0	0	170.873974995411	170.923956136772	0.0499811413610587
41070	50	280	0	0	blazer	137	280	0	stimuli\blazer\blazer_04s.jpg	3	-1	0	0	blazer_04s.jpg	0	0	0	170.973978238078	171.023956453719	0.0499782156402944
41170	50	281	0	0	roll	1323	281	0	stimuli\roll\roll_04s.jpg	3	-1	0	0	roll_04s.jpg	1	0	0	171.073984894072	171.123958721146	0.0499738270736998
41270	50	282	0	0	drain	515	282	0	stimuli\drain\drain_02s.jpg	1	-1	0	0	drain_02s.jpg	0	0	0	171.173988136739	171.223965620957	0.0499774842173792
41370	50	283	0	0	cot	420	283	0	stimuli\cot\cot_10s.jpg	9	-1	0	0	cot_10s.jpg	0	0	0	171.27399211083	171.32397130171	0.0499791908805491
41470	50	284	0	0	spur	1525	284	0	stimuli\spur\spur_11s.jpg	10	-1	0	0	spur_11s.jpg	0	0	0	171.37399047731	171.42399551197	0.0500050346599892
41570	50	285	0	0	scrambled_egg	1386	285	0	stimuli\scrambled_egg\scrambled_egg_07s.jpg	6	-1	0	0	scrambled_egg_07s.jpg	0	0	0	171.47401468757	171.523978518468	0.0499638308974681
41670	50	286	0	0	blouse	144	286	0	stimuli\blouse\blouse_07s.jpg	6	-1	0	0	blouse_07s.jpg	0	0	0	171.574014760714	171.623997608724	0.0499828480096767
41770	50	287	0	0	snake	1477	287	0	stimuli\snake\snake_05s.jpg	4	-1	0	0	snake_05s.jpg	0	0	0	171.674023367174	171.723997925685	0.0499745585111668
41870	50	288	0	0	leech	909	288	0	stimuli\leech\leech_06s.jpg	5	-1	0	0	leech_06s.jpg	0	0	0	171.774019051751	171.824001899775	0.0499828480242286
41970	50	289	0	0	paint	1096	289	0	stimuli\paint\paint_10s.jpg	9	-1	0	0	paint_10s.jpg	0	0	0	171.874028877268	171.924003679582	0.0499748023139546
42070	50	290	0	0	chin	330	290	0	stimuli\chin\chin_10s.jpg	9	-1	0	0	chin_10s.jpg	0	0	0	171.974013346611	172.024007897475	0.0499945508636301
42170	50	291	0	0	dagger	469	291	0	stimuli\dagger\dagger_12s.jpg	11	-1	0	0	dagger_12s.jpg	0	0	0	172.074015370235	172.123995780159	0.0499804099235917
42270	50	292	0	0	tablet	1610	292	0	stimuli\tablet\tablet_04s.jpg	3	-1	0	0	tablet_04s.jpg	0	0	0	172.174032022405	172.22399414664	0.0499621242342982
42370	50	293	0	0	chick	321	293	0	stimuli\chick\chick_06s.jpg	5	-1	0	0	chick_06s.jpg	0	0	0	172.274037946961	172.324013480713	0.0499755337514216
42470	50	294	0	0	teapot	1634	294	0	stimuli\teapot\teapot_04s.jpg	3	-1	0	0	teapot_04s.jpg	0	0	0	172.37403704488	172.42401574814	0.0499787032604218
42570	50	295	0	0	toucan	1690	295	0	stimuli\toucan\toucan_03s.jpg	2	-1	0	0	toucan_03s.jpg	0	0	0	172.474040043729	172.52400606891	0.0499660251807654
42670	50	296	0	0	harness	754	296	0	stimuli\harness\harness_02s.jpg	1	-1	0	0	harness_02s.jpg	0	0	0	172.574024025453	172.62402174584	0.0499977203871822
42770	50	297	0	0	juicer2	856	297	0	stimuli\juicer2\juicer2_05s.jpg	4	-1	0	0	juicer2_05s.jpg	0	0	0	172.674044334766	172.724021818984	0.0499774842173792
42870	50	298	0	0	curb	462	298	0	stimuli\curb\curb_11s.jpg	10	-1	0	0	curb_11s.jpg	0	0	0	172.774031973648	172.824009214048	0.0499772404000396
42970	50	299	0	0	whisk	1811	299	0	stimuli\whisk\whisk_01b.jpg	0	-1	0	0	whisk_01b.jpg	0	0	0	172.874030096311	172.924011969095	0.0499818727839738
43070	50	300	0	0	spider_web	1514	300	0	stimuli\spider_web\spider_web_11s.jpg	10	-1	0	0	spider_web_11s.jpg	0	0	0	172.974031144695	173.024030815548	0.0499996708531398
43170	50	301	0	0	cinnamon	348	301	0	stimuli\cinnamon\cinnamon_04s.jpg	3	-1	0	0	cinnamon_04s.jpg	0	0	0	173.074047065427	173.124034789638	0.0499877242109505
43270	50	302	0	0	headband	762	302	0	stimuli\headband\headband_08s.jpg	7	-1	0	0	headband_08s.jpg	0	0	0	173.174057866185	173.224020234222	0.049962368037086
43370	50	303	0	0	stamp2	1536	303	0	stimuli\stamp2\stamp2_01b.jpg	0	-1	0	0	stamp2_01b.jpg	0	0	0	173.274057939328	173.324037861632	0.0499799223034643
43470	50	304	0	0	tricycle	1711	304	0	stimuli\tricycle\tricycle_02s.jpg	1	-1	0	0	tricycle_02s.jpg	0	0	0	173.374059719135	173.424041591919	0.0499818727839738
43570	50	305	0	0	chair	300	305	0	stimuli\chair\chair_05s.jpg	4	-1	0	0	chair_05s.jpg	0	0	0	173.474063937028	173.524043615529	0.0499796785006765
43670	50	306	0	0	mouse1	1026	306	0	stimuli\mouse1\mouse1_03s.jpg	2	-1	0	0	mouse1_03s.jpg	0	0	0	173.574070593022	173.6240495401	0.0499789470777614
43770	50	307	0	0	cleaver	354	307	0	stimuli\cleaver\cleaver_03s.jpg	2	-1	0	0	cleaver_03s.jpg	0	0	0	173.67405359952	173.72405156371	0.0499979641899699
43870	50	308	0	0	mask	980	308	0	stimuli\mask\mask_10s.jpg	9	-1	0	0	mask_10s.jpg	0	0	0	173.77407780978	173.82405090543	0.0499730956507847
51270	50	309	0	0	mantle	969	0	1	stimuli\mantle\mantle_06s.jpg	5	-1	1	0	mantle_06s.jpg	0	0	0	181.174250963115	181.224233323519	0.0499823604041012
51370	50	310	0	0	magnifying_glass	958	1	1	stimuli\magnifying_glass\magnifying_glass_09s.jpg	8	-1	1	0	magnifying_glass_09s.jpg	0	0	0	181.274255181008	181.324235834749	0.0499806537409313
51470	50	311	0	0	magnifier	957	2	1	stimuli\magnifier\magnifier_10s.jpg	9	-1	1	0	magnifier_10s.jpg	0	0	0	181.374263787482	181.424239321219	0.0499755337368697
51570	50	312	0	0	poodle	1221	3	1	stimuli\poodle\poodle_03s.jpg	2	-1	1	0	poodle_03s.jpg	0	0	0	181.474262153963	181.524236956277	0.0499748023139546
51670	50	313	0	0	clarinet	350	4	1	stimuli\clarinet\clarinet_04s.jpg	3	-1	1	0	clarinet_04s.jpg	0	0	0	181.574260276626	181.624232153234	0.0499718766077422
51770	50	314	0	0	lab_coat	885	5	1	stimuli\lab_coat\lab_coat_08s.jpg	7	-1	1	0	lab_coat_08s.jpg	0	0	0	181.67424669645	181.724227106373	0.0499804099235917
51870	50	315	0	0	blind	140	6	1	stimuli\blind\blind_10s.jpg	9	-1	1	0	blind_10s.jpg	0	0	0	181.774250914357	181.824240589034	0.0499896746769082
51970	50	316	0	0	keg	866	7	1	stimuli\keg\keg_08s.jpg	7	-1	1	0	keg_08s.jpg	0	0	0	181.874258545577	181.924262848814	0.0500043032370741
52070	50	317	0	0	exerciser	561	8	1	stimuli\exerciser\exerciser_06s.jpg	5	-1	1	0	exerciser_06s.jpg	0	0	0	181.974276904424	182.024257558151	0.0499806537263794
52170	50	318	0	0	uniform	1747	9	1	stimuli\uniform\uniform_10s.jpg	9	-1	1	0	uniform_10s.jpg	0	0	0	182.074307697534	182.124252267487	0.049944569953368
52270	50	319	0	0	spoon	1519	10	1	stimuli\spoon\spoon_05n.jpg	4	-1	1	0	spoon_05n.jpg	0	0	0	182.174252669778	182.224246001599	0.0499933318205876
52370	50	320	0	0	door	506	11	1	stimuli\door\door_03s.jpg	2	-1	1	0	door_03s.jpg	0	0	0	182.274268590525	182.324266067095	0.0499974765698425
52470	50	321	0	0	sauce	1362	12	1	stimuli\sauce\sauce_02s.jpg	1	-1	1	0	sauce_02s.jpg	0	0	0	182.374291094122	182.424269797382	0.0499787032604218
52570	50	322	0	0	backgammon	48	13	1	stimuli\backgammon\backgammon_06s.jpg	5	-1	1	0	backgammon_06s.jpg	0	0	0	182.474275319662	182.524272796232	0.0499974765698425
52670	50	323	0	0	lifesaver	925	14	1	stimuli\lifesaver\lifesaver_08s.jpg	7	-1	1	0	lifesaver_08s.jpg	0	0	0	182.574279537555	182.624253852249	0.0499743146938272
52770	50	324	0	0	glove	680	15	1	stimuli\glove\glove_08s.jpg	7	-1	1	0	glove_08s.jpg	0	0	0	182.67427400309	182.724255632056	0.0499816289666342
52870	50	325	0	0	inhaler	828	16	1	stimuli\inhaler\inhaler_10s.jpg	9	-1	1	0	inhaler_10s.jpg	0	0	0	182.774277245757	182.82425765568	0.0499804099235917
52970	50	326	0	0	roulette_wheel	1335	17	1	stimuli\roulette_wheel\roulette_wheel_01b.jpg	0	-1	1	0	roulette_wheel_01b.jpg	0	0	0	182.874280732227	182.924259923107	0.0499791908805491
53070	50	327	0	0	cigarette_holder	346	18	1	stimuli\cigarette_holder\cigarette_holder_06s.jpg	5	-1	1	0	cigarette_holder_06s.jpg	0	0	0	182.974281536794	183.024259264814	0.049977728020167
53170	50	328	0	0	bank	69	19	1	stimuli\bank\bank_08s.jpg	7	-1	1	0	bank_08s.jpg	0	0	0	183.07431062324	183.124288595078	0.0499779718375066
53270	50	329	0	0	tool	1676	20	1	stimuli\tool\tool_10s.jpg	9	-1	1	1	tool_10s.jpg	0	0	0	183.174290704017	183.224274283464	0.0499835794471437
53370	50	330	0	0	plastic_film	1196	21	1	stimuli\plastic_film\plastic_film_06s.jpg	5	-1	1	0	plastic_film_06s.jpg	0	0	0	183.274311257148	183.324278745175	0.0499674880265957
53470	50	331	0	0	airbag	7	22	1	stimuli\airbag\airbag_01b.jpg	0	-1	1	0	airbag_01b.jpg	0	0	0	183.374318400762	183.424295884965	0.0499774842028273
53570	50	332	0	0	pumpkin	1253	23	1	stimuli\pumpkin\pumpkin_07s.jpg	6	-1	1	0	pumpkin_07s.jpg	1	0.292253911742591	1	183.474300919625	183.524296689546	0.0499957699212246
53670	50	333	0	0	scraper	1387	24	1	stimuli\scraper\scraper_08s.jpg	7	-1	1	0	scraper_08s.jpg	0	0	0	183.574304162292	183.624302857919	0.049998695627437
53770	50	334	0	0	tree	1708	25	1	stimuli\tree\tree_10s.jpg	9	-1	1	0	tree_10s.jpg	0	0	0	183.674321058279	183.724302687246	0.0499816289666342
53870	50	335	0	0	leg	911	26	1	stimuli\leg\leg_07s.jpg	6	-1	1	0	leg_07s.jpg	0	0	0	183.774322838086	183.824295202299	0.0499723642133176
53970	50	336	0	0	bamboo	62	27	1	stimuli\bamboo\bamboo_02s.jpg	1	-1	1	0	bamboo_02s.jpg	0	0	0	183.874327787416	183.9243072221	0.0499794346833369
54070	50	337	0	0	urinal	1748	28	1	stimuli\urinal\urinal_10s.jpg	9	-1	1	0	urinal_10s.jpg	0	0	0	183.974328835786	184.024309977147	0.0499811413610587
54170	50	338	0	0	lid	923	29	1	stimuli\lid\lid_09s.jpg	8	-1	1	0	lid_09s.jpg	0	0	0	184.074333785116	184.124333455969	0.0499996708531398
54270	50	339	0	0	lunchbox	950	30	1	stimuli\lunchbox\lunchbox_07s.jpg	6	-1	1	0	lunchbox_07s.jpg	0	0	0	184.174334589683	184.224304028205	0.0499694385216571
54370	50	340	0	0	starfish	1541	31	1	stimuli\starfish\starfish_08s.jpg	7	-1	1	0	starfish_08s.jpg	0	0	0	184.274335881884	184.324324337504	0.0499884556193138
54470	50	341	0	0	dynamite	536	32	1	stimuli\dynamite\dynamite_11s.jpg	10	-1	1	0	dynamite_11s.jpg	0	0	0	184.374341562638	184.424322460181	0.049980897543719
54570	50	342	0	0	horseshoe	799	33	1	stimuli\horseshoe\horseshoe_05s.jpg	4	-1	1	0	horseshoe_05s.jpg	0	0	0	184.474327494841	184.524322777128	0.0499952822865453
54670	50	343	0	0	lime	930	34	1	stimuli\lime\lime_06s.jpg	5	-1	1	0	lime_06s.jpg	0	0	0	184.574347316535	184.624324313132	0.0499769965972519
54770	50	344	0	0	lawnmower	905	35	1	stimuli\lawnmower\lawnmower_09s.jpg	8	-1	1	0	lawnmower_09s.jpg	0	0	0	184.674350071582	184.724329506265	0.0499794346833369
54870	50	345	0	0	weather_vane	1798	36	1	stimuli\weather_vane\weather_vane_05s.jpg	4	-1	1	0	weather_vane_05s.jpg	0	0	0	184.774335272348	184.824333967976	0.049998695627437
54970	50	346	0	0	shoelace	1426	37	1	stimuli\shoelace\shoelace_08s.jpg	7	-1	1	0	shoelace_08s.jpg	0	0	0	184.874354118816	184.924318437319	0.0499643185030436
55070	50	347	0	0	reindeer	1301	38	1	stimuli\reindeer\reindeer_05s.jpg	4	-1	1	0	reindeer_05s.jpg	0	0	0	184.974354923383	185.024333626643	0.0499787032604218
55170	50	348	0	0	violin	1764	39	1	stimuli\violin\violin_08s.jpg	7	-1	1	0	violin_08s.jpg	0	0	0	185.074360360333	185.12433638169	0.0499760213569971
55270	50	349	0	0	candy	255	40	1	stimuli\candy\candy_04s.jpg	3	-1	1	0	candy_04s.jpg	0	0	0	185.174345804917	185.224340843401	0.0499950384837575
55370	50	350	0	0	christmas_card	340	41	1	stimuli\christmas_card\christmas_card_10s.jpg	9	-1	1	0	christmas_card_10s.jpg	0	0	0	185.274361725664	185.324329457508	0.0499677318439353
55470	50	351	0	0	scaffold	1369	42	1	stimuli\scaffold\scaffold_08s.jpg	7	-1	1	0	scaffold_08s.jpg	0	0	0	185.374345463584	185.424327092551	0.0499816289666342
55570	50	352	0	0	windshield_wiper	1821	43	1	stimuli\windshield_wiper\windshield_wiper_02s.jpg	1	-1	1	0	windshield_wiper_02s.jpg	0	0	0	185.474348218631	185.524325946652	0.049977728020167
55670	50	353	0	0	license_plate	921	44	1	stimuli\license_plate\license_plate_03s.jpg	2	-1	1	0	license_plate_03s.jpg	0	0	0	185.574347804155	185.624336015971	0.049988211816526
55770	50	354	0	0	mat	982	45	1	stimuli\mat\mat_09s.jpg	8	-1	1	1	mat_09s.jpg	0	0	0	185.674358361095	185.724351449098	0.049993088003248
55870	50	355	0	0	girl	676	46	1	stimuli\girl\girl_11n.jpg	10	-1	1	0	girl_11n.jpg	0	0	0	185.774362091368	185.824356886049	0.0499947946809698
55970	50	356	0	0	ski_boots	1453	47	1	stimuli\ski_boots\ski_boots_03s.jpg	2	-1	1	0	ski_boots_03s.jpg	0	0	0	185.874378743552	185.924369149652	0.0499904060998233
56070	50	357	0	0	piecrust	1169	48	1	stimuli\piecrust\piecrust_05s.jpg	4	-1	1	0	piecrust_05s.jpg	1	0.300184539228212	1	185.974362725276	186.024340209493	0.0499774842173792
56170	50	358	0	0	waffle	1770	49	1	stimuli\waffle\waffle_11s.jpg	10	-1	1	0	waffle_11s.jpg	0	0	0	186.074361091756	186.124339795017	0.0499787032604218
56270	50	359	0	0	notebook	1064	50	1	stimuli\notebook\notebook_07s.jpg	6	-1	1	0	notebook_07s.jpg	0	0	0	186.174362871563	186.224341331021	0.049978459457634
56370	50	360	0	0	train_set	1700	51	1	stimuli\train_set\train_set_08s.jpg	7	-1	1	0	train_set_08s.jpg	0	0	0	186.274367577076	186.324373343174	0.0500057660974562
56471	50	361	0	0	cream_cheese	437	52	1	stimuli\cream_cheese\cream_cheese_03s.jpg	2	-1	1	0	cream_cheese_03s.jpg	0	0	0	186.37438983687	186.424357081094	0.0499672442238079
56571	50	362	0	0	cruise_ship	450	53	1	stimuli\cruise_ship\cruise_ship_10s.jpg	9	-1	1	0	cruise_ship_10s.jpg	0	0	0	186.474378938598	186.52437665897	0.0499977203726303
56671	50	363	0	0	stick	1552	54	1	stimuli\stick\stick_09s.jpg	8	-1	1	0	stick_09s.jpg	0	0	0	186.574397541233	186.62438063306	0.0499830918270163
56771	50	364	0	0	peach	1129	55	1	stimuli\peach\peach_08s.jpg	7	-1	1	0	peach_08s.jpg	0	0	0	186.674397614377	186.724362908135	0.0499652937578503
56871	50	365	0	0	mug	1036	56	1	stimuli\mug\mug_07s.jpg	6	-1	1	0	mug_07s.jpg	0	0	0	186.774398662761	186.824386874578	0.049988211816526
56971	50	366	0	0	tent	1643	57	1	stimuli\tent\tent_03s.jpg	2	-1	1	0	tent_03s.jpg	0	0	0	186.874409463519	186.924381340112	0.0499718765931902
57071	50	367	0	0	salad	1348	58	1	stimuli\salad\salad_09s.jpg	8	-1	1	0	salad_09s.jpg	0	0	0	186.974388325252	187.024362639946	0.0499743146938272
57171	50	368	0	0	bunkbed	222	59	1	stimuli\bunkbed\bunkbed_08s.jpg	7	-1	1	0	bunkbed_08s.jpg	0	0	0	187.074417167882	187.124387825446	0.0499706575646996
57271	50	369	0	0	shoe_polish	1424	60	1	stimuli\shoe_polish\shoe_polish_02s.jpg	1	-1	1	0	shoe_polish_02s.jpg	0	0	0	187.174411145796	187.224390824296	0.0499796785006765
57371	50	370	0	0	soap	1487	61	1	stimuli\soap\soap_02s.jpg	1	-1	1	0	soap_02s.jpg	0	0	0	187.274412437982	187.32439601743	0.0499835794471437
57471	50	371	0	0	seal	1397	62	1	stimuli\seal\seal_10s.jpg	9	-1	1	0	seal_10s.jpg	0	0	0	187.37441714351	187.424393652487	0.0499765089771245
57571	50	372	0	0	glasses	678	63	1	stimuli\glasses\glasses_02s.jpg	1	-1	1	0	glasses_02s.jpg	0	0	0	187.47441965474	187.52438324182	0.0499635870801285
57671	50	373	0	0	gate	662	64	1	stimuli\gate\gate_06s.jpg	5	-1	1	0	gate_06s.jpg	0	0	0	187.574420703124	187.624404770177	0.0499840670527192
57771	50	374	0	0	soy_sauce	1500	65	1	stimuli\soy_sauce\soy_sauce_12s.jpg	11	-1	1	0	soy_sauce_12s.jpg	0	0	0	187.674450520994	187.724387045251	0.0499365242576459
57871	50	375	0	0	drill	520	66	1	stimuli\drill\drill_12s.jpg	11	-1	1	0	drill_12s.jpg	0	0	0	187.774425969401	187.824392969822	0.0499670004210202
57971	50	376	0	0	closet	360	67	1	stimuli\closet\closet_07s.jpg	6	-1	1	0	closet_07s.jpg	0	0	0	187.874410194941	187.924385728678	0.0499755337368697
58071	50	377	0	0	emerald	555	68	1	stimuli\emerald\emerald_12s.jpg	11	-1	1	0	emerald_12s.jpg	0	0	0	187.974409536648	188.024389702769	0.0499801661208039
58171	50	378	0	0	jetski	848	69	1	stimuli\jetski\jetski_02s.jpg	1	-1	1	0	jetski_02s.jpg	0	0	0	188.074437404051	188.124414888269	0.0499774842173792
58271	50	379	0	0	camera1	246	70	1	stimuli\camera1\camera1_12s.jpg	11	-1	1	0	camera1_12s.jpg	0	0	0	188.174418947689	188.224394237623	0.049975289934082
58371	50	380	0	0	flypaper	622	71	1	stimuli\flypaper\flypaper_07s.jpg	6	-1	1	0	flypaper_07s.jpg	0	0	0	188.274439744622	188.32441771646	0.0499779718375066
58471	50	381	0	0	shawl	1411	72	1	stimuli\shawl\shawl_09s.jpg	8	-1	1	0	shawl_09s.jpg	0	0	0	188.37443640444	188.424419008647	0.0499826042068889
58571	50	382	0	0	shark	1409	73	1	stimuli\shark\shark_05s.jpg	4	-1	1	0	shark_05s.jpg	0	0	0	188.474438915669	188.524420788453	0.0499818727839738
58671	50	383	0	0	crucifix	449	74	1	stimuli\crucifix\crucifix_04s.jpg	3	-1	1	0	crucifix_04s.jpg	0	0	0	188.5744150955	188.62442671301	0.050011617509881
58771	50	384	0	0	elbow	552	75	1	stimuli\elbow\elbow_02s.jpg	1	-1	1	0	elbow_02s.jpg	0	0	0	188.674427846723	188.724423860447	0.0499960137240123
58871	50	385	0	0	chipmunk	334	76	1	stimuli\chipmunk\chipmunk_05s.jpg	4	-1	1	0	chipmunk_05s.jpg	0	0	0	188.774429138924	188.824428322157	0.0499991832330124
58971	50	386	0	0	pin	1177	77	1	stimuli\pin\pin_05s.jpg	4	-1	1	0	pin_05s.jpg	0	0	0	188.874435794918	188.924412303895	0.0499765089771245
59071	50	387	0	0	turbine	1731	78	1	stimuli\turbine\turbine_09s.jpg	8	-1	1	0	turbine_09s.jpg	0	0	0	188.974435624245	189.024431394151	0.0499957699066726
59171	50	388	0	0	firecracker	594	79	1	stimuli\firecracker\firecracker_07s.jpg	6	-1	1	0	firecracker_07s.jpg	0	0	0	189.074457152601	189.124438050145	0.049980897543719
59271	50	389	0	0	checkers	311	80	1	stimuli\checkers\checkers_01b.jpg	0	-1	1	0	checkers_01b.jpg	0	0	0	189.174454056221	189.224422031883	0.049967975661275
59371	50	390	0	0	tray	1705	81	1	stimuli\tray\tray_10s.jpg	9	-1	1	0	tray_10s.jpg	0	0	0	189.274454616985	189.324440878336	0.0499862613505684
59471	50	391	0	0	sand	1351	82	1	stimuli\sand\sand_04s.jpg	3	-1	1	0	sand_04s.jpg	0	0	0	189.374460785359	189.424424860073	0.0499640747148078
59571	50	392	0	0	nacho	1045	83	1	stimuli\nacho\nacho_04s.jpg	3	-1	1	0	nacho_04s.jpg	0	0	0	189.474461833743	189.524443462709	0.0499816289666342
59671	50	393	0	0	dishwashing_liquid	492	84	1	stimuli\dishwashing_liquid\dishwashing_liquid_08s.jpg	7	-1	1	0	dishwashing_liquid_08s.jpg	0	0	0	189.574446546903	189.624455726313	0.0500091794092441
59771	50	394	0	0	chandelier	305	85	1	stimuli\chandelier\chandelier_06s.jpg	5	-1	1	0	chandelier_06s.jpg	0	0	0	189.674467831443	189.724434100441	0.0499662689981051
59871	50	395	0	0	measuring_cup	986	86	1	stimuli\measuring_cup\measuring_cup_01b.jpg	0	-1	1	0	measuring_cup_01b.jpg	0	0	0	189.774459858891	189.824451727851	0.0499918689602055
59971	50	396	0	0	noisemaker	1060	87	1	stimuli\noisemaker\noisemaker_02s.jpg	1	-1	1	0	noisemaker_02s.jpg	0	0	0	189.874473097734	189.924452532417	0.0499794346833369
60071	50	397	0	0	smoothie	1474	88	1	stimuli\smoothie\smoothie_07s.jpg	6	-1	1	0	smoothie_07s.jpg	0	0	0	189.974460005164	190.024459188411	0.0499991832475644
60171	50	398	0	0	ruler	1341	89	1	stimuli\ruler\ruler_06s.jpg	5	-1	1	0	ruler_06s.jpg	0	0	0	190.074479583054	190.124460968218	0.0499813851638464
60271	50	399	0	0	dogfood	496	90	1	stimuli\dogfood\dogfood_06s.jpg	5	-1	1	0	dogfood_06s.jpg	0	0	0	190.174484044765	190.224438367106	0.0499543223413639
60371	50	400	0	0	cross	443	91	1	stimuli\cross\cross_12s.jpg	11	-1	1	0	cross_12s.jpg	0	0	0	190.274474609352	190.324469647821	0.0499950384692056
60471	50	401	0	0	walker1	1773	92	1	stimuli\walker1\walker1_10s.jpg	9	-1	1	0	walker1_10s.jpg	0	0	0	190.374488091999	190.424449972415	0.0499618804169586
60571	50	402	0	0	knee	877	93	1	stimuli\knee\knee_03s.jpg	2	-1	1	0	knee_03s.jpg	0	0	0	190.474492066089	190.524481496963	0.0499894308741204
60671	50	403	0	0	crutch	452	94	1	stimuli\crutch\crutch_10s.jpg	9	-1	1	0	crutch_10s.jpg	0	0	0	190.574467026876	190.624447680617	0.0499806537409313
60771	50	404	0	0	purse	1259	95	1	stimuli\purse\purse_08s.jpg	7	-1	1	0	purse_08s.jpg	0	0	0	190.674467831443	190.724450435664	0.0499826042214409
60871	50	405	0	0	filter	587	96	1	stimuli\filter\filter_07s.jpg	6	-1	1	0	filter_07s.jpg	0	0	0	190.774495211226	190.824474158304	0.0499789470777614
60971	50	406	0	0	ivy	834	97	1	stimuli\ivy\ivy_05s.jpg	4	-1	1	0	ivy_05s.jpg	0	0	0	190.874489432943	190.924470330487	0.049980897543719
61071	50	407	0	0	shower_curtain	1435	98	1	stimuli\shower_curtain\shower_curtain_02s.jpg	1	-1	1	0	shower_curtain_02s.jpg	0	0	0	190.974495113711	191.024456994128	0.0499618804169586
61171	50	408	0	0	rocking_chair	1321	99	1	stimuli\rocking_chair\rocking_chair_06s.jpg	5	-1	1	0	rocking_chair_06s.jpg	0	0	0	191.07449616208	191.124475840581	0.0499796785006765
61271	50	409	0	0	mallet	962	100	1	stimuli\mallet\mallet_02s.jpg	1	-1	1	0	mallet_02s.jpg	0	0	0	191.174499892368	191.224476888965	0.0499769965972519
61371	50	410	0	0	roof_rack	1329	101	1	stimuli\roof_rack\roof_rack_11s.jpg	10	-1	1	0	roof_rack_11s.jpg	0	0	0	191.274471927449	191.324466234495	0.0499943070462905
61471	50	411	0	0	rat	1285	102	1	stimuli\rat\rat_07s.jpg	6	-1	1	0	rat_07s.jpg	0	0	0	191.374483947235	191.424466063836	0.0499821166013135
61571	50	412	0	0	turtleneck	1737	103	1	stimuli\turtleneck\turtleneck_04s.jpg	3	-1	1	0	turtleneck_04s.jpg	0	0	0	191.474484751816	191.524473451253	0.0499886994366534
61671	50	413	0	0	icicle	824	104	1	stimuli\icicle\icicle_01b.jpg	0	-1	1	0	icicle_01b.jpg	0	0	0	191.574494333516	191.624471573916	0.0499772404000396
61771	50	414	0	0	man	963	105	1	stimuli\man\man_09s.jpg	8	-1	1	0	man_09s.jpg	0	0	0	191.674497332366	191.724476767064	0.0499794346978888
61871	50	415	0	0	stilt	1555	106	1	stimuli\stilt\stilt_12s.jpg	11	-1	1	0	stilt_12s.jpg	0	0	0	191.774498624553	191.82447562115	0.0499769965972519
61971	50	416	0	0	garlic	658	107	1	stimuli\garlic\garlic_01b.jpg	0	-1	1	0	garlic_01b.jpg	0	0	0	191.87452966148	191.924504951414	0.049975289934082
62071	50	417	0	0	hip	780	108	1	stimuli\hip\hip_03s.jpg	2	-1	1	0	hip_03s.jpg	0	0	0	191.97452558986	192.024509656927	0.0499840670672711
62171	50	418	0	0	guinea_pig	722	109	1	stimuli\guinea_pig\guinea_pig_03s.jpg	2	-1	1	0	guinea_pig_03s.jpg	0	0	0	192.07453005157	192.124493394847	0.0499633432773408
62271	50	419	0	0	granola	701	110	1	stimuli\granola\granola_08s.jpg	7	-1	1	0	granola_08s.jpg	0	0	0	192.174518178057	192.224511997498	0.049993819440715
62371	50	420	0	0	hedgehog	774	111	1	stimuli\hedgehog\hedgehog_02s.jpg	1	-1	1	0	hedgehog_02s.jpg	0	0	0	192.274535805467	192.324516946828	0.0499811413610587
62471	50	421	0	0	ginger	673	112	1	stimuli\ginger\ginger_02s.jpg	1	-1	1	0	ginger_02s.jpg	0	0	0	192.374537829091	192.424506048555	0.0499682194640627
62571	50	422	0	0	satellite_dish	1361	113	1	stimuli\satellite_dish\satellite_dish_12s.jpg	11	-1	1	0	satellite_dish_12s.jpg	0	0	0	192.474543022225	192.524530990238	0.0499879680137383
62671	50	423	0	0	goat	684	114	1	stimuli\goat\goat_08s.jpg	7	-1	1	0	goat_08s.jpg	0	0	0	192.574543095368	192.624506926266	0.0499638308974681
62771	50	424	0	0	breakfast	197	115	1	stimuli\breakfast\breakfast_09s.jpg	8	-1	1	0	breakfast_09s.jpg	0	0	0	192.674545118978	192.724508949876	0.0499638308974681
62871	50	425	0	0	car_seat	269	116	1	stimuli\car_seat\car_seat_01b.jpg	0	-1	1	0	car_seat_01b.jpg	0	0	0	192.774550799732	192.824535598236	0.0499847985047381
62971	50	426	0	0	mongoose	1016	117	1	stimuli\mongoose\mongoose_05s.jpg	4	-1	1	0	mongoose_05s.jpg	0	0	0	192.874553310976	192.924530063756	0.0499767527799122
63071	50	427	0	0	shrimp	1438	118	1	stimuli\shrimp\shrimp_10s.jpg	9	-1	1	0	shrimp_10s.jpg	0	0	0	192.9745528965	193.024514289296	0.0499613927968312
63171	50	428	0	0	school_bus	1378	119	1	stimuli\school_bus\school_bus_08s.jpg	7	-1	1	0	school_bus_08s.jpg	0	0	0	193.07452810109	193.124506804365	0.0499787032749737
63271	50	429	0	0	cushion	466	120	1	stimuli\cushion\cushion_01b.jpg	0	-1	1	0	cushion_01b.jpg	0	0	0	193.17453402566	193.22451175368	0.049977728020167
63371	50	430	0	0	pie	1168	121	1	stimuli\pie\pie_03s.jpg	2	-1	1	0	pie_03s.jpg	0	0	0	193.274534586424	193.324546203934	0.050011617509881
63471	50	431	0	0	saffron	1345	122	1	stimuli\saffron\saffron_05s.jpg	4	-1	1	0	saffron_05s.jpg	0	0	0	193.374569280481	193.424544326597	0.0499750461167423
63571	50	432	0	0	blueberry	149	123	1	stimuli\blueberry\blueberry_12n.jpg	11	-1	1	0	blueberry_12n.jpg	0	0	0	193.474565452678	193.524549032125	0.0499835794471437
63671	50	433	0	0	clover	366	124	1	stimuli\clover\clover_09s.jpg	8	-1	1	0	clover_09s.jpg	0	0	0	193.574568207725	193.624549349071	0.0499811413465068
63771	50	434	0	0	shelf	1416	125	1	stimuli\shelf\shelf_06s.jpg	5	-1	1	0	shelf_06s.jpg	0	0	0	193.674554383731	193.724548690792	0.0499943070608424
63871	50	435	0	0	ostrich	1084	126	1	stimuli\ostrich\ostrich_03s.jpg	2	-1	1	0	ostrich_03s.jpg	0	0	0	193.774572986382	193.824556078209	0.0499830918270163
63971	50	436	0	0	food_processor	627	127	1	stimuli\food_processor\food_processor_10s.jpg	9	-1	1	0	food_processor_10s.jpg	0	0	0	193.874574766189	193.92454127899	0.0499665128008928
64071	50	437	0	0	duck	525	128	1	stimuli\duck\duck_02s.jpg	1	-1	1	1	duck_02s.jpg	0	0	0	193.974561186013	194.024559637823	0.0499984518100973
64171	50	438	0	0	crepe	440	129	1	stimuli\crepe\crepe_01b.jpg	0	-1	1	0	crepe_01b.jpg	0	0	0	194.074581251509	194.124559954769	0.0499787032604218
64271	50	439	0	0	yo-yo	1847	130	1	stimuli\yo-yo\yo-yo_07s.jpg	6	-1	1	0	yo-yo_07s.jpg	0	0	0	194.174564989444	194.224562953634	0.0499979641899699
64371	50	440	0	0	mop	1019	131	1	stimuli\mop\mop_05s.jpg	4	-1	1	0	mop_05s.jpg	1	0.352239278305206	1	194.274588712084	194.324549861078	0.0499611489940435
64471	50	441	0	0	dough	513	132	1	stimuli\dough\dough_03s.jpg	2	-1	1	0	dough_03s.jpg	0	0	0	194.374579520474	194.424539694228	0.0499601737537887
64571	50	442	0	0	modem	1011	133	1	stimuli\modem\modem_03s.jpg	2	-1	1	0	modem_03s.jpg	0	0	0	194.474563746015	194.524545862601	0.0499821165867615
64671	50	443	0	0	coffee_bean	378	134	1	stimuli\coffee_bean\coffee_bean_04s.jpg	3	-1	1	0	coffee_bean_04s.jpg	0	0	0	194.574561624875	194.624547642408	0.0499860175332287
64771	50	444	0	0	desk	480	135	1	stimuli\desk\desk_11s.jpg	10	-1	1	0	desk_11s.jpg	0	0	0	194.674567793249	194.724547227932	0.0499794346833369
64871	50	445	0	0	melon	994	136	1	stimuli\melon\melon_03s.jpg	2	-1	1	0	melon_03s.jpg	0	0	0	194.774568841618	194.824555346786	0.049986505167908
64971	50	446	0	0	hatchet	759	137	1	stimuli\hatchet\hatchet_05s.jpg	4	-1	1	0	hatchet_05s.jpg	0	0	0	194.874576229049	194.924568098009	0.0499918689602055
65071	50	447	0	0	chimney	329	138	1	stimuli\chimney\chimney_09s.jpg	8	-1	1	0	chimney_09s.jpg	0	0	0	194.974605071679	195.024566464475	0.0499613927968312
65171	50	448	0	0	nose	1063	139	1	stimuli\nose\nose_06s.jpg	5	-1	1	0	nose_06s.jpg	0	0	0	195.074581495326	195.124587749029	0.0500062537030317
65271	50	449	0	0	rollerskate	1327	140	1	stimuli\rollerskate\rollerskate_04s.jpg	3	-1	1	0	rollerskate_04s.jpg	0	0	0	195.174607899869	195.224589772653	0.0499818727839738
65371	50	450	0	0	salami	1349	141	1	stimuli\salami\salami_08s.jpg	7	-1	1	0	salami_08s.jpg	0	0	0	195.274586761603	195.324576192477	0.0499894308741204
65471	50	451	0	0	creme_brulee	439	142	1	stimuli\creme_brulee\creme_brulee_05s.jpg	4	-1	1	0	creme_brulee_05s.jpg	0	0	0	195.374598781404	195.424577240847	0.0499784594430821
65571	50	452	0	0	penholder	1146	143	1	stimuli\penholder\penholder_07s.jpg	6	-1	1	0	penholder_07s.jpg	0	0	0	195.47459763549	195.524575363524	0.0499777280347189
65671	50	453	0	0	outlet	1088	144	1	stimuli\outlet\outlet_11s.jpg	10	-1	1	0	outlet_11s.jpg	0	0	0	195.574606973387	195.624584213801	0.0499772404145915
65771	50	454	0	0	weasel	1797	145	1	stimuli\weasel\weasel_09s.jpg	8	-1	1	0	weasel_09s.jpg	0	0	0	195.674602170344	195.724584774551	0.0499826042068889
65871	50	455	0	0	reel	1299	146	1	stimuli\reel\reel_01b.jpg	0	-1	1	0	reel_01b.jpg	0	0	0	195.774608094915	195.824590699121	0.0499826042068889
65971	50	456	0	0	shovel	1432	147	1	stimuli\shovel\shovel_06s.jpg	5	-1	1	0	shovel_06s.jpg	0	0	0	195.874610606144	195.924588577982	0.0499779718375066
66071	50	457	0	0	radish	1274	148	1	stimuli\radish\radish_08n.jpg	7	-1	1	0	radish_08n.jpg	0	0	0	195.974617993576	196.024591333029	0.0499733394535724
66171	50	458	0	0	button1	230	149	1	stimuli\button1\button1_06s.jpg	5	-1	1	0	button1_06s.jpg	0	0	0	196.074614165758	196.12459628236	0.0499821166013135
66271	50	459	0	0	poppy	1224	150	1	stimuli\poppy\poppy_11s.jpg	10	-1	1	0	poppy_11s.jpg	0	0	0	196.174617408426	196.224595136446	0.049977728020167
66371	50	460	0	0	bassoon	86	151	1	stimuli\bassoon\bassoon_07s.jpg	6	-1	1	0	bassoon_07s.jpg	0	0	0	196.274616750146	196.324599841973	0.0499830918270163
66471	50	461	0	0	dustpan	535	152	1	stimuli\dustpan\dustpan_04n.jpg	3	-1	1	1	dustpan_04n.jpg	0	0	0	196.374618529953	196.424602597021	0.0499840670672711
66571	50	462	0	0	sugar_cube	1579	153	1	stimuli\sugar_cube\sugar_cube_02s.jpg	1	-1	1	0	sugar_cube_02s.jpg	0	0	0	196.474624454509	196.52460364539	0.0499791908805491
66671	50	463	0	0	crystal_ball	455	154	1	stimuli\crystal_ball\crystal_ball_01b.jpg	0	-1	1	0	crystal_ball_01b.jpg	0	0	0	196.574632573363	196.624611764244	0.0499791908805491
66771	50	464	0	0	baseball_bat	79	155	1	stimuli\baseball_bat\baseball_bat_11s.jpg	10	-1	1	0	baseball_bat_11s.jpg	1	0.341929316273308	1	196.674632158887	196.724614275474	0.0499821165867615
66871	50	465	0	0	guitar	723	156	1	stimuli\guitar\guitar_09n.jpg	8	-1	1	0	guitar_09n.jpg	0	0	0	196.774640521544	196.824618493381	0.0499779718375066
66971	50	466	0	0	tarp	1628	157	1	stimuli\tarp\tarp_05s.jpg	4	-1	1	0	tarp_05s.jpg	0	0	0	196.874640107068	196.924622223654	0.0499821165867615
67071	50	467	0	0	giraffe	675	158	1	stimuli\giraffe\giraffe_03s.jpg	2	-1	1	0	giraffe_03s.jpg	0	0	0	196.974649444965	197.024639363444	0.0499899184796959
67171	50	468	0	0	soldering_iron	1494	159	1	stimuli\soldering_iron\soldering_iron_12s.jpg	11	-1	1	0	soldering_iron_12s.jpg	0	0	0	197.074660001905	197.124632122315	0.0499721204105299
67271	50	469	0	0	flagpole	606	160	1	stimuli\flagpole\flagpole_07s.jpg	6	-1	1	0	flagpole_07s.jpg	0	0	0	197.174655198862	197.224638290689	0.0499830918270163
67371	50	470	0	0	pogo_stick	1208	161	1	stimuli\pogo_stick\pogo_stick_12s.jpg	11	-1	1	0	pogo_stick_12s.jpg	0	0	0	197.274659172952	197.324638607635	0.0499794346833369
67471	50	471	0	0	rhinoceros	1306	162	1	stimuli\rhinoceros\rhinoceros_10s.jpg	9	-1	1	0	rhinoceros_10s.jpg	0	0	0	197.374657783235	197.424630147463	0.0499723642278695
67571	50	472	0	0	timer	1661	163	1	stimuli\timer\timer_07s.jpg	6	-1	1	0	timer_07s.jpg	0	0	0	197.474650785909	197.524630708227	0.0499799223180162
67671	50	473	0	0	fungus	648	164	1	stimuli\fungus\fungus_07s.jpg	6	-1	1	0	fungus_07s.jpg	0	0	0	197.574649883813	197.624630781371	0.049980897558271
67771	50	474	0	0	gas_mask	660	165	1	stimuli\gas_mask\gas_mask_01b.jpg	0	-1	1	0	gas_mask_01b.jpg	0	0	0	197.674653857917	197.724635974504	0.0499821165867615
67871	50	475	0	0	ham	739	166	1	stimuli\ham\ham_04s.jpg	3	-1	1	0	ham_04s.jpg	0	0	0	197.77465807581	197.824637998114	0.0499799223034643
67971	50	476	0	0	kayak	863	167	1	stimuli\kayak\kayak_11s.jpg	10	-1	1	0	kayak_11s.jpg	0	0	0	197.874659611814	197.924640753161	0.0499811413465068
68071	50	477	0	0	saddle	1343	168	1	stimuli\saddle\saddle_04s.jpg	3	-1	1	0	saddle_04s.jpg	0	0	0	197.974662610664	198.024655211048	0.0499926003831206
68171	50	478	0	0	pearl	1134	169	1	stimuli\pearl\pearl_09s.jpg	8	-1	1	0	pearl_09s.jpg	0	0	0	198.074669266658	198.124646507058	0.0499772404000396
68271	50	479	0	0	tape_measure	1623	170	1	stimuli\tape_measure\tape_measure_06s.jpg	5	-1	1	0	tape_measure_06s.jpg	0	0	0	198.174669339802	198.224651456389	0.0499821165867615
68371	50	480	0	0	showerhead	1436	171	1	stimuli\showerhead\showerhead_08s.jpg	7	-1	1	0	showerhead_08s.jpg	0	0	0	198.274672826272	198.324653236195	0.0499804099235917
68471	50	481	0	0	altar	16	172	1	stimuli\altar\altar_06s.jpg	5	-1	1	0	altar_06s.jpg	0	0	0	198.374654369909	198.424675252172	0.0500208822631976
68571	50	482	0	0	margarita	973	173	1	stimuli\margarita\margarita_05s.jpg	4	-1	1	0	margarita_05s.jpg	0	0	0	198.474695890633	198.524685809112	0.0499899184796959
68671	50	483	0	0	pickle	1167	174	1	stimuli\pickle\pickle_08s.jpg	7	-1	1	0	pickle_08s.jpg	0	0	0	198.574685236163	198.62468295655	0.0499977203871822
68771	50	484	0	0	remote_control	1302	175	1	stimuli\remote_control\remote_control_12s.jpg	11	-1	1	0	remote_control_12s.jpg	0	0	0	198.674699937867	198.724669132556	0.0499691946897656
68871	50	485	0	0	snowplow	1484	176	1	stimuli\snowplow\snowplow_01b.jpg	0	-1	1	0	snowplow_01b.jpg	0	0	0	198.774687576733	198.824666767614	0.0499791908805491
68971	50	486	0	0	juice	854	177	1	stimuli\juice\juice_08s.jpg	7	-1	1	0	juice_08s.jpg	0	0	0	198.874685455594	198.924670741704	0.0499852861103136
69071	50	487	0	0	biscuit	133	178	1	stimuli\biscuit\biscuit_03s.jpg	2	-1	1	0	biscuit_03s.jpg	0	0	0	198.97469991348	199.024676178655	0.0499762651743367
69171	50	488	0	0	cigar	343	179	1	stimuli\cigar\cigar_09n.jpg	8	-1	1	0	cigar_09n.jpg	0	0	0	199.074693159957	199.124669668934	0.0499765089771245
69271	50	489	0	0	lampshade	893	180	1	stimuli\lampshade\lampshade_02s.jpg	1	-1	1	0	lampshade_02s.jpg	0	0	0	199.174692014058	199.224687296344	0.0499952822865453
69371	50	490	0	0	cashew	281	181	1	stimuli\cashew\cashew_09s.jpg	8	-1	1	0	cashew_09s.jpg	0	0	0	199.274698426249	199.324675179028	0.0499767527799122
69471	50	491	0	0	can_opener	251	182	1	stimuli\can_opener\can_opener_11s.jpg	10	-1	1	0	can_opener_11s.jpg	0	0	0	199.374697767955	199.424676471215	0.0499787032604218
69571	50	492	0	0	binoculars	127	183	1	stimuli\binoculars\binoculars_11n.jpg	10	-1	1	0	binoculars_11n.jpg	0	0	0	199.474704180146	199.524683614829	0.0499794346833369
69671	50	493	0	0	raincoat	1279	184	1	stimuli\raincoat\raincoat_11s.jpg	10	-1	1	0	raincoat_11s.jpg	0	0	0	199.57470474091	199.624686126059	0.0499813851492945
69771	50	494	0	0	boxer_shorts	182	185	1	stimuli\boxer_shorts\boxer_shorts_04s.jpg	3	-1	1	0	boxer_shorts_04s.jpg	0	0	0	199.674702375953	199.724703022046	0.0500006460933946
69871	50	495	0	0	bathrobe	90	186	1	stimuli\bathrobe\bathrobe_10s.jpg	9	-1	1	0	bathrobe_10s.jpg	0	0	0	199.774712445273	199.824697243763	0.0499847984901862
69971	50	496	0	0	ready_meal	1292	187	1	stimuli\ready_meal\ready_meal_11s.jpg	10	-1	1	0	ready_meal_11s.jpg	0	0	0	199.87470861747	199.9246919531	0.0499833356298041
70071	50	497	0	0	hopscotch	796	188	1	stimuli\hopscotch\hopscotch_12s.jpg	11	-1	1	0	hopscotch_12s.jpg	0	0	0	199.974729170586	200.024695683387	0.0499665128008928
70171	50	498	0	0	potpourri	1235	189	1	stimuli\potpourri\potpourri_10s.jpg	9	-1	1	0	potpourri_10s.jpg	0	0	0	200.074716809468	200.124699169857	0.0499823603895493
70271	50	499	0	0	paintbrush	1097	190	1	stimuli\paintbrush\paintbrush_11s.jpg	10	-1	1	0	paintbrush_11s.jpg	0	0	0	200.174720295938	200.224703387765	0.0499830918270163
70371	50	500	0	0	lamb	889	191	1	stimuli\lamb\lamb_04s.jpg	3	-1	1	0	lamb_04s.jpg	0	0	0	200.27472353859	200.324710287561	0.0499867489706958
70471	50	501	0	0	hairdryer	735	192	1	stimuli\hairdryer\hairdryer_12s.jpg	11	-1	1	0	hairdryer_12s.jpg	0	0	0	200.374744579341	200.424724745448	0.049980166106252
70571	50	502	0	0	cheesecake	314	193	1	stimuli\cheesecake\cheesecake_06s.jpg	5	-1	1	0	cheesecake_06s.jpg	0	0	0	200.474726610599	200.524709458608	0.0499828480096767
70671	50	503	0	0	tag	1616	194	1	stimuli\tag\tag_08s.jpg	7	-1	1	0	tag_08s.jpg	0	0	0	200.574725708502	200.624708312709	0.0499826042068889
70771	50	504	0	0	sandbox	1354	195	1	stimuli\sandbox\sandbox_10s.jpg	9	-1	1	0	sandbox_10s.jpg	0	0	0	200.674729682592	200.724726183922	0.0499965013295878
70871	50	505	0	0	grapevine	704	196	1	stimuli\grapevine\grapevine_02s.jpg	1	-1	1	0	grapevine_02s.jpg	0	0	0	200.774734144303	200.824739910386	0.0500057660829043
70971	50	506	0	0	brace	186	197	1	stimuli\brace\brace_03s.jpg	2	-1	1	0	brace_03s.jpg	0	0	0	200.874755672659	200.924738764486	0.0499830918270163
71071	50	507	0	0	cat	284	198	1	stimuli\cat\cat_01b.jpg	0	-1	1	0	cat_01b.jpg	0	0	0	200.974742092483	201.024740056673	0.0499979641899699
71171	50	508	0	0	bee	111	199	1	stimuli\bee\bee_10s.jpg	9	-1	1	0	bee_10s.jpg	0	0	0	201.074753868466	201.124726476497	0.0499726080306573
71271	50	509	0	0	tongue	1675	200	1	stimuli\tongue\tongue_02s.jpg	1	-1	1	0	tongue_02s.jpg	0	0	0	201.17476613207	201.224734839154	0.0499687070841901
71371	50	510	0	0	octopus	1070	201	1	stimuli\octopus\octopus_09s.jpg	8	-1	1	0	octopus_09s.jpg	0	0	0	201.274762060464	201.324739544667	0.0499774842028273
71471	50	511	0	0	duster	534	202	1	stimuli\duster\duster_11s.jpg	10	-1	1	0	duster_11s.jpg	0	0	0	201.374760670747	201.424742787334	0.0499821165867615
71571	50	512	0	0	nest	1056	203	1	stimuli\nest\nest_12s.jpg	11	-1	1	0	nest_12s.jpg	0	0	0	201.474746359148	201.524756026178	0.0500096670293715
71671	50	513	0	0	mushroom	1040	204	1	stimuli\mushroom\mushroom_08n.jpg	7	-1	1	0	mushroom_08n.jpg	0	0	0	201.574780565585	201.624759025028	0.0499784594430821
71771	50	514	0	0	bazooka	98	205	1	stimuli\bazooka\bazooka_12s.jpg	11	-1	1	0	bazooka_12s.jpg	0	0	0	201.674761133982	201.724763242935	0.0500021089537768
71871	50	515	0	0	latch	900	206	1	stimuli\latch\latch_09s.jpg	8	-1	1	0	latch_09s.jpg	0	0	0	201.774782906155	201.824761121796	0.0499782156402944
71971	50	516	0	0	stem	1547	207	1	stimuli\stem\stem_03s.jpg	2	-1	1	0	stem_03s.jpg	0	0	0	201.874769082162	201.924767777789	0.049998695627437
72071	50	517	0	0	ball	59	208	1	stimuli\ball\ball_10s.jpg	9	-1	1	0	ball_10s.jpg	0	0	0	201.974775006733	202.024755660459	0.0499806537263794
72171	50	518	0	0	cereal	297	209	1	stimuli\cereal\cereal_02s.jpg	1	-1	1	0	cereal_02s.jpg	0	0	0	202.074769228449	202.12474988219	0.0499806537409313
72271	50	519	0	0	alpaca	15	210	1	stimuli\alpaca\alpaca_03s.jpg	2	-1	1	0	alpaca_03s.jpg	0	0	0	202.174769301593	202.224749467714	0.0499801661208039
72371	50	520	0	0	platypus	1198	211	1	stimuli\platypus\platypus_10n.jpg	9	-1	1	0	platypus_10n.jpg	0	0	0	202.274775713784	202.324756123708	0.0499804099235917
72471	50	521	0	0	laundry_basket	902	212	1	stimuli\laundry_basket\laundry_basket_12s.jpg	11	-1	1	0	laundry_basket_12s.jpg	0	0	0	202.374776518351	202.424763023504	0.0499865051533561
72571	50	522	0	0	meat	987	213	1	stimuli\meat\meat_04s.jpg	3	-1	1	0	meat_04s.jpg	0	0	0	202.47478512481	202.524784064241	0.0499989394302247
72671	50	523	0	0	crystal1	453	214	1	stimuli\crystal1\crystal1_10s.jpg	9	-1	1	0	crystal1_10s.jpg	0	0	0	202.574785685574	202.624761463128	0.0499757775542093
72771	50	524	0	0	centerpiece	295	215	1	stimuli\centerpiece\centerpiece_05s.jpg	4	-1	1	0	centerpiece_05s.jpg	0	0	0	202.674784783478	202.724768119122	0.049983335644356
72871	50	525	0	0	cilantro	347	216	1	stimuli\cilantro\cilantro_08s.jpg	7	-1	1	0	cilantro_08s.jpg	0	0	0	202.774787538525	202.824791597945	0.0500040594197344
72971	50	526	0	0	mulch	1038	217	1	stimuli\mulch\mulch_08s.jpg	7	-1	1	0	mulch_08s.jpg	0	0	0	202.874794194518	202.924787770142	0.0499935756233754
73071	50	527	0	0	racket	1270	218	1	stimuli\racket\racket_08s.jpg	7	-1	1	0	racket_08s.jpg	0	0	0	202.974812553352	203.024794669953	0.0499821166013135
73171	50	528	0	0	turntable	1735	219	1	stimuli\turntable\turntable_10s.jpg	9	-1	1	0	turntable_10s.jpg	0	0	0	203.074811895072	203.124794011659	0.0499821165867615
73271	50	529	0	0	wrap	1837	220	1	stimuli\wrap\wrap_08s.jpg	7	-1	1	0	wrap_08s.jpg	0	0	0	203.17481465012	203.224786526713	0.0499718765931902
73371	50	530	0	0	crown	448	221	1	stimuli\crown\crown_11s.jpg	10	-1	1	0	crown_11s.jpg	0	0	0	203.274801313746	203.324779041766	0.049977728020167
73471	50	531	0	0	kimono	873	222	1	stimuli\kimono\kimono_10s.jpg	9	-1	1	1	kimono_10s.jpg	0	0	0	203.374803581173	203.424781553011	0.0499779718375066
73571	50	532	0	0	globe	679	223	1	stimuli\globe\globe_09s.jpg	8	-1	1	0	globe_09s.jpg	0	0	0	203.474815113354	203.524785770904	0.0499706575501477
73671	50	533	0	0	mole	1014	224	1	stimuli\mole\mole_10s.jpg	9	-1	1	0	mole_10s.jpg	0	0	0	203.574795437948	203.624788525951	0.049993088003248
73771	50	534	0	0	wagon	1772	225	1	stimuli\wagon\wagon_06s.jpg	5	-1	1	0	wagon_06s.jpg	0	0	0	203.674807213931	203.724794694324	0.0499874803936109
73871	50	535	0	0	camera2	247	226	1	stimuli\camera2\camera2_03s.jpg	2	-1	1	0	camera2_03s.jpg	0	0	0	203.774815820405	203.824795011285	0.0499791908805491
73971	50	536	0	0	parachute	1118	227	1	stimuli\parachute\parachute_01b.jpg	0	-1	1	0	parachute_01b.jpg	0	0	0	203.874812480208	203.924790452045	0.0499779718375066
74071	50	537	0	0	coconut	375	228	1	stimuli\coconut\coconut_11s.jpg	10	-1	1	0	coconut_11s.jpg	0	0	0	203.974821330485	204.024798083279	0.0499767527944641
74171	50	538	0	0	hydrant	814	229	1	stimuli\hydrant\hydrant_09s.jpg	8	-1	1	0	hydrant_09s.jpg	0	0	0	204.074838714092	204.124819855439	0.0499811413465068
74271	50	539	0	0	pillbox	1175	230	1	stimuli\pillbox\pillbox_03s.jpg	2	-1	1	0	pillbox_03s.jpg	0	0	0	204.174822939633	204.224827974293	0.0500050346599892
74371	50	540	0	0	ferry	580	231	1	stimuli\ferry\ferry_08s.jpg	7	-1	1	0	ferry_08s.jpg	0	0	0	204.27484593085	204.324807567449	0.0499616365996189
74471	50	541	0	0	fruitcake	646	232	1	stimuli\fruitcake\fruitcake_07s.jpg	6	-1	1	0	fruitcake_07s.jpg	0	0	0	204.374826499246	204.424810078694	0.0499835794471437
74571	50	542	0	0	ratchet	1286	233	1	stimuli\ratchet\ratchet_04s.jpg	3	-1	1	0	ratchet_04s.jpg	0	0	0	204.474834861903	204.524807957554	0.0499730956507847
74671	50	543	0	0	wafer	1769	234	1	stimuli\wafer\wafer_09s.jpg	8	-1	1	0	wafer_09s.jpg	0	0	0	204.574832253144	204.624816076393	0.0499838232499314
74771	50	544	0	0	enchilada	556	235	1	stimuli\enchilada\enchilada_12s.jpg	11	-1	1	0	enchilada_12s.jpg	0	0	0	204.674856707206	204.724837360947	0.0499806537409313
74871	50	545	0	0	chess_piece	317	236	1	stimuli\chess_piece\chess_piece_04s.jpg	3	-1	1	0	chess_piece_04s.jpg	0	0	0	204.77485726797	204.824825243631	0.049967975661275
74971	50	546	0	0	nightstand	1059	237	1	stimuli\nightstand\nightstand_11s.jpg	10	-1	1	0	nightstand_11s.jpg	0	0	0	204.874858803974	204.924839945321	0.0499811413465068
75071	50	547	0	0	ant	24	238	1	stimuli\ant\ant_04s.jpg	3	-1	1	0	ant_04s.jpg	0	0	0	204.974864728531	205.024846113694	0.0499813851638464
75171	50	548	0	0	tiramisu	1663	239	1	stimuli\tiramisu\tiramisu_03s.jpg	2	-1	1	0	tiramisu_03s.jpg	0	0	0	205.074863826449	205.124844723992	0.049980897543719
75271	50	549	0	0	dryer	524	240	1	stimuli\dryer\dryer_05s.jpg	4	-1	1	0	dryer_05s.jpg	0	0	0	205.174865850058	205.224848941885	0.0499830918270163
75371	50	550	0	0	straightjacket	1565	241	1	stimuli\straightjacket\straightjacket_05s.jpg	4	-1	1	0	straightjacket_05s.jpg	0	0	0	205.274854707983	205.324848527409	0.0499938194261631
75471	50	551	0	0	cello	292	242	1	stimuli\cello\cello_03s.jpg	2	-1	1	0	cello_03s.jpg	0	0	0	205.374871116335	205.424852989119	0.0499818727839738
75571	50	552	0	0	humvee	813	243	1	stimuli\humvee\humvee_08s.jpg	7	-1	1	0	humvee_08s.jpg	0	0	0	205.474859730442	205.524832826093	0.0499730956507847
75671	50	553	0	0	fencepost	576	244	1	stimuli\fencepost\fencepost_01b.jpg	0	-1	1	0	fencepost_01b.jpg	0	0	0	205.574852489313	205.62483363066	0.0499811413465068
75771	50	554	0	0	recliner	1294	245	1	stimuli\recliner\recliner_04s.jpg	3	-1	1	0	recliner_04s.jpg	0	0	0	205.674854512923	205.724845894278	0.04999138135463
75871	50	555	0	0	blowtorch	148	246	1	stimuli\blowtorch\blowtorch_03s.jpg	2	-1	1	0	blowtorch_03s.jpg	0	0	0	205.774866532724	205.824849380748	0.0499828480242286
75971	50	556	0	0	satellite	1360	247	1	stimuli\satellite\satellite_04s.jpg	3	-1	1	0	satellite_04s.jpg	0	0	0	205.874867093487	205.924865545298	0.0499984518100973
76071	50	557	0	0	okra	1074	248	1	stimuli\okra\okra_05s.jpg	4	-1	1	0	okra_05s.jpg	0	0	0	205.974890572325	206.024873176531	0.0499826042068889
76171	50	558	0	0	towel_rack	1693	249	1	stimuli\towel_rack\towel_rack_09s.jpg	8	-1	1	0	towel_rack_09s.jpg	0	0	0	206.074875285471	206.124897142974	0.0500218575034523
76271	50	559	0	0	crystal2	454	250	1	stimuli\crystal2\crystal2_10s.jpg	9	-1	1	0	crystal2_10s.jpg	0	0	0	206.174898032885	206.224854793312	0.0499567604274489
76371	50	560	0	0	bed	108	251	1	stimuli\bed\bed_02s.jpg	1	-1	1	0	bed_02s.jpg	0	0	0	206.274874700335	206.324859742643	0.0499850423075259
76471	50	561	0	0	rocket	1320	252	1	stimuli\rocket\rocket_11s.jpg	10	-1	1	1	rocket_11s.jpg	0	0	0	206.374878186805	206.424858352926	0.0499801661208039
76571	50	562	0	0	rack2	1269	253	1	stimuli\rack2\rack2_09s.jpg	8	-1	1	0	rack2_09s.jpg	0	0	0	206.474904591349	206.524882075566	0.0499774842173792
76671	50	563	0	0	grenade	713	254	1	stimuli\grenade\grenade_12s.jpg	11	-1	1	0	grenade_12s.jpg	0	0	0	206.574885159745	206.624872883956	0.0499877242109505
76771	50	564	0	0	squash	1526	255	1	stimuli\squash\squash_07s.jpg	6	-1	1	0	squash_07s.jpg	0	0	0	206.674906688102	206.724888317083	0.0499816289811861
76871	50	565	0	0	clove	365	256	1	stimuli\clove\clove_02s.jpg	1	-1	1	0	clove_02s.jpg	1	0.441980101750232	1	206.77491090601	206.824886683564	0.0499757775542093
76971	50	566	0	0	cookie_sheet	402	257	1	stimuli\cookie_sheet\cookie_sheet_02s.jpg	1	-1	1	0	cookie_sheet_02s.jpg	0	0	0	206.874908541053	206.924879198617	0.0499706575646996
77071	50	567	0	0	button2	231	258	1	stimuli\button2\button2_02s.jpg	1	-1	1	0	button2_02s.jpg	0	0	0	206.974916903724	207.024892925081	0.0499760213569971
77171	50	568	0	0	bucket	209	259	1	stimuli\bucket\bucket_06n.jpg	5	-1	1	0	bucket_06n.jpg	0	0	0	207.074911369244	207.124896167734	0.0499847984901862
77271	50	569	0	0	flamethrower	607	260	1	stimuli\flamethrower\flamethrower_11s.jpg	10	-1	1	0	flamethrower_11s.jpg	0	0	0	207.174917293814	207.224897947541	0.0499806537263794
77371	50	570	0	0	harmonica	753	261	1	stimuli\harmonica\harmonica_09s.jpg	8	-1	1	0	harmonica_09s.jpg	0	0	0	207.274924437428	207.324886074042	0.0499616366141709
77471	50	571	0	0	coffin	383	262	1	stimuli\coffin\coffin_08s.jpg	7	-1	1	0	coffin_08s.jpg	0	0	0	207.374927923898	207.424886390989	0.0499584670906188
77571	50	572	0	0	syrup	1605	263	1	stimuli\syrup\syrup_11s.jpg	10	-1	1	0	syrup_11s.jpg	0	0	0	207.474928484662	207.524911576489	0.0499830918270163
77671	50	573	0	0	caramel	270	264	1	stimuli\caramel\caramel_08s.jpg	7	-1	1	0	caramel_08s.jpg	0	0	0	207.574927338748	207.624891901083	0.0499645623349352
77771	50	574	0	0	pipe1	1186	265	1	stimuli\pipe1\pipe1_07s.jpg	6	-1	1	0	pipe1_07s.jpg	0	0	0	207.674913270952	207.724914892286	0.0500016213336494
77871	50	575	0	0	fishnet_stockings	604	266	1	stimuli\fishnet_stockings\fishnet_stockings_06s.jpg	5	-1	1	0	fishnet_stockings_06s.jpg	0	0	0	207.774931385982	207.824913746386	0.0499823604041012
77971	50	576	0	0	ladle	887	267	1	stimuli\ladle\ladle_07s.jpg	6	-1	1	0	ladle_07s.jpg	0	0	0	207.874934141029	207.924916013813	0.0499818727839738
78071	50	577	0	0	cardigan	273	268	1	stimuli\cardigan\cardigan_12s.jpg	11	-1	1	0	cardigan_12s.jpg	0	0	0	207.974939334163	208.024911454573	0.0499721204105299
78171	50	578	0	0	petri_dish	1159	269	1	stimuli\petri_dish\petri_dish_03s.jpg	2	-1	1	0	petri_dish_03s.jpg	0	0	0	208.074924291141	208.124923961994	0.0499996708531398
78271	50	579	0	0	skull	1458	270	1	stimuli\skull\skull_07s.jpg	6	-1	1	0	skull_07s.jpg	0	0	0	208.174943137594	208.224909162775	0.0499660251807654
78371	50	580	0	0	toe	1668	271	1	stimuli\toe\toe_11s.jpg	10	-1	1	0	toe_11s.jpg	0	0	0	208.274929557418	208.324903384491	0.0499738270736998
78471	50	581	0	0	axe	45	272	1	stimuli\axe\axe_08n.jpg	7	-1	1	0	axe_08n.jpg	0	0	0	208.374926704855	208.424907114779	0.0499804099235917
78571	50	582	0	0	cart	278	273	1	stimuli\cart\cart_02s.jpg	1	-1	1	0	cart_02s.jpg	0	0	0	208.474955791287	208.524932544082	0.0499767527944641
78671	50	583	0	0	net	1057	274	1	stimuli\net\net_09s.jpg	8	-1	1	0	net_09s.jpg	0	0	0	208.574950988244	208.624935055312	0.0499840670672711
78771	50	584	0	0	barrette	77	275	1	stimuli\barrette\barrette_10s.jpg	9	-1	1	0	barrette_10s.jpg	0	0	0	208.674955693772	208.724935372273	0.0499796785006765
78871	50	585	0	0	headlight	765	276	1	stimuli\headlight\headlight_01b.jpg	0	-1	1	0	headlight_01b.jpg	0	0	0	208.774958692622	208.824924474	0.0499657813779777
78971	50	586	0	0	kilt	872	277	1	stimuli\kilt\kilt_09s.jpg	8	-1	1	0	kilt_09s.jpg	0	0	0	208.874961203852	208.92494112617	0.0499799223180162
79071	50	587	0	0	bottle	170	278	1	stimuli\bottle\bottle_12s.jpg	11	-1	1	0	bottle_12s.jpg	0	0	0	208.974962252236	209.024943881217	0.0499816289811861
79171	50	588	0	0	trough	1718	279	1	stimuli\trough\trough_02s.jpg	1	-1	1	0	trough_02s.jpg	0	0	0	209.074953548246	209.124929081983	0.0499755337368697
79271	50	589	0	0	traffic_light	1696	280	1	stimuli\traffic_light\traffic_light_01b.jpg	0	-1	1	0	traffic_light_01b.jpg	0	0	0	209.174969956613	209.224930374185	0.0499604175711283
79371	50	590	0	0	prism	1241	281	1	stimuli\prism\prism_06s.jpg	5	-1	1	0	prism_06s.jpg	0	0	0	209.274953450731	209.324932397794	0.0499789470632095
79471	50	591	0	0	ravioli	1289	282	1	stimuli\ravioli\ravioli_04s.jpg	3	-1	1	0	ravioli_04s.jpg	0	0	0	209.374954255298	209.424934177601	0.0499799223034643
79571	50	592	0	0	handlebar	749	283	1	stimuli\handlebar\handlebar_12s.jpg	11	-1	1	0	handlebar_12s.jpg	0	0	0	209.474955791287	209.524934738365	0.0499789470777614
79671	50	593	0	0	pennant	1148	284	1	stimuli\pennant\pennant_03s.jpg	2	-1	1	0	pennant_03s.jpg	0	0	0	209.574957814912	209.624937981032	0.0499801661208039
79771	50	594	0	0	yak	1845	285	1	stimuli\yak\yak_07s.jpg	6	-1	1	0	yak_07s.jpg	0	0	0	209.674961789002	209.724942442743	0.0499806537409313
79871	50	595	0	0	log	943	286	1	stimuli\log\log_06s.jpg	5	-1	1	0	log_06s.jpg	0	0	0	209.774960643103	209.824941296829	0.0499806537263794
79971	50	596	0	0	stirrup	1558	287	1	stimuli\stirrup\stirrup_01b.jpg	0	-1	1	0	stirrup_01b.jpg	0	0	0	209.87496291053	209.924948928063	0.0499860175332287
80071	50	597	0	0	megaphone	993	288	1	stimuli\megaphone\megaphone_04s.jpg	3	-1	1	0	megaphone_04s.jpg	0	0	0	209.97496590938	210.024946563106	0.0499806537263794
80171	50	598	0	0	goalpost	683	289	1	stimuli\goalpost\goalpost_08s.jpg	7	-1	1	0	goalpost_08s.jpg	0	0	0	210.074970127273	210.124952975297	0.0499828480242286
80271	50	599	0	0	spider	1513	290	1	stimuli\spider\spider_03s.jpg	2	-1	1	0	spider_03s.jpg	0	0	0	210.174972638517	210.224956217964	0.0499835794471437
80371	50	600	0	0	powder	1236	291	1	stimuli\powder\powder_06s.jpg	5	-1	1	0	powder_06s.jpg	0	0	0	210.27497685641	210.324952390161	0.0499755337514216
80471	50	601	0	0	spaghetti	1503	292	1	stimuli\spaghetti\spaghetti_10s.jpg	9	-1	1	0	spaghetti_10s.jpg	0	0	0	210.374976685751	210.424956851857	0.049980166106252
80571	50	602	0	0	sled	1460	293	1	stimuli\sled\sled_05s.jpg	4	-1	1	0	sled_05s.jpg	0	0	0	210.474986023648	210.524958387861	0.0499723642133176
80671	50	603	0	0	insole	831	294	1	stimuli\insole\insole_08s.jpg	7	-1	1	0	insole_08s.jpg	0	0	0	210.574981708211	210.624962605769	0.049980897558271
80771	50	604	0	0	quesadilla	1261	295	1	stimuli\quesadilla\quesadilla_04s.jpg	3	-1	1	0	quesadilla_04s.jpg	0	0	0	210.674983975638	210.724966336042	0.0499823604041012
80871	50	605	0	0	ruby	1338	296	1	stimuli\ruby\ruby_03s.jpg	2	-1	1	0	ruby_03s.jpg	0	0	0	210.774986730685	210.824967140608	0.0499804099235917
80971	50	606	0	0	pipe2	1187	297	1	stimuli\pipe2\pipe2_06s.jpg	5	-1	1	0	pipe2_06s.jpg	0	0	0	210.874987291449	210.924983792793	0.0499965013441397
81071	50	607	0	0	spark_plug	1506	298	1	stimuli\spark_plug\spark_plug_04s.jpg	3	-1	1	0	spark_plug_04s.jpg	0	0	0	210.974992728399	211.024975088803	0.0499823604041012
81171	50	608	0	0	hanger	751	299	1	stimuli\hanger\hanger_09s.jpg	8	-1	1	0	hanger_09s.jpg	0	0	0	211.074992070106	211.124973699087	0.0499816289811861
81271	50	609	0	0	helicopter	775	300	1	stimuli\helicopter\helicopter_01b.jpg	0	-1	1	0	helicopter_01b.jpg	0	0	0	211.175003358483	211.224982793166	0.0499794346833369
81371	50	610	0	0	blender	138	301	1	stimuli\blender\blender_02s.jpg	1	-1	1	0	blender_02s.jpg	0	0	0	211.27498343926	211.325000420577	0.0500169813167304
81471	50	611	0	0	sifter	1443	302	1	stimuli\sifter\sifter_09s.jpg	8	-1	1	0	sifter_09s.jpg	0	0	0	211.375019108556	211.425021461313	0.0500023527565645
81571	50	612	0	0	eyeliner	567	303	1	stimuli\eyeliner\eyeliner_03s.jpg	2	-1	1	0	eyeliner_03s.jpg	0	0	0	211.475029909314	211.525012025901	0.0499821165867615
81671	50	613	0	0	dishwasher	491	304	1	stimuli\dishwasher\dishwasher_10n.jpg	9	-1	1	0	dishwasher_10n.jpg	0	0	0	211.5750287634	211.625009904761	0.0499811413610587
81771	50	614	0	0	stair	1532	305	1	stimuli\stair\stair_07s.jpg	6	-1	1	0	stair_07s.jpg	0	0	0	211.675037857494	211.725013878851	0.0499760213569971
81871	50	615	0	0	breadbox	195	306	1	stimuli\breadbox\breadbox_10s.jpg	9	-1	1	0	breadbox_10s.jpg	0	0	0	211.775037930638	211.825005174862	0.0499672442238079
81971	50	616	0	0	tack	1611	307	1	stimuli\tack\tack_06s.jpg	5	-1	1	0	tack_06s.jpg	0	0	0	211.875036297104	211.925026703218	0.0499904061143752
82071	50	617	0	0	crouton	445	308	1	stimuli\crouton\crouton_09s.jpg	8	-1	1	0	crouton_09s.jpg	0	0	0	211.975024667408	212.024999957343	0.049975289934082
90571	50	618	0	0	squid	1528	0	2	stimuli\squid\squid_04s.jpg	3	-1	2	0	squid_04s.jpg	0	0	0	220.47525275097	220.525225115183	0.0499723642133176
90671	50	619	0	0	crab	428	1	2	stimuli\crab\crab_06s.jpg	5	-1	2	0	crab_06s.jpg	0	0	0	220.575249410787	220.625231283557	0.0499818727694219
90771	50	620	0	0	tile	1660	2	2	stimuli\tile\tile_01s.jpg	0	-1	2	0	tile_01s.jpg	0	0	0	220.675249971537	220.725235989084	0.0499860175477806
90871	50	621	0	0	bok_choy	156	3	2	stimuli\bok_choy\bok_choy_07s.jpg	6	-1	2	0	bok_choy_07s.jpg	0	0	0	220.775251995161	220.825234111748	0.0499821165867615
90971	50	622	0	0	ladder	886	4	2	stimuli\ladder\ladder_09s.jpg	8	-1	2	0	ladder_09s.jpg	0	0	0	220.875255237828	220.925220775389	0.049965537560638
91071	50	623	0	0	hairbrush	734	5	2	stimuli\hairbrush\hairbrush_05s.jpg	4	-1	2	0	hairbrush_05s.jpg	0	0	0	220.975244583358	221.025226456142	0.0499818727839738
91171	50	624	0	0	crowbar	447	6	2	stimuli\crowbar\crowbar_09s.jpg	8	-1	2	0	crowbar_09s.jpg	0	0	0	221.075246850785	221.125233355939	0.0499865051533561
91271	50	625	0	0	trombone	1716	7	2	stimuli\trombone\trombone_04s.jpg	3	-1	2	0	trombone_04s.jpg	0	0	0	221.175277400078	221.225251958589	0.0499745585111668
91371	50	626	0	0	hinge	779	8	2	stimuli\hinge\hinge_12s.jpg	11	-1	2	0	hinge_12s.jpg	0	0	0	221.275270158949	221.325235208889	0.0499650499405107
91471	50	627	0	0	cork	409	9	2	stimuli\cork\cork_06s.jpg	5	-1	2	0	cork_06s.jpg	0	0	0	221.375271694953	221.42525381154	0.0499821165867615
91571	50	628	0	0	kebab	865	10	2	stimuli\kebab\kebab_06n.jpg	5	-1	2	0	kebab_06n.jpg	0	0	0	221.475280301413	221.525249008497	0.0499687070841901
91671	50	629	0	0	torch	1683	11	2	stimuli\torch\torch_11s.jpg	10	-1	2	0	torch_11s.jpg	0	0	0	221.575256968863	221.625245180694	0.0499882118310779
91771	50	630	0	0	joystick	852	12	2	stimuli\joystick\joystick_08s.jpg	7	-1	2	0	joystick_08s.jpg	0	0	0	221.67526581914	221.725269878574	0.0500040594342863
91871	50	631	0	0	arm	36	13	2	stimuli\arm\arm_06s.jpg	5	-1	2	0	arm_06s.jpg	0	0	0	221.775268818004	221.825266050757	0.0499972327525029
91971	50	632	0	0	photo_booth	1163	14	2	stimuli\photo_booth\photo_booth_12s.jpg	11	-1	2	0	photo_booth_12s.jpg	0	0	0	221.875269134951	221.925270756285	0.0500016213336494
92071	50	633	0	0	applesauce	32	15	2	stimuli\applesauce\applesauce_03s.jpg	2	-1	2	0	applesauce_03s.jpg	0	0	0	221.975294564254	222.025266928482	0.0499723642278695
92171	50	634	0	0	almond	13	16	2	stimuli\almond\almond_09s.jpg	8	-1	2	0	almond_09s.jpg	0	0	0	222.075288785971	222.125273584476	0.0499847985047381
92271	50	635	0	0	tweezers	1739	17	2	stimuli\tweezers\tweezers_01b.jpg	0	-1	2	1	tweezers_01b.jpg	0	0	0	222.175290078172	222.225271219519	0.0499811413465068
92371	50	636	0	0	bow2	175	18	2	stimuli\bow2\bow2_10s.jpg	9	-1	2	0	bow2_10s.jpg	0	0	0	222.275295271305	222.325276168849	0.049980897543719
92471	50	637	0	0	branch	192	19	2	stimuli\branch\branch_12s.jpg	11	-1	2	0	branch_12s.jpg	0	0	0	222.375299489198	222.425278923896	0.0499794346978888
92571	50	638	0	0	soup	1499	20	2	stimuli\soup\soup_09s.jpg	8	-1	2	0	soup_09s.jpg	1	0.341923708663671	1	222.475298099496	222.525279240843	0.0499811413465068
92671	50	639	0	0	game	654	21	2	stimuli\game\game_07s.jpg	6	-1	2	0	game_07s.jpg	0	0	0	222.575298904063	222.625284677793	0.049985773730441
92771	50	640	0	0	cobra	371	22	2	stimuli\cobra\cobra_07s.jpg	6	-1	2	0	cobra_07s.jpg	0	0	0	222.675303365773	222.725293771873	0.0499904060998233
92871	50	641	0	0	nightshirt	1058	23	2	stimuli\nightshirt\nightshirt_11s.jpg	10	-1	2	0	nightshirt_11s.jpg	0	0	0	222.77530417034	222.82528896883	0.0499847984901862
92971	50	642	0	0	jeep	843	24	2	stimuli\jeep\jeep_07s.jpg	6	-1	2	0	jeep_07s.jpg	0	0	0	222.87530863205	222.925297819107	0.0499891870567808
93071	50	643	0	0	lollipop	945	25	2	stimuli\lollipop\lollipop_07s.jpg	6	-1	2	0	lollipop_07s.jpg	0	0	0	222.97531772613	223.025291553204	0.0499738270736998
93171	50	644	0	0	videocassette	1761	26	2	stimuli\videocassette\videocassette_06s.jpg	5	-1	2	0	videocassette_06s.jpg	0	0	0	223.075304389771	223.125270658755	0.0499662689835532
93271	50	645	0	0	baton3	94	27	2	stimuli\baton3\baton3_02s.jpg	1	-1	2	0	baton3_02s.jpg	0	0	0	223.175304219098	223.225306328051	0.0500021089537768
93371	50	646	0	0	sword	1602	28	2	stimuli\sword\sword_11s.jpg	10	-1	2	0	sword_11s.jpg	0	0	0	223.275311362711	223.325307620238	0.0499962575268
93471	50	647	0	0	tape_recorder	1624	29	2	stimuli\tape_recorder\tape_recorder_04s.jpg	3	-1	2	0	tape_recorder_04s.jpg	0	0	0	223.375329477742	223.42524722869	0.0499177509482251
93571	50	648	0	0	hook2	794	30	2	stimuli\hook2\hook2_04s.jpg	3	-1	2	0	hook2_04s.jpg	0	0	0	223.475309802336	223.525309717006	0.0499999146704795
93671	50	649	0	0	cheeseburger	313	31	2	stimuli\cheeseburger\cheeseburger_03s.jpg	2	-1	2	0	cheeseburger_03s.jpg	0	0	0	223.575311825945	223.625286140639	0.0499743146938272
93771	50	650	0	0	avocado	43	32	2	stimuli\avocado\avocado_12s.jpg	11	-1	2	0	avocado_12s.jpg	0	0	0	223.675305072436	223.725281337596	0.0499762651597848
93871	50	651	0	0	canoe	262	33	2	stimuli\canoe\canoe_09s.jpg	8	-1	2	0	canoe_09s.jpg	0	0	0	223.775307583666	223.825287749787	0.0499801661208039
93971	50	652	0	0	moccasin	1010	34	2	stimuli\moccasin\moccasin_02s.jpg	1	-1	2	0	moccasin_02s.jpg	0	0	0	223.875313508237	223.925302207674	0.0499886994366534
94071	50	653	0	0	figurine	582	35	2	stimuli\figurine\figurine_10s.jpg	9	-1	2	0	figurine_10s.jpg	0	0	0	223.97533991278	224.025328368414	0.0499884556338657
94171	50	654	0	0	floss	617	36	2	stimuli\floss\floss_12s.jpg	11	-1	2	0	floss_12s.jpg	0	0	0	224.07534803162	224.125301866341	0.0499538347212365
94271	50	655	0	0	pear	1133	37	2	stimuli\pear\pear_11s.jpg	10	-1	2	0	pear_11s.jpg	0	0	0	224.175320310518	224.225299257581	0.0499789470632095
94371	50	656	0	0	foam	624	38	2	stimuli\foam\foam_10s.jpg	9	-1	2	0	foam_10s.jpg	0	0	0	224.275334524587	224.325331513552	0.0499969889642671
94471	50	657	0	0	garbage_truck	656	39	2	stimuli\garbage_truck\garbage_truck_02s.jpg	1	-1	2	0	garbage_truck_02s.jpg	0	0	0	224.375350201532	224.425315251472	0.0499650499405107
94571	50	658	0	0	hat	757	40	2	stimuli\hat\hat_06s.jpg	5	-1	2	0	hat_06s.jpg	0	0	0	224.475351737521	224.525318250322	0.0499665128008928
94671	50	659	0	0	lizard	937	41	2	stimuli\lizard\lizard_08n.jpg	7	-1	2	0	lizard_08n.jpg	0	0	0	224.575336450682	224.625311252996	0.0499748023139546
